index_left,index_middle,index_right,reflectance_surround_left,reflectance_center_left,emission_spot_left,reflectance_surround_middle,reflectance_center_middle,emission_spot_middle,reflectance_surround_right,reflectance_center_right,emission_spot_right,ImageName,ImageExr,ImageNpy,trials_2.thisRepN,trials_2.thisTrialN,trials_2.thisN,trials_2.thisIndex,trials.thisRepN,trials.thisTrialN,trials.thisN,trials.thisIndex,sound_1.started,BB_Trial.resp,BB_Trial.color,BB_Trial.rt,text.started,text.stopped,sound_2.started,block,participant,session,L/B,scene,condition,nTrialsPerBlock,date,expName,psychopyVersion,frameRate,Unnamed: 41
5,1,13,0,1.0,0.298245614035088,0,0.111111111111111,0.298245614035088,0,0.111111111111111,3.10526315789474,ReadingArea_rsl0-rcl100-esl29-rsm0-rcm11-esm29-rsr0-rcr11-esr310,exr/ReadingArea_rsl0-rcl100-esl29-rsm0-rcm11-esm29-rsr0-rcr11-esr310.exr,ReadingArea_rsl0-rcl100-esl29-rsm0-rcm11-esm29-rsr0-rcr11-esr310.npz,,,,,0,0,0,594,291.84026219844816,right,red,4.44,324.7204430103302,325.3833739757538,270.98155119419096,1,7,4,lightness,readingArea,realistic,75,2023-04-01_11h12.21.375,tripletExp_regina_11082022,2022.2.4,120.23265080306952,
5,10,0,0,1.0,0.298245614035088,0,0.694444444444444,1.0,0,0.027777777777778,0.298245614035088,ReadingArea_rsl0-rcl100-esl29-rsm0-rcm69-esm100-rsr0-rcr2-esr29,exr/ReadingArea_rsl0-rcl100-esl29-rsm0-rcm69-esm100-rsr0-rcr2-esr29.exr,ReadingArea_rsl0-rcl100-esl29-rsm0-rcm69-esm100-rsr0-rcr2-esr29.npz,,,,,0,1,1,293,,left,green,2.64,328.8685760498047,349.2854149341583,,1,7,4,lightness,readingArea,realistic,75,2023-04-01_11h12.21.375,tripletExp_regina_11082022,2022.2.4,120.23265080306952,
2,9,11,0,0.25,0.298245614035088,0,0.444444444444444,1.0,0,1.0,1.0,ReadingArea_rsl0-rcl25-esl29-rsm0-rcm44-esm100-rsr0-rcr100-esr100,exr/ReadingArea_rsl0-rcl25-esl29-rsm0-rcm44-esm100-rsr0-rcr100-esr100.exr,ReadingArea_rsl0-rcl25-esl29-rsm0-rcm44-esm100-rsr0-rcr100-esr100.npz,,,,,0,2,2,164,,left,green,3.1,352.77205204963684,353.267480134964,,1,7,4,lightness,readingArea,realistic,75,2023-04-01_11h12.21.375,tripletExp_regina_11082022,2022.2.4,120.23265080306952,
1,5,14,0,0.111111111111111,0.298245614035088,0,1.0,0.298245614035088,0,0.25,3.10526315789474,ReadingArea_rsl0-rcl11-esl29-rsm0-rcm100-esm29-rsr0-rcr25-esr310,exr/ReadingArea_rsl0-rcl11-esl29-rsm0-rcm100-esm29-rsr0-rcr25-esr310.exr,ReadingArea_rsl0-rcl11-esl29-rsm0-rcm100-esm29-rsr0-rcr25-esr310.npz,,,,,0,3,3,191,,right,red,2.94,356.74006509780884,357.23886609077454,,1,7,4,lightness,readingArea,realistic,75,2023-04-01_11h12.21.375,tripletExp_regina_11082022,2022.2.4,120.23265080306952,
10,3,0,0,0.694444444444444,1.0,0,0.444444444444444,0.298245614035088,0,0.027777777777778,0.298245614035088,ReadingArea_rsl0-rcl69-esl100-rsm0-rcm44-esm29-rsr0-rcr2-esr29,exr/ReadingArea_rsl0-rcl69-esl100-rsm0-rcm44-esm29-rsr0-rcr2-esr29.exr,ReadingArea_rsl0-rcl69-esl100-rsm0-rcm44-esm29-rsr0-rcr2-esr29.npz,,,,,0,4,4,203,,left,green,4.08,362.46737694740295,362.9257640838623,,1,7,4,lightness,readingArea,realistic,75,2023-04-01_11h12.21.375,tripletExp_regina_11082022,2022.2.4,120.23265080306952,
6,5,13,0,0.027777777777778,1.0,0,1.0,0.298245614035088,0,0.111111111111111,3.10526315789474,ReadingArea_rsl0-rcl2-esl100-rsm0-rcm100-esm29-rsr0-rcr11-esr310,exr/ReadingArea_rsl0-rcl2-esl100-rsm0-rcm100-esm29-rsr0-rcr11-esr310.exr,ReadingArea_rsl0-rcl2-esl100-rsm0-rcm100-esm29-rsr0-rcr11-esr310.npz,,,,,0,5,5,450,,right,red,4.05,368.1783061027527,368.67376804351807,,1,7,4,lightness,readingArea,realistic,75,2023-04-01_11h12.21.375,tripletExp_regina_11082022,2022.2.4,120.23265080306952,
13,3,12,0,0.111111111111111,3.10526315789474,0,0.444444444444444,0.298245614035088,0,0.027777777777778,3.10526315789474,ReadingArea_rsl0-rcl11-esl310-rsm0-rcm44-esm29-rsr0-rcr2-esr310,exr/ReadingArea_rsl0-rcl11-esl310-rsm0-rcm44-esm29-rsr0-rcr2-esr310.exr,ReadingArea_rsl0-rcl11-esl310-rsm0-rcm44-esm29-rsr0-rcr2-esr310.npz,,,,,0,6,6,80,,left,green,4.46,373.92246413230896,374.49435114860535,,1,7,4,lightness,readingArea,realistic,75,2023-04-01_11h12.21.375,tripletExp_regina_11082022,2022.2.4,120.23265080306952,
6,0,14,0,0.027777777777778,1.0,0,0.027777777777778,0.298245614035088,0,0.25,3.10526315789474,ReadingArea_rsl0-rcl2-esl100-rsm0-rcm2-esm29-rsr0-rcr25-esr310,exr/ReadingArea_rsl0-rcl2-esl100-rsm0-rcm2-esm29-rsr0-rcr25-esr310.exr,ReadingArea_rsl0-rcl2-esl100-rsm0-rcm2-esm29-rsr0-rcr25-esr310.npz,,,,,0,7,7,169,,left,green,4.01,379.71277594566345,380.2741551399231,,1,7,4,lightness,readingArea,realistic,75,2023-04-01_11h12.21.375,tripletExp_regina_11082022,2022.2.4,120.23265080306952,
4,8,0,0,0.694444444444444,0.298245614035088,0,0.25,1.0,0,0.027777777777778,0.298245614035088,ReadingArea_rsl0-rcl69-esl29-rsm0-rcm25-esm100-rsr0-rcr2-esr29,exr/ReadingArea_rsl0-rcl69-esl29-rsm0-rcm25-esm100-rsr0-rcr2-esr29.exr,ReadingArea_rsl0-rcl69-esl29-rsm0-rcm25-esm100-rsr0-rcr2-esr29.npz,,,,,0,8,8,137,,left,green,4.03,385.52304792404175,385.9882791042328,,1,7,4,lightness,readingArea,realistic,75,2023-04-01_11h12.21.375,tripletExp_regina_11082022,2022.2.4,120.23265080306952,
11,7,14,0,1.0,1.0,0,0.111111111111111,1.0,0,0.25,3.10526315789474,ReadingArea_rsl0-rcl100-esl100-rsm0-rcm11-esm100-rsr0-rcr25-esr310,exr/ReadingArea_rsl0-rcl100-esl100-rsm0-rcm11-esm100-rsr0-rcr25-esr310.exr,ReadingArea_rsl0-rcl100-esl100-rsm0-rcm11-esm100-rsr0-rcr25-esr310.npz,,,,,0,9,9,119,,right,red,4.49,391.23901414871216,391.7841041088104,,1,7,4,lightness,readingArea,realistic,75,2023-04-01_11h12.21.375,tripletExp_regina_11082022,2022.2.4,120.23265080306952,
3,10,9,0,0.444444444444444,0.298245614035088,0,0.694444444444444,1.0,0,0.444444444444444,1.0,ReadingArea_rsl0-rcl44-esl29-rsm0-rcm69-esm100-rsr0-rcr44-esr100,exr/ReadingArea_rsl0-rcl44-esl29-rsm0-rcm69-esm100-rsr0-rcr44-esr100.exr,ReadingArea_rsl0-rcl44-esl29-rsm0-rcm69-esm100-rsr0-rcr44-esr100.npz,,,,,0,10,10,222,,right,red,4.12,397.03614807128906,397.5337390899658,,1,7,4,lightness,readingArea,realistic,75,2023-04-01_11h12.21.375,tripletExp_regina_11082022,2022.2.4,120.23265080306952,
7,8,11,0,0.111111111111111,1.0,0,0.25,1.0,0,1.0,1.0,ReadingArea_rsl0-rcl11-esl100-rsm0-rcm25-esm100-rsr0-rcr100-esr100,exr/ReadingArea_rsl0-rcl11-esl100-rsm0-rcm25-esm100-rsr0-rcr100-esr100.exr,ReadingArea_rsl0-rcl11-esl100-rsm0-rcm25-esm100-rsr0-rcr100-esr100.npz,,,,,0,11,11,363,,left,green,4.0,402.7777519226074,403.2496619224548,,1,7,4,lightness,readingArea,realistic,75,2023-04-01_11h12.21.375,tripletExp_regina_11082022,2022.2.4,120.23265080306952,
14,6,2,0,0.25,3.10526315789474,0,0.027777777777778,1.0,0,0.25,0.298245614035088,ReadingArea_rsl0-rcl25-esl310-rsm0-rcm2-esm100-rsr0-rcr25-esr29,exr/ReadingArea_rsl0-rcl25-esl310-rsm0-rcm2-esm100-rsr0-rcr25-esr29.exr,ReadingArea_rsl0-rcl25-esl310-rsm0-rcm2-esm100-rsr0-rcr25-esr29.npz,,,,,0,12,12,272,,right,red,4.11,408.4819459915161,408.9553849697113,,1,7,4,lightness,readingArea,realistic,75,2023-04-01_11h12.21.375,tripletExp_regina_11082022,2022.2.4,120.23265080306952,
9,11,13,0,0.444444444444444,1.0,0,1.0,1.0,0,0.111111111111111,3.10526315789474,ReadingArea_rsl0-rcl44-esl100-rsm0-rcm100-esm100-rsr0-rcr11-esr310,exr/ReadingArea_rsl0-rcl44-esl100-rsm0-rcm100-esm100-rsr0-rcr11-esr310.exr,ReadingArea_rsl0-rcl44-esl100-rsm0-rcm100-esm100-rsr0-rcr11-esr310.npz,,,,,0,13,13,254,,left,green,2.44,412.43526911735535,412.8980190753937,,1,7,4,lightness,readingArea,realistic,75,2023-04-01_11h12.21.375,tripletExp_regina_11082022,2022.2.4,120.23265080306952,
7,2,6,0,0.111111111111111,1.0,0,0.25,0.298245614035088,0,0.027777777777778,1.0,ReadingArea_rsl0-rcl11-esl100-rsm0-rcm25-esm29-rsr0-rcr2-esr100,exr/ReadingArea_rsl0-rcl11-esl100-rsm0-rcm25-esm29-rsr0-rcr2-esr100.exr,ReadingArea_rsl0-rcl11-esl100-rsm0-rcm25-esm29-rsr0-rcr2-esr100.npz,,,,,0,14,14,506,,left,green,4.19,418.1334879398346,418.6044239997864,,1,7,4,lightness,readingArea,realistic,75,2023-04-01_11h12.21.375,tripletExp_regina_11082022,2022.2.4,120.23265080306952,
2,4,13,0,0.25,0.298245614035088,0,0.694444444444444,0.298245614035088,0,0.111111111111111,3.10526315789474,ReadingArea_rsl0-rcl25-esl29-rsm0-rcm69-esm29-rsr0-rcr11-esr310,exr/ReadingArea_rsl0-rcl25-esl29-rsm0-rcm69-esm29-rsr0-rcr11-esr310.exr,ReadingArea_rsl0-rcl25-esl29-rsm0-rcm69-esm29-rsr0-rcr11-esr310.npz,,,,,0,15,15,325,,right,red,4.22,423.8596241474152,424.33696603775024,,1,7,4,lightness,readingArea,realistic,75,2023-04-01_11h12.21.375,tripletExp_regina_11082022,2022.2.4,120.23265080306952,
11,4,0,0,1.0,1.0,0,0.694444444444444,0.298245614035088,0,0.027777777777778,0.298245614035088,ReadingArea_rsl0-rcl100-esl100-rsm0-rcm69-esm29-rsr0-rcr2-esr29,exr/ReadingArea_rsl0-rcl100-esl100-rsm0-rcm69-esm29-rsr0-rcr2-esr29.exr,ReadingArea_rsl0-rcl100-esl100-rsm0-rcm69-esm29-rsr0-rcr2-esr29.npz,,,,,0,16,16,219,,left,green,4.07,429.555300951004,,,1,7,4,lightness,readingArea,realistic,75,2023-04-01_11h12.21.375,tripletExp_regina_11082022,2022.2.4,120.23265080306952,
8,7,13,0,0.25,1.0,0,0.111111111111111,1.0,0,0.111111111111111,3.10526315789474,ReadingArea_rsl0-rcl25-esl100-rsm0-rcm11-esm100-rsr0-rcr11-esr310,exr/ReadingArea_rsl0-rcl25-esl100-rsm0-rcm11-esm100-rsr0-rcr11-esr310.exr,ReadingArea_rsl0-rcl25-esl100-rsm0-rcm11-esm100-rsr0-rcr11-esr310.npz,,,,,0,17,17,512,,left,green,4.5,435.267235994339,435.7590560913086,,1,7,4,lightness,readingArea,realistic,75,2023-04-01_11h12.21.375,tripletExp_regina_11082022,2022.2.4,120.23265080306952,
0,4,6,0,0.027777777777778,0.298245614035088,0,0.694444444444444,0.298245614035088,0,0.027777777777778,1.0,ReadingArea_rsl0-rcl2-esl29-rsm0-rcm69-esm29-rsr0-rcr2-esr100,exr/ReadingArea_rsl0-rcl2-esl29-rsm0-rcm69-esm29-rsr0-rcr2-esr100.exr,ReadingArea_rsl0-rcl2-esl29-rsm0-rcm69-esm29-rsr0-rcr2-esr100.npz,,,,,0,18,18,49,,right,red,2.34,439.2388060092926,439.7148220539093,,1,7,4,lightness,readingArea,realistic,75,2023-04-01_11h12.21.375,tripletExp_regina_11082022,2022.2.4,120.23265080306952,
14,10,5,0,0.25,3.10526315789474,0,0.694444444444444,1.0,0,1.0,0.298245614035088,ReadingArea_rsl0-rcl25-esl310-rsm0-rcm69-esm100-rsr0-rcr100-esr29,exr/ReadingArea_rsl0-rcl25-esl310-rsm0-rcm69-esm100-rsr0-rcr100-esr29.exr,ReadingArea_rsl0-rcl25-esl310-rsm0-rcm69-esm100-rsr0-rcr100-esr29.npz,,,,,0,19,19,96,,left,green,4.19,444.93934297561646,445.4316871166229,,1,7,4,lightness,readingArea,realistic,75,2023-04-01_11h12.21.375,tripletExp_regina_11082022,2022.2.4,120.23265080306952,
0,5,12,0,0.027777777777778,0.298245614035088,0,1.0,0.298245614035088,0,0.027777777777778,3.10526315789474,ReadingArea_rsl0-rcl2-esl29-rsm0-rcm100-esm29-rsr0-rcr2-esr310,exr/ReadingArea_rsl0-rcl2-esl29-rsm0-rcm100-esm29-rsr0-rcr2-esr310.exr,ReadingArea_rsl0-rcl2-esl29-rsm0-rcm100-esm29-rsr0-rcr2-esr310.npz,,,,,0,20,20,366,,right,red,3.87,450.69619703292847,451.2644021511078,,1,7,4,lightness,readingArea,realistic,75,2023-04-01_11h12.21.375,tripletExp_regina_11082022,2022.2.4,120.23265080306952,
9,11,5,0,0.444444444444444,1.0,0,1.0,1.0,0,1.0,0.298245614035088,ReadingArea_rsl0-rcl44-esl100-rsm0-rcm100-esm100-rsr0-rcr100-esr29,exr/ReadingArea_rsl0-rcl44-esl100-rsm0-rcm100-esm100-rsr0-rcr100-esr29.exr,ReadingArea_rsl0-rcl44-esl100-rsm0-rcm100-esm100-rsr0-rcr100-esr29.npz,,,,,0,21,21,142,,left,green,2.38,454.7266869544983,455.2025089263916,,1,7,4,lightness,readingArea,realistic,75,2023-04-01_11h12.21.375,tripletExp_regina_11082022,2022.2.4,120.23265080306952,
14,8,2,0,0.25,3.10526315789474,0,0.25,1.0,0,0.25,0.298245614035088,ReadingArea_rsl0-rcl25-esl310-rsm0-rcm25-esm100-rsr0-rcr25-esr29,exr/ReadingArea_rsl0-rcl25-esl310-rsm0-rcm25-esm100-rsr0-rcr25-esr29.exr,ReadingArea_rsl0-rcl25-esl310-rsm0-rcm25-esm100-rsr0-rcr25-esr29.npz,,,,,0,22,22,251,,right,red,2.72,458.68832993507385,459.16909313201904,,1,7,4,lightness,readingArea,realistic,75,2023-04-01_11h12.21.375,tripletExp_regina_11082022,2022.2.4,120.23265080306952,
13,0,4,0,0.111111111111111,3.10526315789474,0,0.027777777777778,0.298245614035088,0,0.694444444444444,0.298245614035088,ReadingArea_rsl0-rcl11-esl310-rsm0-rcm2-esm29-rsr0-rcr69-esr29,exr/ReadingArea_rsl0-rcl11-esl310-rsm0-rcm2-esm29-rsr0-rcr69-esr29.exr,ReadingArea_rsl0-rcl11-esl310-rsm0-rcm2-esm29-rsr0-rcr69-esr29.npz,,,,,0,23,23,270,,right,red,4.11,464.3968279361725,465.03059101104736,,1,7,4,lightness,readingArea,realistic,75,2023-04-01_11h12.21.375,tripletExp_regina_11082022,2022.2.4,120.23265080306952,
7,10,4,0,0.111111111111111,1.0,0,0.694444444444444,1.0,0,0.694444444444444,0.298245614035088,ReadingArea_rsl0-rcl11-esl100-rsm0-rcm69-esm100-rsr0-rcr69-esr29,exr/ReadingArea_rsl0-rcl11-esl100-rsm0-rcm69-esm100-rsr0-rcr69-esr29.exr,ReadingArea_rsl0-rcl11-esl100-rsm0-rcm69-esm100-rsr0-rcr69-esr29.npz,,,,,0,24,24,46,,right,red,4.06,470.2676999568939,470.95246410369873,,1,7,4,lightness,readingArea,realistic,75,2023-04-01_11h12.21.375,tripletExp_regina_11082022,2022.2.4,120.23265080306952,
10,3,14,0,0.694444444444444,1.0,0,0.444444444444444,0.298245614035088,0,0.25,3.10526315789474,ReadingArea_rsl0-rcl69-esl100-rsm0-rcm44-esm29-rsr0-rcr25-esr310,exr/ReadingArea_rsl0-rcl69-esl100-rsm0-rcm44-esm29-rsr0-rcr25-esr310.exr,ReadingArea_rsl0-rcl69-esl100-rsm0-rcm44-esm29-rsr0-rcr25-esr310.npz,,,,,0,25,25,597,,left,green,4.04,476.1510081291199,476.6340191364288,,1,7,4,lightness,readingArea,realistic,75,2023-04-01_11h12.21.375,tripletExp_regina_11082022,2022.2.4,120.23265080306952,
10,14,4,0,0.694444444444444,1.0,0,0.25,3.10526315789474,0,0.694444444444444,0.298245614035088,ReadingArea_rsl0-rcl69-esl100-rsm0-rcm25-esm310-rsr0-rcr69-esr29,exr/ReadingArea_rsl0-rcl69-esl100-rsm0-rcm25-esm310-rsr0-rcr69-esr29.exr,ReadingArea_rsl0-rcl69-esl100-rsm0-rcm25-esm310-rsr0-rcr69-esr29.npz,,,,,0,26,26,267,,left,green,4.09,481.8611500263214,482.32743406295776,,1,7,4,lightness,readingArea,realistic,75,2023-04-01_11h12.21.375,tripletExp_regina_11082022,2022.2.4,120.23265080306952,
4,11,14,0,0.694444444444444,0.298245614035088,0,1.0,1.0,0,0.25,3.10526315789474,ReadingArea_rsl0-rcl69-esl29-rsm0-rcm100-esm100-rsr0-rcr25-esr310,exr/ReadingArea_rsl0-rcl69-esl29-rsm0-rcm100-esm100-rsr0-rcr25-esr310.exr,ReadingArea_rsl0-rcl69-esl29-rsm0-rcm100-esm100-rsr0-rcr25-esr310.npz,,,,,0,27,27,165,,right,red,0.92,484.0478971004486,484.49156498909,,1,7,4,lightness,readingArea,realistic,75,2023-04-01_11h12.21.375,tripletExp_regina_11082022,2022.2.4,120.23265080306952,
8,4,1,0,0.25,1.0,0,0.694444444444444,0.298245614035088,0,0.111111111111111,0.298245614035088,ReadingArea_rsl0-rcl25-esl100-rsm0-rcm69-esm29-rsr0-rcr11-esr29,exr/ReadingArea_rsl0-rcl25-esl100-rsm0-rcm69-esm29-rsr0-rcr11-esr29.exr,ReadingArea_rsl0-rcl25-esl100-rsm0-rcm69-esm29-rsr0-rcr11-esr29.npz,,,,,0,28,28,286,,left,green,0.9,486.1829860210418,486.67660093307495,,1,7,4,lightness,readingArea,realistic,75,2023-04-01_11h12.21.375,tripletExp_regina_11082022,2022.2.4,120.23265080306952,
9,8,0,0,0.444444444444444,1.0,0,0.25,1.0,0,0.027777777777778,0.298245614035088,ReadingArea_rsl0-rcl44-esl100-rsm0-rcm25-esm100-rsr0-rcr2-esr29,exr/ReadingArea_rsl0-rcl44-esl100-rsm0-rcm25-esm100-rsr0-rcr2-esr29.exr,ReadingArea_rsl0-rcl44-esl100-rsm0-rcm25-esm100-rsr0-rcr2-esr29.npz,,,,,0,29,29,66,,left,green,0.88,488.3655750751496,488.827171087265,,1,7,4,lightness,readingArea,realistic,75,2023-04-01_11h12.21.375,tripletExp_regina_11082022,2022.2.4,120.23265080306952,
2,9,8,0,0.25,0.298245614035088,0,0.444444444444444,1.0,0,0.25,1.0,ReadingArea_rsl0-rcl25-esl29-rsm0-rcm44-esm100-rsr0-rcr25-esr100,exr/ReadingArea_rsl0-rcl25-esl29-rsm0-rcm44-esm100-rsr0-rcr25-esr100.exr,ReadingArea_rsl0-rcl25-esl29-rsm0-rcm44-esm100-rsr0-rcr25-esr100.npz,,,,,0,30,30,407,,right,red,1.01,490.5491831302643,491.11672806739807,,1,7,4,lightness,readingArea,realistic,75,2023-04-01_11h12.21.375,tripletExp_regina_11082022,2022.2.4,120.23265080306952,
5,10,12,0,1.0,0.298245614035088,0,0.694444444444444,1.0,0,0.027777777777778,3.10526315789474,ReadingArea_rsl0-rcl100-esl29-rsm0-rcm69-esm100-rsr0-rcr2-esr310,exr/ReadingArea_rsl0-rcl100-esl29-rsm0-rcm69-esm100-rsr0-rcr2-esr310.exr,ReadingArea_rsl0-rcl100-esl29-rsm0-rcm69-esm100-rsr0-rcr2-esr310.npz,,,,,0,31,31,587,,left,green,0.93,492.80764508247375,,,1,7,4,lightness,readingArea,realistic,75,2023-04-01_11h12.21.375,tripletExp_regina_11082022,2022.2.4,120.23265080306952,
12,11,13,0,0.027777777777778,3.10526315789474,0,1.0,1.0,0,0.111111111111111,3.10526315789474,ReadingArea_rsl0-rcl2-esl310-rsm0-rcm100-esm100-rsr0-rcr11-esr310,exr/ReadingArea_rsl0-rcl2-esl310-rsm0-rcm100-esm100-rsr0-rcr11-esr310.exr,ReadingArea_rsl0-rcl2-esl310-rsm0-rcm100-esm100-rsr0-rcr11-esr310.npz,,,,,0,32,32,151,,right,red,0.91,495.00963711738586,495.56287813186646,,1,7,4,lightness,readingArea,realistic,75,2023-04-01_11h12.21.375,tripletExp_regina_11082022,2022.2.4,120.23265080306952,
13,10,11,0,0.111111111111111,3.10526315789474,0,0.694444444444444,1.0,0,1.0,1.0,ReadingArea_rsl0-rcl11-esl310-rsm0-rcm69-esm100-rsr0-rcr100-esr100,exr/ReadingArea_rsl0-rcl11-esl310-rsm0-rcm69-esm100-rsr0-rcr100-esr100.exr,ReadingArea_rsl0-rcl11-esl310-rsm0-rcm69-esm100-rsr0-rcr100-esr100.npz,,,,,0,33,33,320,,right,red,1.38,497.2836029529572,497.7488059997559,,1,7,4,lightness,readingArea,realistic,75,2023-04-01_11h12.21.375,tripletExp_regina_11082022,2022.2.4,120.23265080306952,
3,1,0,0,0.444444444444444,0.298245614035088,0,0.111111111111111,0.298245614035088,0,0.027777777777778,0.298245614035088,ReadingArea_rsl0-rcl44-esl29-rsm0-rcm11-esm29-rsr0-rcr2-esr29,exr/ReadingArea_rsl0-rcl44-esl29-rsm0-rcm11-esm29-rsr0-rcr2-esr29.exr,ReadingArea_rsl0-rcl44-esl29-rsm0-rcm11-esm29-rsr0-rcr2-esr29.npz,,,,,0,34,34,343,,right,red,4.39,502.9774179458618,503.5307171344757,,1,7,4,lightness,readingArea,realistic,75,2023-04-01_11h12.21.375,tripletExp_regina_11082022,2022.2.4,120.23265080306952,
4,11,12,0,0.694444444444444,0.298245614035088,0,1.0,1.0,0,0.027777777777778,3.10526315789474,ReadingArea_rsl0-rcl69-esl29-rsm0-rcm100-esm100-rsr0-rcr2-esr310,exr/ReadingArea_rsl0-rcl69-esl29-rsm0-rcm100-esm100-rsr0-rcr2-esr310.exr,ReadingArea_rsl0-rcl69-esl29-rsm0-rcm100-esm100-rsr0-rcr2-esr310.npz,,,,,0,35,35,109,,left,green,2.31,506.9751229286194,507.4176969528198,,1,7,4,lightness,readingArea,realistic,75,2023-04-01_11h12.21.375,tripletExp_regina_11082022,2022.2.4,120.23265080306952,
5,0,10,0,1.0,0.298245614035088,0,0.027777777777778,0.298245614035088,0,0.694444444444444,1.0,ReadingArea_rsl0-rcl100-esl29-rsm0-rcm2-esm29-rsr0-rcr69-esr100,exr/ReadingArea_rsl0-rcl100-esl29-rsm0-rcm2-esm29-rsr0-rcr69-esr100.exr,ReadingArea_rsl0-rcl100-esl29-rsm0-rcm2-esm29-rsr0-rcr69-esr100.npz,,,,,0,36,36,361,,left,green,3.65,512.6948421001434,513.1794281005859,,1,7,4,lightness,readingArea,realistic,75,2023-04-01_11h12.21.375,tripletExp_regina_11082022,2022.2.4,120.23265080306952,
11,12,4,0,1.0,1.0,0,0.027777777777778,3.10526315789474,0,0.694444444444444,0.298245614035088,ReadingArea_rsl0-rcl100-esl100-rsm0-rcm2-esm310-rsr0-rcr69-esr29,exr/ReadingArea_rsl0-rcl100-esl100-rsm0-rcm2-esm310-rsr0-rcr69-esr29.exr,ReadingArea_rsl0-rcl100-esl100-rsm0-rcm2-esm310-rsr0-rcr69-esr29.npz,,,,,0,37,37,250,,right,red,1.03,514.8819310665131,515.3636519908905,,1,7,4,lightness,readingArea,realistic,75,2023-04-01_11h12.21.375,tripletExp_regina_11082022,2022.2.4,120.23265080306952,
0,1,8,0,0.027777777777778,0.298245614035088,0,0.111111111111111,0.298245614035088,0,0.25,1.0,ReadingArea_rsl0-rcl2-esl29-rsm0-rcm11-esm29-rsr0-rcr25-esr100,exr/ReadingArea_rsl0-rcl2-esl29-rsm0-rcm11-esm29-rsr0-rcr25-esr100.exr,ReadingArea_rsl0-rcl2-esl29-rsm0-rcm11-esm29-rsr0-rcr25-esr100.npz,,,,,0,38,38,107,,right,red,2.32,518.8341479301453,519.3033919334412,,1,7,4,lightness,readingArea,realistic,75,2023-04-01_11h12.21.375,tripletExp_regina_11082022,2022.2.4,120.23265080306952,
14,2,8,0,0.25,3.10526315789474,0,0.25,0.298245614035088,0,0.25,1.0,ReadingArea_rsl0-rcl25-esl310-rsm0-rcm25-esm29-rsr0-rcr25-esr100,exr/ReadingArea_rsl0-rcl25-esl310-rsm0-rcm25-esm29-rsr0-rcr25-esr100.exr,ReadingArea_rsl0-rcl25-esl310-rsm0-rcm25-esm29-rsr0-rcr25-esr100.npz,,,,,0,39,39,212,,right,red,2.48,522.7571511268616,523.229560136795,,1,7,4,lightness,readingArea,realistic,75,2023-04-01_11h12.21.375,tripletExp_regina_11082022,2022.2.4,120.23265080306952,
13,11,10,0,0.111111111111111,3.10526315789474,0,1.0,1.0,0,0.694444444444444,1.0,ReadingArea_rsl0-rcl11-esl310-rsm0-rcm100-esm100-rsr0-rcr69-esr100,exr/ReadingArea_rsl0-rcl11-esl310-rsm0-rcm100-esm100-rsr0-rcr69-esr100.exr,ReadingArea_rsl0-rcl11-esl310-rsm0-rcm100-esm100-rsr0-rcr69-esr100.npz,,,,,0,40,40,577,,right,red,2.62,526.6868479251862,527.170599937439,,1,7,4,lightness,readingArea,realistic,75,2023-04-01_11h12.21.375,tripletExp_regina_11082022,2022.2.4,120.23265080306952,
14,6,7,0,0.25,3.10526315789474,0,0.027777777777778,1.0,0,0.111111111111111,1.0,ReadingArea_rsl0-rcl25-esl310-rsm0-rcm2-esm100-rsr0-rcr11-esr100,exr/ReadingArea_rsl0-rcl25-esl310-rsm0-rcm2-esm100-rsr0-rcr11-esr100.exr,ReadingArea_rsl0-rcl25-esl310-rsm0-rcm2-esm100-rsr0-rcr11-esr100.npz,,,,,0,41,41,306,,right,red,4.6,532.4279100894928,533.0049891471863,,1,7,4,lightness,readingArea,realistic,75,2023-04-01_11h12.21.375,tripletExp_regina_11082022,2022.2.4,120.23265080306952,
6,11,1,0,0.027777777777778,1.0,0,1.0,1.0,0,0.111111111111111,0.298245614035088,ReadingArea_rsl0-rcl2-esl100-rsm0-rcm100-esm100-rsr0-rcr11-esr29,exr/ReadingArea_rsl0-rcl2-esl100-rsm0-rcm100-esm100-rsr0-rcr11-esr29.exr,ReadingArea_rsl0-rcl2-esl100-rsm0-rcm100-esm100-rsr0-rcr11-esr29.npz,,,,,0,42,42,436,,right,red,3.11,536.4427781105042,536.9354569911957,,1,7,4,lightness,readingArea,realistic,75,2023-04-01_11h12.21.375,tripletExp_regina_11082022,2022.2.4,120.23265080306952,
13,7,11,0,0.111111111111111,3.10526315789474,0,0.111111111111111,1.0,0,1.0,1.0,ReadingArea_rsl0-rcl11-esl310-rsm0-rcm11-esm100-rsr0-rcr100-esr100,exr/ReadingArea_rsl0-rcl11-esl310-rsm0-rcm11-esm100-rsr0-rcr100-esr100.exr,ReadingArea_rsl0-rcl11-esl310-rsm0-rcm11-esm100-rsr0-rcr100-esr100.npz,,,,,0,43,43,121,,left,green,2.34,540.4015650749207,540.889729976654,,1,7,4,lightness,readingArea,realistic,75,2023-04-01_11h12.21.375,tripletExp_regina_11082022,2022.2.4,120.23265080306952,
13,6,2,0,0.111111111111111,3.10526315789474,0,0.027777777777778,1.0,0,0.25,0.298245614035088,ReadingArea_rsl0-rcl11-esl310-rsm0-rcm2-esm100-rsr0-rcr25-esr29,exr/ReadingArea_rsl0-rcl11-esl310-rsm0-rcm2-esm100-rsr0-rcr25-esr29.exr,ReadingArea_rsl0-rcl11-esl310-rsm0-rcm2-esm100-rsr0-rcr25-esr29.npz,,,,,0,44,44,115,,right,red,2.49,544.375657081604,544.8551230430603,,1,7,4,lightness,readingArea,realistic,75,2023-04-01_11h12.21.375,tripletExp_regina_11082022,2022.2.4,120.23265080306952,
14,13,3,0,0.25,3.10526315789474,0,0.111111111111111,3.10526315789474,0,0.444444444444444,0.298245614035088,ReadingArea_rsl0-rcl25-esl310-rsm0-rcm11-esm310-rsr0-rcr44-esr29,exr/ReadingArea_rsl0-rcl25-esl310-rsm0-rcm11-esm310-rsr0-rcr44-esr29.exr,ReadingArea_rsl0-rcl25-esl310-rsm0-rcm11-esm310-rsr0-rcr44-esr29.npz,,,,,0,45,45,256,,left,green,4.9,550.077201128006,550.5554721355438,,1,7,4,lightness,readingArea,realistic,75,2023-04-01_11h12.21.375,tripletExp_regina_11082022,2022.2.4,120.23265080306952,
13,12,5,0,0.111111111111111,3.10526315789474,0,0.027777777777778,3.10526315789474,0,1.0,0.298245614035088,ReadingArea_rsl0-rcl11-esl310-rsm0-rcm2-esm310-rsr0-rcr100-esr29,exr/ReadingArea_rsl0-rcl11-esl310-rsm0-rcm2-esm310-rsr0-rcr100-esr29.exr,ReadingArea_rsl0-rcl11-esl310-rsm0-rcm2-esm310-rsr0-rcr100-esr29.npz,,,,,0,46,46,294,,right,red,4.62,555.7680289745331,556.2620160579681,,1,7,4,lightness,readingArea,realistic,75,2023-04-01_11h12.21.375,tripletExp_regina_11082022,2022.2.4,120.23265080306952,
2,14,7,0,0.25,0.298245614035088,0,0.25,3.10526315789474,0,0.111111111111111,1.0,ReadingArea_rsl0-rcl25-esl29-rsm0-rcm25-esm310-rsr0-rcr11-esr100,exr/ReadingArea_rsl0-rcl25-esl29-rsm0-rcm25-esm310-rsr0-rcr11-esr100.exr,ReadingArea_rsl0-rcl25-esl29-rsm0-rcm25-esm310-rsr0-rcr11-esr100.npz,,,,,0,47,47,310,,right,red,2.17,559.7339279651642,,,1,7,4,lightness,readingArea,realistic,75,2023-04-01_11h12.21.375,tripletExp_regina_11082022,2022.2.4,120.23265080306952,
6,1,14,0,0.027777777777778,1.0,0,0.111111111111111,0.298245614035088,0,0.25,3.10526315789474,ReadingArea_rsl0-rcl2-esl100-rsm0-rcm11-esm29-rsr0-rcr25-esr310,exr/ReadingArea_rsl0-rcl2-esl100-rsm0-rcm11-esm29-rsr0-rcr25-esr310.exr,ReadingArea_rsl0-rcl2-esl100-rsm0-rcm11-esm29-rsr0-rcr25-esr310.npz,,,,,0,48,48,381,,left,green,1.06,561.92760014534,562.4044740200043,,1,7,4,lightness,readingArea,realistic,75,2023-04-01_11h12.21.375,tripletExp_regina_11082022,2022.2.4,120.23265080306952,
2,5,0,0,0.25,0.298245614035088,0,1.0,0.298245614035088,0,0.027777777777778,0.298245614035088,ReadingArea_rsl0-rcl25-esl29-rsm0-rcm100-esm29-rsr0-rcr2-esr29,exr/ReadingArea_rsl0-rcl25-esl29-rsm0-rcm100-esm29-rsr0-rcr2-esr29.exr,ReadingArea_rsl0-rcl25-esl29-rsm0-rcm100-esm29-rsr0-rcr2-esr29.npz,,,,,0,49,49,414,,left,green,1.64,564.1139380931854,564.6818220615387,,1,7,4,lightness,readingArea,realistic,75,2023-04-01_11h12.21.375,tripletExp_regina_11082022,2022.2.4,120.23265080306952,
4,6,3,0,0.694444444444444,0.298245614035088,0,0.027777777777778,1.0,0,0.444444444444444,0.298245614035088,ReadingArea_rsl0-rcl69-esl29-rsm0-rcm2-esm100-rsr0-rcr44-esr29,exr/ReadingArea_rsl0-rcl69-esl29-rsm0-rcm2-esm100-rsr0-rcr44-esr29.exr,ReadingArea_rsl0-rcl69-esl29-rsm0-rcm2-esm100-rsr0-rcr44-esr29.npz,,,,,0,50,50,344,,right,red,2.81,568.1816289424896,568.6474070549011,,1,7,4,lightness,readingArea,realistic,75,2023-04-01_11h12.21.375,tripletExp_regina_11082022,2022.2.4,120.23265080306952,
6,1,9,0,0.027777777777778,1.0,0,0.111111111111111,0.298245614035088,0,0.444444444444444,1.0,ReadingArea_rsl0-rcl2-esl100-rsm0-rcm11-esm29-rsr0-rcr44-esr100,exr/ReadingArea_rsl0-rcl2-esl100-rsm0-rcm11-esm29-rsr0-rcr44-esr100.exr,ReadingArea_rsl0-rcl2-esl100-rsm0-rcm11-esm29-rsr0-rcr44-esr100.npz,,,,,0,51,51,74,,left,green,1.03,570.3342010974884,570.7894520759583,,1,7,4,lightness,readingArea,realistic,75,2023-04-01_11h12.21.375,tripletExp_regina_11082022,2022.2.4,120.23265080306952,
14,3,6,0,0.25,3.10526315789474,0,0.444444444444444,0.298245614035088,0,0.027777777777778,1.0,ReadingArea_rsl0-rcl25-esl310-rsm0-rcm44-esm29-rsr0-rcr2-esr100,exr/ReadingArea_rsl0-rcl25-esl310-rsm0-rcm44-esm29-rsr0-rcr2-esr100.exr,ReadingArea_rsl0-rcl25-esl310-rsm0-rcm44-esm29-rsr0-rcr2-esr100.npz,,,,,0,52,52,244,,left,green,2.23,574.2660279273987,574.7456650733948,,1,7,4,lightness,readingArea,realistic,75,2023-04-01_11h12.21.375,tripletExp_regina_11082022,2022.2.4,120.23265080306952,
11,6,8,0,1.0,1.0,0,0.027777777777778,1.0,0,0.25,1.0,ReadingArea_rsl0-rcl100-esl100-rsm0-rcm2-esm100-rsr0-rcr25-esr100,exr/ReadingArea_rsl0-rcl100-esl100-rsm0-rcm2-esm100-rsr0-rcr25-esr100.exr,ReadingArea_rsl0-rcl100-esl100-rsm0-rcm2-esm100-rsr0-rcr25-esr100.npz,,,,,0,53,53,599,,right,red,2.29,578.2024891376495,578.6746699810028,,1,7,4,lightness,readingArea,realistic,75,2023-04-01_11h12.21.375,tripletExp_regina_11082022,2022.2.4,120.23265080306952,
5,4,10,0,1.0,0.298245614035088,0,0.694444444444444,0.298245614035088,0,0.694444444444444,1.0,ReadingArea_rsl0-rcl100-esl29-rsm0-rcm69-esm29-rsr0-rcr69-esr100,exr/ReadingArea_rsl0-rcl100-esl29-rsm0-rcm69-esm29-rsr0-rcr69-esr100.exr,ReadingArea_rsl0-rcl100-esl29-rsm0-rcm69-esm29-rsr0-rcr69-esr100.npz,,,,,0,54,54,536,,left,green,3.84,583.922770023346,584.5169141292572,,1,7,4,lightness,readingArea,realistic,75,2023-04-01_11h12.21.375,tripletExp_regina_11082022,2022.2.4,120.23265080306952,
0,9,11,0,0.027777777777778,0.298245614035088,0,0.444444444444444,1.0,0,1.0,1.0,ReadingArea_rsl0-rcl2-esl29-rsm0-rcm44-esm100-rsr0-rcr100-esr100,exr/ReadingArea_rsl0-rcl2-esl29-rsm0-rcm44-esm100-rsr0-rcr100-esr100.exr,ReadingArea_rsl0-rcl2-esl29-rsm0-rcm44-esm100-rsr0-rcr100-esr100.npz,,,,,0,55,55,448,,right,red,2.27,587.959902048111,588.4389801025391,,1,7,4,lightness,readingArea,realistic,75,2023-04-01_11h12.21.375,tripletExp_regina_11082022,2022.2.4,120.23265080306952,
5,14,3,0,1.0,0.298245614035088,0,0.25,3.10526315789474,0,0.444444444444444,0.298245614035088,ReadingArea_rsl0-rcl100-esl29-rsm0-rcm25-esm310-rsr0-rcr44-esr29,exr/ReadingArea_rsl0-rcl100-esl29-rsm0-rcm25-esm310-rsr0-rcr44-esr29.exr,ReadingArea_rsl0-rcl100-esl29-rsm0-rcm25-esm310-rsr0-rcr44-esr29.npz,,,,,0,56,56,93,,left,green,2.65,591.930135011673,592.4018800258636,,1,7,4,lightness,readingArea,realistic,75,2023-04-01_11h12.21.375,tripletExp_regina_11082022,2022.2.4,120.23265080306952,
5,3,4,0,1.0,0.298245614035088,0,0.444444444444444,0.298245614035088,0,0.694444444444444,0.298245614035088,ReadingArea_rsl0-rcl100-esl29-rsm0-rcm44-esm29-rsr0-rcr69-esr29,exr/ReadingArea_rsl0-rcl100-esl29-rsm0-rcm44-esm29-rsr0-rcr69-esr29.exr,ReadingArea_rsl0-rcl100-esl29-rsm0-rcm44-esm29-rsr0-rcr69-esr29.npz,,,,,0,57,57,201,,right,red,1.37,594.1081459522247,594.6749310493469,,1,7,4,lightness,readingArea,realistic,75,2023-04-01_11h12.21.375,tripletExp_regina_11082022,2022.2.4,120.23265080306952,
0,11,9,0,0.027777777777778,0.298245614035088,0,1.0,1.0,0,0.444444444444444,1.0,ReadingArea_rsl0-rcl2-esl29-rsm0-rcm100-esm100-rsr0-rcr44-esr100,exr/ReadingArea_rsl0-rcl2-esl29-rsm0-rcm100-esm100-rsr0-rcr44-esr100.exr,ReadingArea_rsl0-rcl2-esl29-rsm0-rcm100-esm100-rsr0-rcr44-esr100.npz,,,,,0,58,58,32,,right,red,1.54,596.3715009689331,596.8413989543915,,1,7,4,lightness,readingArea,realistic,75,2023-04-01_11h12.21.375,tripletExp_regina_11082022,2022.2.4,120.23265080306952,
7,5,1,0,0.111111111111111,1.0,0,1.0,0.298245614035088,0,0.111111111111111,0.298245614035088,ReadingArea_rsl0-rcl11-esl100-rsm0-rcm100-esm29-rsr0-rcr11-esr29,exr/ReadingArea_rsl0-rcl11-esl100-rsm0-rcm100-esm29-rsr0-rcr11-esr29.exr,ReadingArea_rsl0-rcl11-esl100-rsm0-rcm100-esm29-rsr0-rcr11-esr29.npz,,,,,0,59,59,513,,left,green,2.72,600.2892241477966,600.942183971405,,1,7,4,lightness,readingArea,realistic,75,2023-04-01_11h12.21.375,tripletExp_regina_11082022,2022.2.4,120.23265080306952,
12,14,8,0,0.027777777777778,3.10526315789474,0,0.25,3.10526315789474,0,0.25,1.0,ReadingArea_rsl0-rcl2-esl310-rsm0-rcm25-esm310-rsr0-rcr25-esr100,exr/ReadingArea_rsl0-rcl2-esl310-rsm0-rcm25-esm310-rsr0-rcr25-esr100.exr,ReadingArea_rsl0-rcl2-esl310-rsm0-rcm25-esm310-rsr0-rcr25-esr100.npz,,,,,0,60,60,466,,right,red,2.87,604.3936550617218,604.8802170753479,,1,7,4,lightness,readingArea,realistic,75,2023-04-01_11h12.21.375,tripletExp_regina_11082022,2022.2.4,120.23265080306952,
13,10,7,0,0.111111111111111,3.10526315789474,0,0.694444444444444,1.0,0,0.111111111111111,1.0,ReadingArea_rsl0-rcl11-esl310-rsm0-rcm69-esm100-rsr0-rcr11-esr100,exr/ReadingArea_rsl0-rcl11-esl310-rsm0-rcm69-esm100-rsr0-rcr11-esr100.exr,ReadingArea_rsl0-rcl11-esl310-rsm0-rcm69-esm100-rsr0-rcr11-esr100.npz,,,,,0,61,61,385,,left,green,1.25,606.5877571105957,607.208948135376,,1,7,4,lightness,readingArea,realistic,75,2023-04-01_11h12.21.375,tripletExp_regina_11082022,2022.2.4,120.23265080306952,
5,14,8,0,1.0,0.298245614035088,0,0.25,3.10526315789474,0,0.25,1.0,ReadingArea_rsl0-rcl100-esl29-rsm0-rcm25-esm310-rsr0-rcr25-esr100,exr/ReadingArea_rsl0-rcl100-esl29-rsm0-rcm25-esm310-rsr0-rcr25-esr100.exr,ReadingArea_rsl0-rcl100-esl29-rsm0-rcm25-esm310-rsr0-rcr25-esr100.npz,,,,,0,62,62,14,,left,green,2.76,610.6800911426544,611.1634140014648,,1,7,4,lightness,readingArea,realistic,75,2023-04-01_11h12.21.375,tripletExp_regina_11082022,2022.2.4,120.23265080306952,
11,2,4,0,1.0,1.0,0,0.25,0.298245614035088,0,0.694444444444444,0.298245614035088,ReadingArea_rsl0-rcl100-esl100-rsm0-rcm25-esm29-rsr0-rcr69-esr29,exr/ReadingArea_rsl0-rcl100-esl100-rsm0-rcm25-esm29-rsr0-rcr69-esr29.exr,ReadingArea_rsl0-rcl100-esl100-rsm0-rcm25-esm29-rsr0-rcr69-esr29.npz,,,,,0,63,63,359,,right,red,2.19,614.634027004242,,,1,7,4,lightness,readingArea,realistic,75,2023-04-01_11h12.21.375,tripletExp_regina_11082022,2022.2.4,120.23265080306952,
4,0,3,0,0.694444444444444,0.298245614035088,0,0.027777777777778,0.298245614035088,0,0.444444444444444,0.298245614035088,ReadingArea_rsl0-rcl69-esl29-rsm0-rcm2-esm29-rsr0-rcr44-esr29,exr/ReadingArea_rsl0-rcl69-esl29-rsm0-rcm2-esm29-rsr0-rcr44-esr29.exr,ReadingArea_rsl0-rcl69-esl29-rsm0-rcm2-esm29-rsr0-rcr44-esr29.npz,,,,,0,64,64,88,,left,green,2.26,618.5941059589386,619.0536501407623,,1,7,4,lightness,readingArea,realistic,75,2023-04-01_11h12.21.375,tripletExp_regina_11082022,2022.2.4,120.23265080306952,
5,13,12,0,1.0,0.298245614035088,0,0.111111111111111,3.10526315789474,0,0.027777777777778,3.10526315789474,ReadingArea_rsl0-rcl100-esl29-rsm0-rcm11-esm310-rsr0-rcr2-esr310,exr/ReadingArea_rsl0-rcl100-esl29-rsm0-rcm11-esm310-rsr0-rcr2-esr310.exr,ReadingArea_rsl0-rcl100-esl29-rsm0-rcm11-esm310-rsr0-rcr2-esr310.npz,,,,,0,65,65,389,,left,green,2.05,622.5607600212097,,,1,7,4,lightness,readingArea,realistic,75,2023-04-01_11h12.21.375,tripletExp_regina_11082022,2022.2.4,120.23265080306952,
1,5,8,0,0.111111111111111,0.298245614035088,0,1.0,0.298245614035088,0,0.25,1.0,ReadingArea_rsl0-rcl11-esl29-rsm0-rcm100-esm29-rsr0-rcr25-esr100,exr/ReadingArea_rsl0-rcl11-esl29-rsm0-rcm100-esm29-rsr0-rcr25-esr100.exr,ReadingArea_rsl0-rcl11-esl29-rsm0-rcm100-esm29-rsr0-rcr25-esr100.npz,,,,,0,66,66,238,,right,red,1.03,624.7401850223541,625.2214601039886,,1,7,4,lightness,readingArea,realistic,75,2023-04-01_11h12.21.375,tripletExp_regina_11082022,2022.2.4,120.23265080306952,
2,8,7,0,0.25,0.298245614035088,0,0.25,1.0,0,0.111111111111111,1.0,ReadingArea_rsl0-rcl25-esl29-rsm0-rcm25-esm100-rsr0-rcr11-esr100,exr/ReadingArea_rsl0-rcl25-esl29-rsm0-rcm25-esm100-rsr0-rcr11-esr100.exr,ReadingArea_rsl0-rcl25-esl29-rsm0-rcm25-esm100-rsr0-rcr11-esr100.npz,,,,,0,67,67,393,,right,red,2.27,628.6732800006866,629.1573691368103,,1,7,4,lightness,readingArea,realistic,75,2023-04-01_11h12.21.375,tripletExp_regina_11082022,2022.2.4,120.23265080306952,
10,7,13,0,0.694444444444444,1.0,0,0.111111111111111,1.0,0,0.111111111111111,3.10526315789474,ReadingArea_rsl0-rcl69-esl100-rsm0-rcm11-esm100-rsr0-rcr11-esr310,exr/ReadingArea_rsl0-rcl69-esl100-rsm0-rcm11-esm100-rsr0-rcr11-esr310.exr,ReadingArea_rsl0-rcl69-esl100-rsm0-rcm11-esm100-rsr0-rcr11-esr310.npz,,,,,0,68,68,379,,right,red,2.22,632.6345839500427,633.1066229343414,,1,7,4,lightness,readingArea,realistic,75,2023-04-01_11h12.21.375,tripletExp_regina_11082022,2022.2.4,120.23265080306952,
12,5,4,0,0.027777777777778,3.10526315789474,0,1.0,0.298245614035088,0,0.694444444444444,0.298245614035088,ReadingArea_rsl0-rcl2-esl310-rsm0-rcm100-esm29-rsr0-rcr69-esr29,exr/ReadingArea_rsl0-rcl2-esl310-rsm0-rcm100-esm29-rsr0-rcr69-esr29.exr,ReadingArea_rsl0-rcl2-esl310-rsm0-rcm100-esm29-rsr0-rcr69-esr29.npz,,,,,0,69,69,566,,right,red,0.96,634.7963080406189,,,1,7,4,lightness,readingArea,realistic,75,2023-04-01_11h12.21.375,tripletExp_regina_11082022,2022.2.4,120.23265080306952,
0,5,1,0,0.027777777777778,0.298245614035088,0,1.0,0.298245614035088,0,0.111111111111111,0.298245614035088,ReadingArea_rsl0-rcl2-esl29-rsm0-rcm100-esm29-rsr0-rcr11-esr29,exr/ReadingArea_rsl0-rcl2-esl29-rsm0-rcm100-esm29-rsr0-rcr11-esr29.exr,ReadingArea_rsl0-rcl2-esl29-rsm0-rcm100-esm29-rsr0-rcr11-esr29.npz,,,,,0,70,70,367,,right,red,1.15,637.1039979457855,637.5842311382294,,1,7,4,lightness,readingArea,realistic,75,2023-04-01_11h12.21.375,tripletExp_regina_11082022,2022.2.4,120.23265080306952,
11,7,12,0,1.0,1.0,0,0.111111111111111,1.0,0,0.027777777777778,3.10526315789474,ReadingArea_rsl0-rcl100-esl100-rsm0-rcm11-esm100-rsr0-rcr2-esr310,exr/ReadingArea_rsl0-rcl100-esl100-rsm0-rcm11-esm100-rsr0-rcr2-esr310.exr,ReadingArea_rsl0-rcl100-esl100-rsm0-rcm11-esm100-rsr0-rcr2-esr310.npz,,,,,0,71,71,352,,right,red,0.92,639.3020701408386,639.7621779441833,,1,7,4,lightness,readingArea,realistic,75,2023-04-01_11h12.21.375,tripletExp_regina_11082022,2022.2.4,120.23265080306952,
14,10,9,0,0.25,3.10526315789474,0,0.694444444444444,1.0,0,0.444444444444444,1.0,ReadingArea_rsl0-rcl25-esl310-rsm0-rcm69-esm100-rsr0-rcr44-esr100,exr/ReadingArea_rsl0-rcl25-esl310-rsm0-rcm69-esm100-rsr0-rcr44-esr100.exr,ReadingArea_rsl0-rcl25-esl310-rsm0-rcm69-esm100-rsr0-rcr44-esr100.npz,,,,,0,72,72,402,,left,green,2.37,643.2185699939728,643.6978840827942,,1,7,4,lightness,readingArea,realistic,75,2023-04-01_11h12.21.375,tripletExp_regina_11082022,2022.2.4,120.23265080306952,
9,6,14,0,0.444444444444444,1.0,0,0.027777777777778,1.0,0,0.25,3.10526315789474,ReadingArea_rsl0-rcl44-esl100-rsm0-rcm2-esm100-rsr0-rcr25-esr310,exr/ReadingArea_rsl0-rcl44-esl100-rsm0-rcm2-esm100-rsr0-rcr25-esr310.exr,ReadingArea_rsl0-rcl44-esl100-rsm0-rcm2-esm100-rsr0-rcr25-esr310.npz,,,,,0,73,73,213,,left,green,2.23,647.1622409820557,647.6458539962769,,1,7,4,lightness,readingArea,realistic,75,2023-04-01_11h12.21.375,tripletExp_regina_11082022,2022.2.4,120.23265080306952,
6,10,9,0,0.027777777777778,1.0,0,0.694444444444444,1.0,0,0.444444444444444,1.0,ReadingArea_rsl0-rcl2-esl100-rsm0-rcm69-esm100-rsr0-rcr44-esr100,exr/ReadingArea_rsl0-rcl2-esl100-rsm0-rcm69-esm100-rsr0-rcr44-esr100.exr,ReadingArea_rsl0-rcl2-esl100-rsm0-rcm69-esm100-rsr0-rcr44-esr100.npz,,,,,0,74,74,148,,right,red,0.86,649.3645420074463,649.5637710094452,,1,7,4,lightness,readingArea,realistic,75,2023-04-01_11h12.21.375,tripletExp_regina_11082022,2022.2.4,120.23265080306952,
6,3,1,0,0.027777777777778,1.0,0,0.444444444444444,0.298245614035088,0,0.111111111111111,0.298245614035088,ReadingArea_rsl0-rcl2-esl100-rsm0-rcm44-esm29-rsr0-rcr11-esr29,exr/ReadingArea_rsl0-rcl2-esl100-rsm0-rcm44-esm29-rsr0-rcr11-esr29.exr,ReadingArea_rsl0-rcl2-esl100-rsm0-rcm44-esm29-rsr0-rcr11-esr29.npz,,,,,0,75,75,430,,right,red,1.27,681.7549750804901,682.3668529987335,,2,7,4,lightness,readingArea,realistic,75,2023-04-01_11h12.21.375,tripletExp_regina_11082022,2022.2.4,120.23265080306952,
11,10,0,0,1.0,1.0,0,0.694444444444444,1.0,0,0.027777777777778,0.298245614035088,ReadingArea_rsl0-rcl100-esl100-rsm0-rcm69-esm100-rsr0-rcr2-esr29,exr/ReadingArea_rsl0-rcl100-esl100-rsm0-rcm69-esm100-rsr0-rcr2-esr29.exr,ReadingArea_rsl0-rcl100-esl100-rsm0-rcm69-esm100-rsr0-rcr2-esr29.npz,,,,,0,76,76,549,,left,green,0.84,684.0604770183563,684.5275139808655,,2,7,4,lightness,readingArea,realistic,75,2023-04-01_11h12.21.375,tripletExp_regina_11082022,2022.2.4,120.23265080306952,
10,14,13,0,0.694444444444444,1.0,0,0.25,3.10526315789474,0,0.111111111111111,3.10526315789474,ReadingArea_rsl0-rcl69-esl100-rsm0-rcm25-esm310-rsr0-rcr11-esr310,exr/ReadingArea_rsl0-rcl69-esl100-rsm0-rcm25-esm310-rsr0-rcr11-esr310.exr,ReadingArea_rsl0-rcl69-esl100-rsm0-rcm25-esm310-rsr0-rcr11-esr310.npz,,,,,0,77,77,168,,left,green,2.49,687.9957611560822,,,2,7,4,lightness,readingArea,realistic,75,2023-04-01_11h12.21.375,tripletExp_regina_11082022,2022.2.4,120.23265080306952,
6,13,8,0,0.027777777777778,1.0,0,0.111111111111111,3.10526315789474,0,0.25,1.0,ReadingArea_rsl0-rcl2-esl100-rsm0-rcm11-esm310-rsr0-rcr25-esr100,exr/ReadingArea_rsl0-rcl2-esl100-rsm0-rcm11-esm310-rsr0-rcr25-esr100.exr,ReadingArea_rsl0-rcl2-esl100-rsm0-rcm11-esm310-rsr0-rcr25-esr100.npz,,,,,0,78,78,535,,right,red,0.82,690.2054059505463,690.676342010498,,2,7,4,lightness,readingArea,realistic,75,2023-04-01_11h12.21.375,tripletExp_regina_11082022,2022.2.4,120.23265080306952,
5,13,7,0,1.0,0.298245614035088,0,0.111111111111111,3.10526315789474,0,0.111111111111111,1.0,ReadingArea_rsl0-rcl100-esl29-rsm0-rcm11-esm310-rsr0-rcr11-esr100,exr/ReadingArea_rsl0-rcl100-esl29-rsm0-rcm11-esm310-rsr0-rcr11-esr100.exr,ReadingArea_rsl0-rcl100-esl29-rsm0-rcm11-esm310-rsr0-rcr11-esr100.npz,,,,,0,79,79,189,,right,red,1.06,692.3680739402771,692.9369850158691,,2,7,4,lightness,readingArea,realistic,75,2023-04-01_11h12.21.375,tripletExp_regina_11082022,2022.2.4,120.23265080306952,
11,8,2,0,1.0,1.0,0,0.25,1.0,0,0.25,0.298245614035088,ReadingArea_rsl0-rcl100-esl100-rsm0-rcm25-esm100-rsr0-rcr25-esr29,exr/ReadingArea_rsl0-rcl100-esl100-rsm0-rcm25-esm100-rsr0-rcr25-esr29.exr,ReadingArea_rsl0-rcl100-esl100-rsm0-rcm25-esm100-rsr0-rcr25-esr29.npz,,,,,0,80,80,406,,right,red,0.97,694.6200439929962,695.084862947464,,2,7,4,lightness,readingArea,realistic,75,2023-04-01_11h12.21.375,tripletExp_regina_11082022,2022.2.4,120.23265080306952,
0,9,10,0,0.027777777777778,0.298245614035088,0,0.444444444444444,1.0,0,0.694444444444444,1.0,ReadingArea_rsl0-rcl2-esl29-rsm0-rcm44-esm100-rsr0-rcr69-esr100,exr/ReadingArea_rsl0-rcl2-esl29-rsm0-rcm44-esm100-rsr0-rcr69-esr100.exr,ReadingArea_rsl0-rcl2-esl29-rsm0-rcm44-esm100-rsr0-rcr69-esr100.npz,,,,,0,81,81,434,,right,red,0.82,696.7762670516968,697.252357006073,,2,7,4,lightness,readingArea,realistic,75,2023-04-01_11h12.21.375,tripletExp_regina_11082022,2022.2.4,120.23265080306952,
6,4,2,0,0.027777777777778,1.0,0,0.694444444444444,0.298245614035088,0,0.25,0.298245614035088,ReadingArea_rsl0-rcl2-esl100-rsm0-rcm69-esm29-rsr0-rcr25-esr29,exr/ReadingArea_rsl0-rcl2-esl100-rsm0-rcm69-esm29-rsr0-rcr25-esr29.exr,ReadingArea_rsl0-rcl2-esl100-rsm0-rcm69-esm29-rsr0-rcr25-esr29.npz,,,,,0,82,82,134,,right,red,0.95,698.9729599952698,,,2,7,4,lightness,readingArea,realistic,75,2023-04-01_11h12.21.375,tripletExp_regina_11082022,2022.2.4,120.23265080306952,
12,9,13,0,0.027777777777778,3.10526315789474,0,0.444444444444444,1.0,0,0.111111111111111,3.10526315789474,ReadingArea_rsl0-rcl2-esl310-rsm0-rcm44-esm100-rsr0-rcr11-esr310,exr/ReadingArea_rsl0-rcl2-esl310-rsm0-rcm44-esm100-rsr0-rcr11-esr310.exr,ReadingArea_rsl0-rcl2-esl310-rsm0-rcm44-esm100-rsr0-rcr11-esr310.npz,,,,,0,83,83,529,,right,red,1.12,701.1513340473175,701.6007239818573,,2,7,4,lightness,readingArea,realistic,75,2023-04-01_11h12.21.375,tripletExp_regina_11082022,2022.2.4,120.23265080306952,
4,5,8,0,0.694444444444444,0.298245614035088,0,1.0,0.298245614035088,0,0.25,1.0,ReadingArea_rsl0-rcl69-esl29-rsm0-rcm100-esm29-rsr0-rcr25-esr100,exr/ReadingArea_rsl0-rcl69-esl29-rsm0-rcm100-esm29-rsr0-rcr25-esr100.exr,ReadingArea_rsl0-rcl69-esl29-rsm0-rcm100-esm29-rsr0-rcr25-esr100.npz,,,,,0,84,84,54,,right,red,2.8,705.0558309555054,705.5349650382996,,2,7,4,lightness,readingArea,realistic,75,2023-04-01_11h12.21.375,tripletExp_regina_11082022,2022.2.4,120.23265080306952,
9,12,0,0,0.444444444444444,1.0,0,0.027777777777778,3.10526315789474,0,0.027777777777778,0.298245614035088,ReadingArea_rsl0-rcl44-esl100-rsm0-rcm2-esm310-rsr0-rcr2-esr29,exr/ReadingArea_rsl0-rcl44-esl100-rsm0-rcm2-esm310-rsr0-rcr2-esr29.exr,ReadingArea_rsl0-rcl44-esl100-rsm0-rcm2-esm310-rsr0-rcr2-esr29.npz,,,,,0,85,85,175,,right,red,2.14,708.9903531074524,709.486741065979,,2,7,4,lightness,readingArea,realistic,75,2023-04-01_11h12.21.375,tripletExp_regina_11082022,2022.2.4,120.23265080306952,
9,6,11,0,0.444444444444444,1.0,0,0.027777777777778,1.0,0,1.0,1.0,ReadingArea_rsl0-rcl44-esl100-rsm0-rcm2-esm100-rsr0-rcr100-esr100,exr/ReadingArea_rsl0-rcl44-esl100-rsm0-rcm2-esm100-rsr0-rcr100-esr100.exr,ReadingArea_rsl0-rcl44-esl100-rsm0-rcm2-esm100-rsr0-rcr100-esr100.npz,,,,,0,86,86,572,,left,green,2.07,712.9571650028229,713.4325699806213,,2,7,4,lightness,readingArea,realistic,75,2023-04-01_11h12.21.375,tripletExp_regina_11082022,2022.2.4,120.23265080306952,
10,5,2,0,0.694444444444444,1.0,0,1.0,0.298245614035088,0,0.25,0.298245614035088,ReadingArea_rsl0-rcl69-esl100-rsm0-rcm100-esm29-rsr0-rcr25-esr29,exr/ReadingArea_rsl0-rcl69-esl100-rsm0-rcm100-esm29-rsr0-rcr25-esr29.exr,ReadingArea_rsl0-rcl69-esl100-rsm0-rcm100-esm29-rsr0-rcr25-esr29.npz,,,,,0,87,87,299,,left,green,0.88,715.1279089450836,715.6469221115112,,2,7,4,lightness,readingArea,realistic,75,2023-04-01_11h12.21.375,tripletExp_regina_11082022,2022.2.4,120.23265080306952,
11,7,9,0,1.0,1.0,0,0.111111111111111,1.0,0,0.444444444444444,1.0,ReadingArea_rsl0-rcl100-esl100-rsm0-rcm11-esm100-rsr0-rcr44-esr100,exr/ReadingArea_rsl0-rcl100-esl100-rsm0-rcm11-esm100-rsr0-rcr44-esr100.exr,ReadingArea_rsl0-rcl100-esl100-rsm0-rcm11-esm100-rsr0-rcr44-esr100.npz,,,,,0,88,88,521,,right,red,2.24,719.1037249565125,719.6083309650421,,2,7,4,lightness,readingArea,realistic,75,2023-04-01_11h12.21.375,tripletExp_regina_11082022,2022.2.4,120.23265080306952,
4,7,1,0,0.694444444444444,0.298245614035088,0,0.111111111111111,1.0,0,0.111111111111111,0.298245614035088,ReadingArea_rsl0-rcl69-esl29-rsm0-rcm11-esm100-rsr0-rcr11-esr29,exr/ReadingArea_rsl0-rcl69-esl29-rsm0-rcm11-esm100-rsr0-rcr11-esr29.exr,ReadingArea_rsl0-rcl69-esl29-rsm0-rcm11-esm100-rsr0-rcr11-esr29.npz,,,,,0,89,89,33,,right,red,0.78,721.324676990509,721.798742055893,,2,7,4,lightness,readingArea,realistic,75,2023-04-01_11h12.21.375,tripletExp_regina_11082022,2022.2.4,120.23265080306952,
11,5,3,0,1.0,1.0,0,1.0,0.298245614035088,0,0.444444444444444,0.298245614035088,ReadingArea_rsl0-rcl100-esl100-rsm0-rcm100-esm29-rsr0-rcr44-esr29,exr/ReadingArea_rsl0-rcl100-esl100-rsm0-rcm100-esm29-rsr0-rcr44-esr29.exr,ReadingArea_rsl0-rcl100-esl100-rsm0-rcm100-esm29-rsr0-rcr44-esr29.npz,,,,,0,90,90,172,,right,red,1.03,723.5154719352722,723.9985029697418,,2,7,4,lightness,readingArea,realistic,75,2023-04-01_11h12.21.375,tripletExp_regina_11082022,2022.2.4,120.23265080306952,
0,14,10,0,0.027777777777778,0.298245614035088,0,0.25,3.10526315789474,0,0.694444444444444,1.0,ReadingArea_rsl0-rcl2-esl29-rsm0-rcm25-esm310-rsr0-rcr69-esr100,exr/ReadingArea_rsl0-rcl2-esl29-rsm0-rcm25-esm310-rsr0-rcr69-esr100.exr,ReadingArea_rsl0-rcl2-esl29-rsm0-rcm25-esm310-rsr0-rcr69-esr100.npz,,,,,0,91,91,128,,right,red,1.07,725.7206780910492,726.1967060565948,,2,7,4,lightness,readingArea,realistic,75,2023-04-01_11h12.21.375,tripletExp_regina_11082022,2022.2.4,120.23265080306952,
6,1,10,0,0.027777777777778,1.0,0,0.111111111111111,0.298245614035088,0,0.694444444444444,1.0,ReadingArea_rsl0-rcl2-esl100-rsm0-rcm11-esm29-rsr0-rcr69-esr100,exr/ReadingArea_rsl0-rcl2-esl100-rsm0-rcm11-esm29-rsr0-rcr69-esr100.exr,ReadingArea_rsl0-rcl2-esl100-rsm0-rcm11-esm29-rsr0-rcr69-esr100.npz,,,,,0,92,92,561,,left,green,0.88,727.8892531394958,728.3654601573944,,2,7,4,lightness,readingArea,realistic,75,2023-04-01_11h12.21.375,tripletExp_regina_11082022,2022.2.4,120.23265080306952,
4,8,10,0,0.694444444444444,0.298245614035088,0,0.25,1.0,0,0.694444444444444,1.0,ReadingArea_rsl0-rcl69-esl29-rsm0-rcm25-esm100-rsr0-rcr69-esr100,exr/ReadingArea_rsl0-rcl69-esl29-rsm0-rcm25-esm100-rsr0-rcr69-esr100.exr,ReadingArea_rsl0-rcl69-esl29-rsm0-rcm25-esm100-rsr0-rcr69-esr100.npz,,,,,0,93,93,221,,left,green,0.94,730.0732500553131,730.5591700077057,,2,7,4,lightness,readingArea,realistic,75,2023-04-01_11h12.21.375,tripletExp_regina_11082022,2022.2.4,120.23265080306952,
0,1,7,0,0.027777777777778,0.298245614035088,0,0.111111111111111,0.298245614035088,0,0.111111111111111,1.0,ReadingArea_rsl0-rcl2-esl29-rsm0-rcm11-esm29-rsr0-rcr11-esr100,exr/ReadingArea_rsl0-rcl2-esl29-rsm0-rcm11-esm29-rsr0-rcr11-esr100.exr,ReadingArea_rsl0-rcl2-esl29-rsm0-rcm11-esm29-rsr0-rcr11-esr100.npz,,,,,0,94,94,243,,right,red,1.06,732.2657160758972,732.8989279270172,,2,7,4,lightness,readingArea,realistic,75,2023-04-01_11h12.21.375,tripletExp_regina_11082022,2022.2.4,120.23265080306952,
6,13,5,0,0.027777777777778,1.0,0,0.111111111111111,3.10526315789474,0,1.0,0.298245614035088,ReadingArea_rsl0-rcl2-esl100-rsm0-rcm11-esm310-rsr0-rcr100-esr29,exr/ReadingArea_rsl0-rcl2-esl100-rsm0-rcm11-esm310-rsr0-rcr100-esr29.exr,ReadingArea_rsl0-rcl2-esl100-rsm0-rcm11-esm310-rsr0-rcr100-esr29.npz,,,,,0,95,95,53,,right,red,1.43,734.6060831546783,735.0879089832306,,2,7,4,lightness,readingArea,realistic,75,2023-04-01_11h12.21.375,tripletExp_regina_11082022,2022.2.4,120.23265080306952,
1,7,2,0,0.111111111111111,0.298245614035088,0,0.111111111111111,1.0,0,0.25,0.298245614035088,ReadingArea_rsl0-rcl11-esl29-rsm0-rcm11-esm100-rsr0-rcr25-esr29,exr/ReadingArea_rsl0-rcl11-esl29-rsm0-rcm11-esm100-rsr0-rcr25-esr29.exr,ReadingArea_rsl0-rcl11-esl29-rsm0-rcm11-esm100-rsr0-rcr25-esr29.npz,,,,,0,96,96,162,,right,red,1.2,736.7966711521149,737.3669810295105,,2,7,4,lightness,readingArea,realistic,75,2023-04-01_11h12.21.375,tripletExp_regina_11082022,2022.2.4,120.23265080306952,
14,11,3,0,0.25,3.10526315789474,0,1.0,1.0,0,0.444444444444444,0.298245614035088,ReadingArea_rsl0-rcl25-esl310-rsm0-rcm100-esm100-rsr0-rcr44-esr29,exr/ReadingArea_rsl0-rcl25-esl310-rsm0-rcm100-esm100-rsr0-rcr44-esr29.exr,ReadingArea_rsl0-rcl25-esl310-rsm0-rcm100-esm100-rsr0-rcr44-esr29.npz,,,,,0,97,97,78,,left,green,0.73,739.0840330123901,739.5556211471558,,2,7,4,lightness,readingArea,realistic,75,2023-04-01_11h12.21.375,tripletExp_regina_11082022,2022.2.4,120.23265080306952,
7,10,13,0,0.111111111111111,1.0,0,0.694444444444444,1.0,0,0.111111111111111,3.10526315789474,ReadingArea_rsl0-rcl11-esl100-rsm0-rcm69-esm100-rsr0-rcr11-esr310,exr/ReadingArea_rsl0-rcl11-esl100-rsm0-rcm69-esm100-rsr0-rcr11-esr310.exr,ReadingArea_rsl0-rcl11-esl100-rsm0-rcm69-esm100-rsr0-rcr11-esr310.npz,,,,,0,98,98,446,,right,red,0.83,741.2522170543671,741.7184319496155,,2,7,4,lightness,readingArea,realistic,75,2023-04-01_11h12.21.375,tripletExp_regina_11082022,2022.2.4,120.23265080306952,
4,2,0,0,0.694444444444444,0.298245614035088,0,0.25,0.298245614035088,0,0.027777777777778,0.298245614035088,ReadingArea_rsl0-rcl69-esl29-rsm0-rcm25-esm29-rsr0-rcr2-esr29,exr/ReadingArea_rsl0-rcl69-esl29-rsm0-rcm25-esm29-rsr0-rcr2-esr29.exr,ReadingArea_rsl0-rcl69-esl29-rsm0-rcm25-esm29-rsr0-rcr2-esr29.npz,,,,,0,99,99,71,,right,red,1.12,743.4310760498047,743.9917891025543,,2,7,4,lightness,readingArea,realistic,75,2023-04-01_11h12.21.375,tripletExp_regina_11082022,2022.2.4,120.23265080306952,
14,12,9,0,0.25,3.10526315789474,0,0.027777777777778,3.10526315789474,0,0.444444444444444,1.0,ReadingArea_rsl0-rcl25-esl310-rsm0-rcm2-esm310-rsr0-rcr44-esr100,exr/ReadingArea_rsl0-rcl25-esl310-rsm0-rcm2-esm310-rsr0-rcr44-esr100.exr,ReadingArea_rsl0-rcl25-esl310-rsm0-rcm2-esm310-rsr0-rcr44-esr100.npz,,,,,0,100,100,40,,left,green,1.35,745.6797461509705,,,2,7,4,lightness,readingArea,realistic,75,2023-04-01_11h12.21.375,tripletExp_regina_11082022,2022.2.4,120.23265080306952,
10,9,6,0,0.694444444444444,1.0,0,0.444444444444444,1.0,0,0.027777777777778,1.0,ReadingArea_rsl0-rcl69-esl100-rsm0-rcm44-esm100-rsr0-rcr2-esr100,exr/ReadingArea_rsl0-rcl69-esl100-rsm0-rcm44-esm100-rsr0-rcr2-esr100.exr,ReadingArea_rsl0-rcl69-esl100-rsm0-rcm44-esm100-rsr0-rcr2-esr100.npz,,,,,0,101,101,35,,left,green,0.9,747.8811321258545,748.3396489620209,,2,7,4,lightness,readingArea,realistic,75,2023-04-01_11h12.21.375,tripletExp_regina_11082022,2022.2.4,120.23265080306952,
10,8,1,0,0.694444444444444,1.0,0,0.25,1.0,0,0.111111111111111,0.298245614035088,ReadingArea_rsl0-rcl69-esl100-rsm0-rcm25-esm100-rsr0-rcr11-esr29,exr/ReadingArea_rsl0-rcl69-esl100-rsm0-rcm25-esm100-rsr0-rcr11-esr29.exr,ReadingArea_rsl0-rcl69-esl100-rsm0-rcm25-esm100-rsr0-rcr11-esr29.npz,,,,,0,102,102,247,,left,green,1.18,750.0618569850922,750.5643351078033,,2,7,4,lightness,readingArea,realistic,75,2023-04-01_11h12.21.375,tripletExp_regina_11082022,2022.2.4,120.23265080306952,
1,8,12,0,0.111111111111111,0.298245614035088,0,0.25,1.0,0,0.027777777777778,3.10526315789474,ReadingArea_rsl0-rcl11-esl29-rsm0-rcm25-esm100-rsr0-rcr2-esr310,exr/ReadingArea_rsl0-rcl11-esl29-rsm0-rcm25-esm100-rsr0-rcr2-esr310.exr,ReadingArea_rsl0-rcl11-esl29-rsm0-rcm25-esm100-rsr0-rcr2-esr310.npz,,,,,0,103,103,156,,right,red,1.18,752.25829911232,752.7115111351013,,2,7,4,lightness,readingArea,realistic,75,2023-04-01_11h12.21.375,tripletExp_regina_11082022,2022.2.4,120.23265080306952,
7,13,6,0,0.111111111111111,1.0,0,0.111111111111111,3.10526315789474,0,0.027777777777778,1.0,ReadingArea_rsl0-rcl11-esl100-rsm0-rcm11-esm310-rsr0-rcr2-esr100,exr/ReadingArea_rsl0-rcl11-esl100-rsm0-rcm11-esm310-rsr0-rcr2-esr100.exr,ReadingArea_rsl0-rcl11-esl100-rsm0-rcm11-esm310-rsr0-rcr2-esr100.npz,,,,,0,104,104,73,,left,green,1.1,754.4007649421692,754.8886740207672,,2,7,4,lightness,readingArea,realistic,75,2023-04-01_11h12.21.375,tripletExp_regina_11082022,2022.2.4,120.23265080306952,
5,0,6,0,1.0,0.298245614035088,0,0.027777777777778,0.298245614035088,0,0.027777777777778,1.0,ReadingArea_rsl0-rcl100-esl29-rsm0-rcm2-esm29-rsr0-rcr2-esr100,exr/ReadingArea_rsl0-rcl100-esl29-rsm0-rcm2-esm29-rsr0-rcr2-esr100.exr,ReadingArea_rsl0-rcl100-esl29-rsm0-rcm2-esm29-rsr0-rcr2-esr100.npz,,,,,0,105,105,1,,right,red,0.89,756.5856311321259,757.0508141517639,,2,7,4,lightness,readingArea,realistic,75,2023-04-01_11h12.21.375,tripletExp_regina_11082022,2022.2.4,120.23265080306952,
4,1,9,0,0.694444444444444,0.298245614035088,0,0.111111111111111,0.298245614035088,0,0.444444444444444,1.0,ReadingArea_rsl0-rcl69-esl29-rsm0-rcm11-esm29-rsr0-rcr44-esr100,exr/ReadingArea_rsl0-rcl69-esl29-rsm0-rcm11-esm29-rsr0-rcr44-esr100.exr,ReadingArea_rsl0-rcl69-esl29-rsm0-rcm11-esm29-rsr0-rcr44-esr100.npz,,,,,0,106,106,7,,left,green,1.24,758.7484550476074,,,2,7,4,lightness,readingArea,realistic,75,2023-04-01_11h12.21.375,tripletExp_regina_11082022,2022.2.4,120.23265080306952,
2,1,10,0,0.25,0.298245614035088,0,0.111111111111111,0.298245614035088,0,0.694444444444444,1.0,ReadingArea_rsl0-rcl25-esl29-rsm0-rcm11-esm29-rsr0-rcr69-esr100,exr/ReadingArea_rsl0-rcl25-esl29-rsm0-rcm11-esm29-rsr0-rcr69-esr100.exr,ReadingArea_rsl0-rcl25-esl29-rsm0-rcm11-esm29-rsr0-rcr69-esr100.npz,,,,,0,107,107,585,,left,green,0.82,760.926924943924,761.4307639598846,,2,7,4,lightness,readingArea,realistic,75,2023-04-01_11h12.21.375,tripletExp_regina_11082022,2022.2.4,120.23265080306952,
5,4,12,0,1.0,0.298245614035088,0,0.694444444444444,0.298245614035088,0,0.027777777777778,3.10526315789474,ReadingArea_rsl0-rcl100-esl29-rsm0-rcm69-esm29-rsr0-rcr2-esr310,exr/ReadingArea_rsl0-rcl100-esl29-rsm0-rcm69-esm29-rsr0-rcr2-esr310.exr,ReadingArea_rsl0-rcl100-esl29-rsm0-rcm69-esm29-rsr0-rcr2-esr310.npz,,,,,0,108,108,82,,left,green,0.94,763.1535489559174,763.6206891536713,,2,7,4,lightness,readingArea,realistic,75,2023-04-01_11h12.21.375,tripletExp_regina_11082022,2022.2.4,120.23265080306952,
14,7,0,0,0.25,3.10526315789474,0,0.111111111111111,1.0,0,0.027777777777778,0.298245614035088,ReadingArea_rsl0-rcl25-esl310-rsm0-rcm11-esm100-rsr0-rcr2-esr29,exr/ReadingArea_rsl0-rcl25-esl310-rsm0-rcm11-esm100-rsr0-rcr2-esr29.exr,ReadingArea_rsl0-rcl25-esl310-rsm0-rcm11-esm100-rsr0-rcr2-esr29.npz,,,,,0,109,109,412,,right,red,1.29,765.3229439258575,765.798201084137,,2,7,4,lightness,readingArea,realistic,75,2023-04-01_11h12.21.375,tripletExp_regina_11082022,2022.2.4,120.23265080306952,
3,8,7,0,0.444444444444444,0.298245614035088,0,0.25,1.0,0,0.111111111111111,1.0,ReadingArea_rsl0-rcl44-esl29-rsm0-rcm25-esm100-rsr0-rcr11-esr100,exr/ReadingArea_rsl0-rcl44-esl29-rsm0-rcm25-esm100-rsr0-rcr11-esr100.exr,ReadingArea_rsl0-rcl44-esl29-rsm0-rcm25-esm100-rsr0-rcr11-esr100.npz,,,,,0,110,110,484,,right,red,1.26,767.49143409729,767.9526119232178,,2,7,4,lightness,readingArea,realistic,75,2023-04-01_11h12.21.375,tripletExp_regina_11082022,2022.2.4,120.23265080306952,
14,8,5,0,0.25,3.10526315789474,0,0.25,1.0,0,1.0,0.298245614035088,ReadingArea_rsl0-rcl25-esl310-rsm0-rcm25-esm100-rsr0-rcr100-esr29,exr/ReadingArea_rsl0-rcl25-esl310-rsm0-rcm25-esm100-rsr0-rcr100-esr29.exr,ReadingArea_rsl0-rcl25-esl310-rsm0-rcm25-esm100-rsr0-rcr100-esr29.npz,,,,,0,111,111,28,,right,red,2.77,771.406317949295,772.0571069717407,,2,7,4,lightness,readingArea,realistic,75,2023-04-01_11h12.21.375,tripletExp_regina_11082022,2022.2.4,120.23265080306952,
8,10,6,0,0.25,1.0,0,0.694444444444444,1.0,0,0.027777777777778,1.0,ReadingArea_rsl0-rcl25-esl100-rsm0-rcm69-esm100-rsr0-rcr2-esr100,exr/ReadingArea_rsl0-rcl25-esl100-rsm0-rcm69-esm100-rsr0-rcr2-esr100.exr,ReadingArea_rsl0-rcl25-esl100-rsm0-rcm69-esm100-rsr0-rcr2-esr100.npz,,,,,0,112,112,129,,left,green,1.2,773.7466471195221,774.2403299808502,,2,7,4,lightness,readingArea,realistic,75,2023-04-01_11h12.21.375,tripletExp_regina_11082022,2022.2.4,120.23265080306952,
2,6,0,0,0.25,0.298245614035088,0,0.027777777777778,1.0,0,0.027777777777778,0.298245614035088,ReadingArea_rsl0-rcl25-esl29-rsm0-rcm2-esm100-rsr0-rcr2-esr29,exr/ReadingArea_rsl0-rcl25-esl29-rsm0-rcm2-esm100-rsr0-rcr2-esr29.exr,ReadingArea_rsl0-rcl25-esl29-rsm0-rcm2-esm100-rsr0-rcr2-esr29.npz,,,,,0,113,113,525,,right,red,1.5,775.9623889923096,776.4315459728241,,2,7,4,lightness,readingArea,realistic,75,2023-04-01_11h12.21.375,tripletExp_regina_11082022,2022.2.4,120.23265080306952,
5,10,2,0,1.0,0.298245614035088,0,0.694444444444444,1.0,0,0.25,0.298245614035088,ReadingArea_rsl0-rcl100-esl29-rsm0-rcm69-esm100-rsr0-rcr25-esr29,exr/ReadingArea_rsl0-rcl100-esl29-rsm0-rcm69-esm100-rsr0-rcr25-esr29.exr,ReadingArea_rsl0-rcl100-esl29-rsm0-rcm69-esm100-rsr0-rcr25-esr29.npz,,,,,0,114,114,489,,left,green,1.26,778.1235740184784,778.6046080589294,,2,7,4,lightness,readingArea,realistic,75,2023-04-01_11h12.21.375,tripletExp_regina_11082022,2022.2.4,120.23265080306952,
3,6,4,0,0.444444444444444,0.298245614035088,0,0.027777777777778,1.0,0,0.694444444444444,0.298245614035088,ReadingArea_rsl0-rcl44-esl29-rsm0-rcm2-esm100-rsr0-rcr69-esr29,exr/ReadingArea_rsl0-rcl44-esl29-rsm0-rcm2-esm100-rsr0-rcr69-esr29.exr,ReadingArea_rsl0-rcl44-esl29-rsm0-rcm2-esm100-rsr0-rcr69-esr29.npz,,,,,0,115,115,154,,left,green,1.32,780.296942949295,780.7841119766235,,2,7,4,lightness,readingArea,realistic,75,2023-04-01_11h12.21.375,tripletExp_regina_11082022,2022.2.4,120.23265080306952,
14,2,7,0,0.25,3.10526315789474,0,0.25,0.298245614035088,0,0.111111111111111,1.0,ReadingArea_rsl0-rcl25-esl310-rsm0-rcm25-esm29-rsr0-rcr11-esr100,exr/ReadingArea_rsl0-rcl25-esl310-rsm0-rcm25-esm29-rsr0-rcr11-esr100.exr,ReadingArea_rsl0-rcl25-esl310-rsm0-rcm25-esm29-rsr0-rcr11-esr100.npz,,,,,0,116,116,569,,right,red,1.03,782.4752759933472,782.9610109329224,,2,7,4,lightness,readingArea,realistic,75,2023-04-01_11h12.21.375,tripletExp_regina_11082022,2022.2.4,120.23265080306952,
13,1,4,0,0.111111111111111,3.10526315789474,0,0.111111111111111,0.298245614035088,0,0.694444444444444,0.298245614035088,ReadingArea_rsl0-rcl11-esl310-rsm0-rcm11-esm29-rsr0-rcr69-esr29,exr/ReadingArea_rsl0-rcl11-esl310-rsm0-rcm11-esm29-rsr0-rcr69-esr29.exr,ReadingArea_rsl0-rcl11-esl310-rsm0-rcm11-esm29-rsr0-rcr69-esr29.npz,,,,,0,117,117,396,,right,red,1.25,784.6540279388428,785.1301770210266,,2,7,4,lightness,readingArea,realistic,75,2023-04-01_11h12.21.375,tripletExp_regina_11082022,2022.2.4,120.23265080306952,
2,5,3,0,0.25,0.298245614035088,0,1.0,0.298245614035088,0,0.444444444444444,0.298245614035088,ReadingArea_rsl0-rcl25-esl29-rsm0-rcm100-esm29-rsr0-rcr44-esr29,exr/ReadingArea_rsl0-rcl25-esl29-rsm0-rcm100-esm29-rsr0-rcr44-esr29.exr,ReadingArea_rsl0-rcl25-esl29-rsm0-rcm100-esm29-rsr0-rcr44-esr29.npz,,,,,0,118,118,135,,right,red,2.18,788.5764501094818,789.0562579631805,,2,7,4,lightness,readingArea,realistic,75,2023-04-01_11h12.21.375,tripletExp_regina_11082022,2022.2.4,120.23265080306952,
0,8,7,0,0.027777777777778,0.298245614035088,0,0.25,1.0,0,0.111111111111111,1.0,ReadingArea_rsl0-rcl2-esl29-rsm0-rcm25-esm100-rsr0-rcr11-esr100,exr/ReadingArea_rsl0-rcl2-esl29-rsm0-rcm25-esm100-rsr0-rcr11-esr100.exr,ReadingArea_rsl0-rcl2-esl29-rsm0-rcm25-esm100-rsr0-rcr11-esr100.npz,,,,,0,119,119,9,,right,red,0.78,790.7812111377716,791.417622089386,,2,7,4,lightness,readingArea,realistic,75,2023-04-01_11h12.21.375,tripletExp_regina_11082022,2022.2.4,120.23265080306952,
0,1,6,0,0.027777777777778,0.298245614035088,0,0.111111111111111,0.298245614035088,0,0.027777777777778,1.0,ReadingArea_rsl0-rcl2-esl29-rsm0-rcm11-esm29-rsr0-rcr2-esr100,exr/ReadingArea_rsl0-rcl2-esl29-rsm0-rcm11-esm29-rsr0-rcr2-esr100.exr,ReadingArea_rsl0-rcl2-esl29-rsm0-rcm11-esm29-rsr0-rcr2-esr100.npz,,,,,0,120,120,375,,right,red,1.0,793.1350181102753,793.617926120758,,2,7,4,lightness,readingArea,realistic,75,2023-04-01_11h12.21.375,tripletExp_regina_11082022,2022.2.4,120.23265080306952,
14,6,11,0,0.25,3.10526315789474,0,0.027777777777778,1.0,0,1.0,1.0,ReadingArea_rsl0-rcl25-esl310-rsm0-rcm2-esm100-rsr0-rcr100-esr100,exr/ReadingArea_rsl0-rcl25-esl310-rsm0-rcm2-esm100-rsr0-rcr100-esr100.exr,ReadingArea_rsl0-rcl25-esl310-rsm0-rcm2-esm100-rsr0-rcr100-esr100.npz,,,,,0,121,121,337,,left,green,2.25,797.0648710727692,797.5540471076965,,2,7,4,lightness,readingArea,realistic,75,2023-04-01_11h12.21.375,tripletExp_regina_11082022,2022.2.4,120.23265080306952,
13,11,8,0,0.111111111111111,3.10526315789474,0,1.0,1.0,0,0.25,1.0,ReadingArea_rsl0-rcl11-esl310-rsm0-rcm100-esm100-rsr0-rcr25-esr100,exr/ReadingArea_rsl0-rcl11-esl310-rsm0-rcm100-esm100-rsr0-rcr25-esr100.exr,ReadingArea_rsl0-rcl11-esl310-rsm0-rcm100-esm100-rsr0-rcr25-esr100.npz,,,,,0,122,122,410,,left,green,2.55,801.0113251209259,801.5665709972382,,2,7,4,lightness,readingArea,realistic,75,2023-04-01_11h12.21.375,tripletExp_regina_11082022,2022.2.4,120.23265080306952,
1,13,7,0,0.111111111111111,0.298245614035088,0,0.111111111111111,3.10526315789474,0,0.111111111111111,1.0,ReadingArea_rsl0-rcl11-esl29-rsm0-rcm11-esm310-rsr0-rcr11-esr100,exr/ReadingArea_rsl0-rcl11-esl29-rsm0-rcm11-esm310-rsr0-rcr11-esr100.exr,ReadingArea_rsl0-rcl11-esl29-rsm0-rcm11-esm310-rsr0-rcr11-esr100.npz,,,,,0,123,123,158,,right,red,0.96,803.2706310749054,803.7561459541321,,2,7,4,lightness,readingArea,realistic,75,2023-04-01_11h12.21.375,tripletExp_regina_11082022,2022.2.4,120.23265080306952,
1,12,11,0,0.111111111111111,0.298245614035088,0,0.027777777777778,3.10526315789474,0,1.0,1.0,ReadingArea_rsl0-rcl11-esl29-rsm0-rcm2-esm310-rsr0-rcr100-esr100,exr/ReadingArea_rsl0-rcl11-esl29-rsm0-rcm2-esm310-rsr0-rcr100-esr100.exr,ReadingArea_rsl0-rcl11-esl29-rsm0-rcm2-esm310-rsr0-rcr100-esr100.npz,,,,,0,124,124,178,,left,green,0.89,805.4627480506897,805.9311940670013,,2,7,4,lightness,readingArea,realistic,75,2023-04-01_11h12.21.375,tripletExp_regina_11082022,2022.2.4,120.23265080306952,
6,4,10,0,0.027777777777778,1.0,0,0.694444444444444,0.298245614035088,0,0.694444444444444,1.0,ReadingArea_rsl0-rcl2-esl100-rsm0-rcm69-esm29-rsr0-rcr69-esr100,exr/ReadingArea_rsl0-rcl2-esl100-rsm0-rcm69-esm29-rsr0-rcr69-esr100.exr,ReadingArea_rsl0-rcl2-esl100-rsm0-rcm69-esm29-rsr0-rcr69-esr100.npz,,,,,0,125,125,554,,right,red,0.9,807.6271231174469,808.0837759971619,,2,7,4,lightness,readingArea,realistic,75,2023-04-01_11h12.21.375,tripletExp_regina_11082022,2022.2.4,120.23265080306952,
12,1,2,0,0.027777777777778,3.10526315789474,0,0.111111111111111,0.298245614035088,0,0.25,0.298245614035088,ReadingArea_rsl0-rcl2-esl310-rsm0-rcm11-esm29-rsr0-rcr25-esr29,exr/ReadingArea_rsl0-rcl2-esl310-rsm0-rcm11-esm29-rsr0-rcr25-esr29.exr,ReadingArea_rsl0-rcl2-esl310-rsm0-rcm11-esm29-rsr0-rcr25-esr29.npz,,,,,0,126,126,231,,right,red,2.63,811.5455660820007,812.2271559238434,,2,7,4,lightness,readingArea,realistic,75,2023-04-01_11h12.21.375,tripletExp_regina_11082022,2022.2.4,120.23265080306952,
9,11,6,0,0.444444444444444,1.0,0,1.0,1.0,0,0.027777777777778,1.0,ReadingArea_rsl0-rcl44-esl100-rsm0-rcm100-esm100-rsr0-rcr2-esr100,exr/ReadingArea_rsl0-rcl44-esl100-rsm0-rcm100-esm100-rsr0-rcr2-esr100.exr,ReadingArea_rsl0-rcl44-esl100-rsm0-rcm100-esm100-rsr0-rcr2-esr100.npz,,,,,0,127,127,404,,left,green,1.01,813.9251930713654,814.4092221260071,,2,7,4,lightness,readingArea,realistic,75,2023-04-01_11h12.21.375,tripletExp_regina_11082022,2022.2.4,120.23265080306952,
4,1,13,0,0.694444444444444,0.298245614035088,0,0.111111111111111,0.298245614035088,0,0.111111111111111,3.10526315789474,ReadingArea_rsl0-rcl69-esl29-rsm0-rcm11-esm29-rsr0-rcr11-esr310,exr/ReadingArea_rsl0-rcl69-esl29-rsm0-rcm11-esm29-rsr0-rcr11-esr310.exr,ReadingArea_rsl0-rcl69-esl29-rsm0-rcm11-esm29-rsr0-rcr11-esr310.npz,,,,,0,128,128,565,,left,green,2.24,817.8875000476837,818.3844730854034,,2,7,4,lightness,readingArea,realistic,75,2023-04-01_11h12.21.375,tripletExp_regina_11082022,2022.2.4,120.23265080306952,
12,9,11,0,0.027777777777778,3.10526315789474,0,0.444444444444444,1.0,0,1.0,1.0,ReadingArea_rsl0-rcl2-esl310-rsm0-rcm44-esm100-rsr0-rcr100-esr100,exr/ReadingArea_rsl0-rcl2-esl310-rsm0-rcm44-esm100-rsr0-rcr100-esr100.exr,ReadingArea_rsl0-rcl2-esl310-rsm0-rcm44-esm100-rsr0-rcr100-esr100.npz,,,,,0,129,129,18,,right,red,1.21,820.0767381191254,820.5417830944061,,2,7,4,lightness,readingArea,realistic,75,2023-04-01_11h12.21.375,tripletExp_regina_11082022,2022.2.4,120.23265080306952,
13,11,7,0,0.111111111111111,3.10526315789474,0,1.0,1.0,0,0.111111111111111,1.0,ReadingArea_rsl0-rcl11-esl310-rsm0-rcm100-esm100-rsr0-rcr11-esr100,exr/ReadingArea_rsl0-rcl11-esl310-rsm0-rcm100-esm100-rsr0-rcr11-esr100.exr,ReadingArea_rsl0-rcl11-esl310-rsm0-rcm100-esm100-rsr0-rcr11-esr100.npz,,,,,0,130,130,590,,left,green,0.88,822.2365810871124,822.8879361152649,,2,7,4,lightness,readingArea,realistic,75,2023-04-01_11h12.21.375,tripletExp_regina_11082022,2022.2.4,120.23265080306952,
14,2,1,0,0.25,3.10526315789474,0,0.25,0.298245614035088,0,0.111111111111111,0.298245614035088,ReadingArea_rsl0-rcl25-esl310-rsm0-rcm25-esm29-rsr0-rcr11-esr29,exr/ReadingArea_rsl0-rcl25-esl310-rsm0-rcm25-esm29-rsr0-rcr11-esr29.exr,ReadingArea_rsl0-rcl25-esl310-rsm0-rcm25-esm29-rsr0-rcr11-esr29.npz,,,,,0,131,131,321,,right,red,1.02,824.5820031166077,825.0564241409302,,2,7,4,lightness,readingArea,realistic,75,2023-04-01_11h12.21.375,tripletExp_regina_11082022,2022.2.4,120.23265080306952,
10,4,9,0,0.694444444444444,1.0,0,0.694444444444444,0.298245614035088,0,0.444444444444444,1.0,ReadingArea_rsl0-rcl69-esl100-rsm0-rcm69-esm29-rsr0-rcr44-esr100,exr/ReadingArea_rsl0-rcl69-esl100-rsm0-rcm69-esm29-rsr0-rcr44-esr100.exr,ReadingArea_rsl0-rcl69-esl100-rsm0-rcm69-esm29-rsr0-rcr44-esr100.npz,,,,,0,132,132,452,,left,green,1.09,826.7527849674225,827.3251860141754,,2,7,4,lightness,readingArea,realistic,75,2023-04-01_11h12.21.375,tripletExp_regina_11082022,2022.2.4,120.23265080306952,
2,3,4,0,0.25,0.298245614035088,0,0.444444444444444,0.298245614035088,0,0.694444444444444,0.298245614035088,ReadingArea_rsl0-rcl25-esl29-rsm0-rcm44-esm29-rsr0-rcr69-esr29,exr/ReadingArea_rsl0-rcl25-esl29-rsm0-rcm44-esm29-rsr0-rcr69-esr29.exr,ReadingArea_rsl0-rcl25-esl29-rsm0-rcm44-esm29-rsr0-rcr69-esr29.npz,,,,,0,133,133,61,,right,red,0.99,829.0090670585632,829.4995501041412,,2,7,4,lightness,readingArea,realistic,75,2023-04-01_11h12.21.375,tripletExp_regina_11082022,2022.2.4,120.23265080306952,
4,1,3,0,0.694444444444444,0.298245614035088,0,0.111111111111111,0.298245614035088,0,0.444444444444444,0.298245614035088,ReadingArea_rsl0-rcl69-esl29-rsm0-rcm11-esm29-rsr0-rcr44-esr29,exr/ReadingArea_rsl0-rcl69-esl29-rsm0-rcm11-esm29-rsr0-rcr44-esr29.exr,ReadingArea_rsl0-rcl69-esl29-rsm0-rcm11-esm29-rsr0-rcr44-esr29.npz,,,,,0,134,134,70,,right,red,1.29,831.2203059196472,831.6783399581909,,2,7,4,lightness,readingArea,realistic,75,2023-04-01_11h12.21.375,tripletExp_regina_11082022,2022.2.4,120.23265080306952,
12,3,13,0,0.027777777777778,3.10526315789474,0,0.444444444444444,0.298245614035088,0,0.111111111111111,3.10526315789474,ReadingArea_rsl0-rcl2-esl310-rsm0-rcm44-esm29-rsr0-rcr11-esr310,exr/ReadingArea_rsl0-rcl2-esl310-rsm0-rcm44-esm29-rsr0-rcr11-esr310.exr,ReadingArea_rsl0-rcl2-esl310-rsm0-rcm44-esm29-rsr0-rcr11-esr310.npz,,,,,0,135,135,383,,left,green,1.08,833.368057012558,833.8733761310577,,2,7,4,lightness,readingArea,realistic,75,2023-04-01_11h12.21.375,tripletExp_regina_11082022,2022.2.4,120.23265080306952,
13,0,14,0,0.111111111111111,3.10526315789474,0,0.027777777777778,0.298245614035088,0,0.25,3.10526315789474,ReadingArea_rsl0-rcl11-esl310-rsm0-rcm2-esm29-rsr0-rcr25-esr310,exr/ReadingArea_rsl0-rcl11-esl310-rsm0-rcm2-esm29-rsr0-rcr25-esr310.exr,ReadingArea_rsl0-rcl11-esl310-rsm0-rcm2-esm29-rsr0-rcr25-esr310.npz,,,,,0,136,136,278,,left,green,1.13,835.5972590446472,836.0793161392212,,2,7,4,lightness,readingArea,realistic,75,2023-04-01_11h12.21.375,tripletExp_regina_11082022,2022.2.4,120.23265080306952,
11,5,2,0,1.0,1.0,0,1.0,0.298245614035088,0,0.25,0.298245614035088,ReadingArea_rsl0-rcl100-esl100-rsm0-rcm100-esm29-rsr0-rcr25-esr29,exr/ReadingArea_rsl0-rcl100-esl100-rsm0-rcm100-esm29-rsr0-rcr25-esr29.exr,ReadingArea_rsl0-rcl100-esl100-rsm0-rcm100-esm29-rsr0-rcr25-esr29.npz,,,,,0,137,137,596,,left,green,2.9,839.5370919704437,840.0256581306458,,2,7,4,lightness,readingArea,realistic,75,2023-04-01_11h12.21.375,tripletExp_regina_11082022,2022.2.4,120.23265080306952,
8,9,1,0,0.25,1.0,0,0.444444444444444,1.0,0,0.111111111111111,0.298245614035088,ReadingArea_rsl0-rcl25-esl100-rsm0-rcm44-esm100-rsr0-rcr11-esr29,exr/ReadingArea_rsl0-rcl25-esl100-rsm0-rcm44-esm100-rsr0-rcr11-esr29.exr,ReadingArea_rsl0-rcl25-esl100-rsm0-rcm44-esm100-rsr0-rcr11-esr29.npz,,,,,0,138,138,266,,left,green,0.92,841.750039100647,842.2293419837952,,2,7,4,lightness,readingArea,realistic,75,2023-04-01_11h12.21.375,tripletExp_regina_11082022,2022.2.4,120.23265080306952,
10,7,11,0,0.694444444444444,1.0,0,0.111111111111111,1.0,0,1.0,1.0,ReadingArea_rsl0-rcl69-esl100-rsm0-rcm11-esm100-rsr0-rcr100-esr100,exr/ReadingArea_rsl0-rcl69-esl100-rsm0-rcm11-esm100-rsr0-rcr100-esr100.exr,ReadingArea_rsl0-rcl69-esl100-rsm0-rcm11-esm100-rsr0-rcr100-esr100.npz,,,,,0,139,139,542,,left,green,1.12,843.9197909832001,844.4073159694672,,2,7,4,lightness,readingArea,realistic,75,2023-04-01_11h12.21.375,tripletExp_regina_11082022,2022.2.4,120.23265080306952,
1,9,7,0,0.111111111111111,0.298245614035088,0,0.444444444444444,1.0,0,0.111111111111111,1.0,ReadingArea_rsl0-rcl11-esl29-rsm0-rcm44-esm100-rsr0-rcr11-esr100,exr/ReadingArea_rsl0-rcl11-esl29-rsm0-rcm44-esm100-rsr0-rcr11-esr100.exr,ReadingArea_rsl0-rcl11-esl29-rsm0-rcm44-esm100-rsr0-rcr11-esr100.npz,,,,,0,140,140,397,,right,red,1.11,846.0963890552521,,,2,7,4,lightness,readingArea,realistic,75,2023-04-01_11h12.21.375,tripletExp_regina_11082022,2022.2.4,120.23265080306952,
4,3,10,0,0.694444444444444,0.298245614035088,0,0.444444444444444,0.298245614035088,0,0.694444444444444,1.0,ReadingArea_rsl0-rcl69-esl29-rsm0-rcm44-esm29-rsr0-rcr69-esr100,exr/ReadingArea_rsl0-rcl69-esl29-rsm0-rcm44-esm29-rsr0-rcr69-esr100.exr,ReadingArea_rsl0-rcl69-esl29-rsm0-rcm44-esm29-rsr0-rcr69-esr100.npz,,,,,0,141,141,371,,left,green,0.78,848.2821071147919,848.7495491504669,,2,7,4,lightness,readingArea,realistic,75,2023-04-01_11h12.21.375,tripletExp_regina_11082022,2022.2.4,120.23265080306952,
6,7,3,0,0.027777777777778,1.0,0,0.111111111111111,1.0,0,0.444444444444444,0.298245614035088,ReadingArea_rsl0-rcl2-esl100-rsm0-rcm11-esm100-rsr0-rcr44-esr29,exr/ReadingArea_rsl0-rcl2-esl100-rsm0-rcm11-esm100-rsr0-rcr44-esr29.exr,ReadingArea_rsl0-rcl2-esl100-rsm0-rcm11-esm100-rsr0-rcr44-esr29.npz,,,,,0,142,142,47,,right,red,0.81,850.4406590461731,851.0467381477356,,2,7,4,lightness,readingArea,realistic,75,2023-04-01_11h12.21.375,tripletExp_regina_11082022,2022.2.4,120.23265080306952,
6,9,5,0,0.027777777777778,1.0,0,0.444444444444444,1.0,0,1.0,0.298245614035088,ReadingArea_rsl0-rcl2-esl100-rsm0-rcm44-esm100-rsr0-rcr100-esr29,exr/ReadingArea_rsl0-rcl2-esl100-rsm0-rcm44-esm100-rsr0-rcr100-esr29.exr,ReadingArea_rsl0-rcl2-esl100-rsm0-rcm44-esm100-rsr0-rcr100-esr29.npz,,,,,0,143,143,29,,right,red,0.96,852.7406740188599,853.2500760555267,,2,7,4,lightness,readingArea,realistic,75,2023-04-01_11h12.21.375,tripletExp_regina_11082022,2022.2.4,120.23265080306952,
0,5,2,0,0.027777777777778,0.298245614035088,0,1.0,0.298245614035088,0,0.25,0.298245614035088,ReadingArea_rsl0-rcl2-esl29-rsm0-rcm100-esm29-rsr0-rcr25-esr29,exr/ReadingArea_rsl0-rcl2-esl29-rsm0-rcm100-esm29-rsr0-rcr25-esr29.exr,ReadingArea_rsl0-rcl2-esl29-rsm0-rcm100-esm29-rsr0-rcr25-esr29.npz,,,,,0,144,144,25,,right,red,1.05,854.9492809772491,855.4443619251251,,2,7,4,lightness,readingArea,realistic,75,2023-04-01_11h12.21.375,tripletExp_regina_11082022,2022.2.4,120.23265080306952,
9,11,2,0,0.444444444444444,1.0,0,1.0,1.0,0,0.25,0.298245614035088,ReadingArea_rsl0-rcl44-esl100-rsm0-rcm100-esm100-rsr0-rcr25-esr29,exr/ReadingArea_rsl0-rcl44-esl100-rsm0-rcm100-esm100-rsr0-rcr25-esr29.exr,ReadingArea_rsl0-rcl44-esl100-rsm0-rcm100-esm100-rsr0-rcr25-esr29.npz,,,,,0,145,145,329,,left,green,0.96,857.1432659626007,857.6024589538574,,2,7,4,lightness,readingArea,realistic,75,2023-04-01_11h12.21.375,tripletExp_regina_11082022,2022.2.4,120.23265080306952,
8,14,3,0,0.25,1.0,0,0.25,3.10526315789474,0,0.444444444444444,0.298245614035088,ReadingArea_rsl0-rcl25-esl100-rsm0-rcm25-esm310-rsr0-rcr44-esr29,exr/ReadingArea_rsl0-rcl25-esl100-rsm0-rcm25-esm310-rsr0-rcr44-esr29.exr,ReadingArea_rsl0-rcl25-esl100-rsm0-rcm25-esm310-rsr0-rcr44-esr29.npz,,,,,0,146,146,503,,left,green,1.16,859.3220851421356,859.8382160663605,,2,7,4,lightness,readingArea,realistic,75,2023-04-01_11h12.21.375,tripletExp_regina_11082022,2022.2.4,120.23265080306952,
3,12,6,0,0.444444444444444,0.298245614035088,0,0.027777777777778,3.10526315789474,0,0.027777777777778,1.0,ReadingArea_rsl0-rcl44-esl29-rsm0-rcm2-esm310-rsr0-rcr2-esr100,exr/ReadingArea_rsl0-rcl44-esl29-rsm0-rcm2-esm310-rsr0-rcr2-esr100.exr,ReadingArea_rsl0-rcl44-esl29-rsm0-rcm2-esm310-rsr0-rcr2-esr100.npz,,,,,0,147,147,353,,right,red,1.09,861.5335731506348,862.0138080120087,,2,7,4,lightness,readingArea,realistic,75,2023-04-01_11h12.21.375,tripletExp_regina_11082022,2022.2.4,120.23265080306952,
3,11,14,0,0.444444444444444,0.298245614035088,0,1.0,1.0,0,0.25,3.10526315789474,ReadingArea_rsl0-rcl44-esl29-rsm0-rcm100-esm100-rsr0-rcr25-esr310,exr/ReadingArea_rsl0-rcl44-esl29-rsm0-rcm100-esm100-rsr0-rcr25-esr310.exr,ReadingArea_rsl0-rcl44-esl29-rsm0-rcm100-esm100-rsr0-rcr25-esr310.npz,,,,,0,148,148,570,,right,red,0.92,863.7028110027313,864.1919119358063,,2,7,4,lightness,readingArea,realistic,75,2023-04-01_11h12.21.375,tripletExp_regina_11082022,2022.2.4,120.23265080306952,
4,8,11,0,0.694444444444444,0.298245614035088,0,0.25,1.0,0,1.0,1.0,ReadingArea_rsl0-rcl69-esl29-rsm0-rcm25-esm100-rsr0-rcr100-esr100,exr/ReadingArea_rsl0-rcl69-esl29-rsm0-rcm25-esm100-rsr0-rcr100-esr100.exr,ReadingArea_rsl0-rcl69-esl29-rsm0-rcm25-esm100-rsr0-rcr100-esr100.npz,,,,,0,149,149,403,,left,green,0.78,865.8807380199432,866.0809299945831,,2,7,4,lightness,readingArea,realistic,75,2023-04-01_11h12.21.375,tripletExp_regina_11082022,2022.2.4,120.23265080306952,
12,7,9,0,0.027777777777778,3.10526315789474,0,0.111111111111111,1.0,0,0.444444444444444,1.0,ReadingArea_rsl0-rcl2-esl310-rsm0-rcm11-esm100-rsr0-rcr44-esr100,exr/ReadingArea_rsl0-rcl2-esl310-rsm0-rcm11-esm100-rsr0-rcr44-esr100.exr,ReadingArea_rsl0-rcl2-esl310-rsm0-rcm11-esm100-rsr0-rcr44-esr100.npz,,,,,0,150,150,124,,left,green,2.31,941.9488260746002,942.4147851467133,,3,7,4,lightness,readingArea,realistic,75,2023-04-01_11h12.21.375,tripletExp_regina_11082022,2022.2.4,120.23265080306952,
0,8,12,0,0.027777777777778,0.298245614035088,0,0.25,1.0,0,0.027777777777778,3.10526315789474,ReadingArea_rsl0-rcl2-esl29-rsm0-rcm25-esm100-rsr0-rcr2-esr310,exr/ReadingArea_rsl0-rcl2-esl29-rsm0-rcm25-esm100-rsr0-rcr2-esr310.exr,ReadingArea_rsl0-rcl2-esl29-rsm0-rcm25-esm100-rsr0-rcr2-esr310.npz,,,,,0,151,151,314,,right,red,1.04,944.1146941184998,944.5931811332704,,3,7,4,lightness,readingArea,realistic,75,2023-04-01_11h12.21.375,tripletExp_regina_11082022,2022.2.4,120.23265080306952,
14,13,2,0,0.25,3.10526315789474,0,0.111111111111111,3.10526315789474,0,0.25,0.298245614035088,ReadingArea_rsl0-rcl25-esl310-rsm0-rcm11-esm310-rsr0-rcr25-esr29,exr/ReadingArea_rsl0-rcl25-esl310-rsm0-rcm11-esm310-rsr0-rcr25-esr29.exr,ReadingArea_rsl0-rcl25-esl310-rsm0-rcm11-esm310-rsr0-rcr25-esr29.npz,,,,,0,152,152,377,,left,green,1.11,946.2887890338898,946.7554290294648,,3,7,4,lightness,readingArea,realistic,75,2023-04-01_11h12.21.375,tripletExp_regina_11082022,2022.2.4,120.23265080306952,
1,3,12,0,0.111111111111111,0.298245614035088,0,0.444444444444444,0.298245614035088,0,0.027777777777778,3.10526315789474,ReadingArea_rsl0-rcl11-esl29-rsm0-rcm44-esm29-rsr0-rcr2-esr310,exr/ReadingArea_rsl0-rcl11-esl29-rsm0-rcm44-esm29-rsr0-rcr2-esr310.exr,ReadingArea_rsl0-rcl11-esl29-rsm0-rcm44-esm29-rsr0-rcr2-esr310.npz,,,,,0,153,153,323,,right,red,2.3,950.2151191234587,950.7030191421508,,3,7,4,lightness,readingArea,realistic,75,2023-04-01_11h12.21.375,tripletExp_regina_11082022,2022.2.4,120.23265080306952,
7,5,11,0,0.111111111111111,1.0,0,1.0,0.298245614035088,0,1.0,1.0,ReadingArea_rsl0-rcl11-esl100-rsm0-rcm100-esm29-rsr0-rcr100-esr100,exr/ReadingArea_rsl0-rcl11-esl100-rsm0-rcm100-esm29-rsr0-rcr100-esr100.exr,ReadingArea_rsl0-rcl11-esl100-rsm0-rcm100-esm29-rsr0-rcr100-esr100.npz,,,,,0,154,154,10,,right,red,2.37,954.1793310642242,,,3,7,4,lightness,readingArea,realistic,75,2023-04-01_11h12.21.375,tripletExp_regina_11082022,2022.2.4,120.23265080306952,
2,0,3,0,0.25,0.298245614035088,0,0.027777777777778,0.298245614035088,0,0.444444444444444,0.298245614035088,ReadingArea_rsl0-rcl25-esl29-rsm0-rcm2-esm29-rsr0-rcr44-esr29,exr/ReadingArea_rsl0-rcl25-esl29-rsm0-rcm2-esm29-rsr0-rcr44-esr29.exr,ReadingArea_rsl0-rcl25-esl29-rsm0-rcm2-esm29-rsr0-rcr44-esr29.npz,,,,,0,155,155,338,,left,green,2.1,958.116809129715,958.6004121303558,,3,7,4,lightness,readingArea,realistic,75,2023-04-01_11h12.21.375,tripletExp_regina_11082022,2022.2.4,120.23265080306952,
12,5,2,0,0.027777777777778,3.10526315789474,0,1.0,0.298245614035088,0,0.25,0.298245614035088,ReadingArea_rsl0-rcl2-esl310-rsm0-rcm100-esm29-rsr0-rcr25-esr29,exr/ReadingArea_rsl0-rcl2-esl310-rsm0-rcm100-esm29-rsr0-rcr25-esr29.exr,ReadingArea_rsl0-rcl2-esl310-rsm0-rcm100-esm29-rsr0-rcr25-esr29.npz,,,,,0,156,156,415,,left,green,2.45,962.0973839759828,,,3,7,4,lightness,readingArea,realistic,75,2023-04-01_11h12.21.375,tripletExp_regina_11082022,2022.2.4,120.23265080306952,
8,10,7,0,0.25,1.0,0,0.694444444444444,1.0,0,0.111111111111111,1.0,ReadingArea_rsl0-rcl25-esl100-rsm0-rcm69-esm100-rsr0-rcr11-esr100,exr/ReadingArea_rsl0-rcl25-esl100-rsm0-rcm69-esm100-rsr0-rcr11-esr100.exr,ReadingArea_rsl0-rcl25-esl100-rsm0-rcm69-esm100-rsr0-rcr11-esr100.npz,,,,,0,157,157,424,,left,green,2.39,966.054036140442,966.531270980835,,3,7,4,lightness,readingArea,realistic,75,2023-04-01_11h12.21.375,tripletExp_regina_11082022,2022.2.4,120.23265080306952,
9,13,6,0,0.444444444444444,1.0,0,0.111111111111111,3.10526315789474,0,0.027777777777778,1.0,ReadingArea_rsl0-rcl44-esl100-rsm0-rcm11-esm310-rsr0-rcr2-esr100,exr/ReadingArea_rsl0-rcl44-esl100-rsm0-rcm11-esm310-rsr0-rcr2-esr100.exr,ReadingArea_rsl0-rcl44-esl100-rsm0-rcm11-esm310-rsr0-rcr2-esr100.npz,,,,,0,158,158,13,,left,green,1.01,968.2448921203612,968.713240146637,,3,7,4,lightness,readingArea,realistic,75,2023-04-01_11h12.21.375,tripletExp_regina_11082022,2022.2.4,120.23265080306952,
11,8,7,0,1.0,1.0,0,0.25,1.0,0,0.111111111111111,1.0,ReadingArea_rsl0-rcl100-esl100-rsm0-rcm25-esm100-rsr0-rcr11-esr100,exr/ReadingArea_rsl0-rcl100-esl100-rsm0-rcm25-esm100-rsr0-rcr11-esr100.exr,ReadingArea_rsl0-rcl100-esl100-rsm0-rcm25-esm100-rsr0-rcr11-esr100.npz,,,,,0,159,159,105,,right,red,0.96,970.430428981781,970.906033039093,,3,7,4,lightness,readingArea,realistic,75,2023-04-01_11h12.21.375,tripletExp_regina_11082022,2022.2.4,120.23265080306952,
13,3,7,0,0.111111111111111,3.10526315789474,0,0.444444444444444,0.298245614035088,0,0.111111111111111,1.0,ReadingArea_rsl0-rcl11-esl310-rsm0-rcm44-esm29-rsr0-rcr11-esr100,exr/ReadingArea_rsl0-rcl11-esl310-rsm0-rcm44-esm29-rsr0-rcr11-esr100.exr,ReadingArea_rsl0-rcl11-esl310-rsm0-rcm44-esm29-rsr0-rcr11-esr100.npz,,,,,0,160,160,497,,right,red,2.26,974.373841047287,,,3,7,4,lightness,readingArea,realistic,75,2023-04-01_11h12.21.375,tripletExp_regina_11082022,2022.2.4,120.23265080306952,
1,13,8,0,0.111111111111111,0.298245614035088,0,0.111111111111111,3.10526315789474,0,0.25,1.0,ReadingArea_rsl0-rcl11-esl29-rsm0-rcm11-esm310-rsr0-rcr25-esr100,exr/ReadingArea_rsl0-rcl11-esl29-rsm0-rcm11-esm310-rsr0-rcr25-esr100.exr,ReadingArea_rsl0-rcl11-esl29-rsm0-rcm11-esm310-rsr0-rcr25-esr100.npz,,,,,0,161,161,64,,right,red,1.05,976.7890219688416,977.2672579288484,,3,7,4,lightness,readingArea,realistic,75,2023-04-01_11h12.21.375,tripletExp_regina_11082022,2022.2.4,120.23265080306952,
11,0,12,0,1.0,1.0,0,0.027777777777778,0.298245614035088,0,0.027777777777778,3.10526315789474,ReadingArea_rsl0-rcl100-esl100-rsm0-rcm2-esm29-rsr0-rcr2-esr310,exr/ReadingArea_rsl0-rcl100-esl100-rsm0-rcm2-esm29-rsr0-rcr2-esr310.exr,ReadingArea_rsl0-rcl100-esl100-rsm0-rcm2-esm29-rsr0-rcr2-esr310.npz,,,,,0,162,162,166,,right,red,0.97,978.981595993042,979.4437589645386,,3,7,4,lightness,readingArea,realistic,75,2023-04-01_11h12.21.375,tripletExp_regina_11082022,2022.2.4,120.23265080306952,
4,12,7,0,0.694444444444444,0.298245614035088,0,0.027777777777778,3.10526315789474,0,0.111111111111111,1.0,ReadingArea_rsl0-rcl69-esl29-rsm0-rcm2-esm310-rsr0-rcr11-esr100,exr/ReadingArea_rsl0-rcl69-esl29-rsm0-rcm2-esm310-rsr0-rcr11-esr100.exr,ReadingArea_rsl0-rcl69-esl29-rsm0-rcm2-esm310-rsr0-rcr11-esr100.npz,,,,,0,163,163,112,,right,red,1.23,981.147171974182,981.6283769607544,,3,7,4,lightness,readingArea,realistic,75,2023-04-01_11h12.21.375,tripletExp_regina_11082022,2022.2.4,120.23265080306952,
0,4,12,0,0.027777777777778,0.298245614035088,0,0.694444444444444,0.298245614035088,0,0.027777777777778,3.10526315789474,ReadingArea_rsl0-rcl2-esl29-rsm0-rcm69-esm29-rsr0-rcr2-esr310,exr/ReadingArea_rsl0-rcl2-esl29-rsm0-rcm69-esm29-rsr0-rcr2-esr310.exr,ReadingArea_rsl0-rcl2-esl29-rsm0-rcm69-esm29-rsr0-rcr2-esr310.npz,,,,,0,164,164,150,,right,red,1.37,983.353677034378,983.8198039531708,,3,7,4,lightness,readingArea,realistic,75,2023-04-01_11h12.21.375,tripletExp_regina_11082022,2022.2.4,120.23265080306952,
4,7,10,0,0.694444444444444,0.298245614035088,0,0.111111111111111,1.0,0,0.694444444444444,1.0,ReadingArea_rsl0-rcl69-esl29-rsm0-rcm11-esm100-rsr0-rcr69-esr100,exr/ReadingArea_rsl0-rcl69-esl29-rsm0-rcm11-esm100-rsr0-rcr69-esr100.exr,ReadingArea_rsl0-rcl69-esl29-rsm0-rcm11-esm100-rsr0-rcr69-esr100.npz,,,,,0,165,165,8,,left,green,1.03,985.5096070766448,,,3,7,4,lightness,readingArea,realistic,75,2023-04-01_11h12.21.375,tripletExp_regina_11082022,2022.2.4,120.23265080306952,
9,0,11,0,0.444444444444444,1.0,0,0.027777777777778,0.298245614035088,0,1.0,1.0,ReadingArea_rsl0-rcl44-esl100-rsm0-rcm2-esm29-rsr0-rcr100-esr100,exr/ReadingArea_rsl0-rcl44-esl100-rsm0-rcm2-esm29-rsr0-rcr100-esr100.exr,ReadingArea_rsl0-rcl44-esl100-rsm0-rcm2-esm29-rsr0-rcr100-esr100.npz,,,,,0,166,166,319,,left,green,1.17,987.7892830371856,988.2760901451112,,3,7,4,lightness,readingArea,realistic,75,2023-04-01_11h12.21.375,tripletExp_regina_11082022,2022.2.4,120.23265080306952,
5,9,10,0,1.0,0.298245614035088,0,0.444444444444444,1.0,0,0.694444444444444,1.0,ReadingArea_rsl0-rcl100-esl29-rsm0-rcm44-esm100-rsr0-rcr69-esr100,exr/ReadingArea_rsl0-rcl100-esl29-rsm0-rcm44-esm100-rsr0-rcr69-esr100.exr,ReadingArea_rsl0-rcl100-esl29-rsm0-rcm44-esm100-rsr0-rcr69-esr100.npz,,,,,0,167,167,322,,left,green,1.02,989.9696171283722,990.541433095932,,3,7,4,lightness,readingArea,realistic,75,2023-04-01_11h12.21.375,tripletExp_regina_11082022,2022.2.4,120.23265080306952,
12,5,10,0,0.027777777777778,3.10526315789474,0,1.0,0.298245614035088,0,0.694444444444444,1.0,ReadingArea_rsl0-rcl2-esl310-rsm0-rcm100-esm29-rsr0-rcr69-esr100,exr/ReadingArea_rsl0-rcl2-esl310-rsm0-rcm100-esm29-rsr0-rcr69-esr100.exr,ReadingArea_rsl0-rcl2-esl310-rsm0-rcm100-esm29-rsr0-rcr69-esr100.npz,,,,,0,168,168,493,,left,green,1.09,992.2246811389924,992.710734128952,,3,7,4,lightness,readingArea,realistic,75,2023-04-01_11h12.21.375,tripletExp_regina_11082022,2022.2.4,120.23265080306952,
4,13,2,0,0.694444444444444,0.298245614035088,0,0.111111111111111,3.10526315789474,0,0.25,0.298245614035088,ReadingArea_rsl0-rcl69-esl29-rsm0-rcm11-esm310-rsr0-rcr25-esr29,exr/ReadingArea_rsl0-rcl69-esl29-rsm0-rcm11-esm310-rsr0-rcr25-esr29.exr,ReadingArea_rsl0-rcl69-esl29-rsm0-rcm11-esm310-rsr0-rcr25-esr29.npz,,,,,0,169,169,592,,left,green,1.14,994.435187101364,994.9079461097716,,3,7,4,lightness,readingArea,realistic,75,2023-04-01_11h12.21.375,tripletExp_regina_11082022,2022.2.4,120.23265080306952,
9,7,2,0,0.444444444444444,1.0,0,0.111111111111111,1.0,0,0.25,0.298245614035088,ReadingArea_rsl0-rcl44-esl100-rsm0-rcm11-esm100-rsr0-rcr25-esr29,exr/ReadingArea_rsl0-rcl44-esl100-rsm0-rcm11-esm100-rsr0-rcr25-esr29.exr,ReadingArea_rsl0-rcl44-esl100-rsm0-rcm11-esm100-rsr0-rcr25-esr29.npz,,,,,0,170,170,428,,right,red,0.89,996.6021120548248,997.0693380832672,,3,7,4,lightness,readingArea,realistic,75,2023-04-01_11h12.21.375,tripletExp_regina_11082022,2022.2.4,120.23265080306952,
10,0,3,0,0.694444444444444,1.0,0,0.027777777777778,0.298245614035088,0,0.444444444444444,0.298245614035088,ReadingArea_rsl0-rcl69-esl100-rsm0-rcm2-esm29-rsr0-rcr44-esr29,exr/ReadingArea_rsl0-rcl69-esl100-rsm0-rcm2-esm29-rsr0-rcr44-esr29.exr,ReadingArea_rsl0-rcl69-esl100-rsm0-rcm2-esm29-rsr0-rcr44-esr29.npz,,,,,0,171,171,87,,right,red,1.01,998.7876310348512,999.3146231174468,,3,7,4,lightness,readingArea,realistic,75,2023-04-01_11h12.21.375,tripletExp_regina_11082022,2022.2.4,120.23265080306952,
12,6,9,0,0.027777777777778,3.10526315789474,0,0.027777777777778,1.0,0,0.444444444444444,1.0,ReadingArea_rsl0-rcl2-esl310-rsm0-rcm2-esm100-rsr0-rcr44-esr100,exr/ReadingArea_rsl0-rcl2-esl310-rsm0-rcm2-esm100-rsr0-rcr44-esr100.exr,ReadingArea_rsl0-rcl2-esl310-rsm0-rcm2-esm100-rsr0-rcr44-esr100.npz,,,,,0,172,172,177,,left,green,0.92,1001.033854007721,1001.5170731544496,,3,7,4,lightness,readingArea,realistic,75,2023-04-01_11h12.21.375,tripletExp_regina_11082022,2022.2.4,120.23265080306952,
0,14,8,0,0.027777777777778,0.298245614035088,0,0.25,3.10526315789474,0,0.25,1.0,ReadingArea_rsl0-rcl2-esl29-rsm0-rcm25-esm310-rsr0-rcr25-esr100,exr/ReadingArea_rsl0-rcl2-esl29-rsm0-rcm25-esm310-rsr0-rcr25-esr100.exr,ReadingArea_rsl0-rcl2-esl29-rsm0-rcm25-esm310-rsr0-rcr25-esr100.npz,,,,,0,173,173,545,,right,red,0.99,1003.237205028534,,,3,7,4,lightness,readingArea,realistic,75,2023-04-01_11h12.21.375,tripletExp_regina_11082022,2022.2.4,120.23265080306952,
3,9,10,0,0.444444444444444,0.298245614035088,0,0.444444444444444,1.0,0,0.694444444444444,1.0,ReadingArea_rsl0-rcl44-esl29-rsm0-rcm44-esm100-rsr0-rcr69-esr100,exr/ReadingArea_rsl0-rcl44-esl29-rsm0-rcm44-esm100-rsr0-rcr69-esr100.exr,ReadingArea_rsl0-rcl44-esl29-rsm0-rcm44-esm100-rsr0-rcr69-esr100.npz,,,,,0,174,174,581,,right,red,1.04,1005.4461560249327,,,3,7,4,lightness,readingArea,realistic,75,2023-04-01_11h12.21.375,tripletExp_regina_11082022,2022.2.4,120.23265080306952,
7,12,0,0,0.111111111111111,1.0,0,0.027777777777778,3.10526315789474,0,0.027777777777778,0.298245614035088,ReadingArea_rsl0-rcl11-esl100-rsm0-rcm2-esm310-rsr0-rcr2-esr29,exr/ReadingArea_rsl0-rcl11-esl100-rsm0-rcm2-esm310-rsr0-rcr2-esr29.exr,ReadingArea_rsl0-rcl11-esl100-rsm0-rcm2-esm310-rsr0-rcr2-esr29.npz,,,,,0,175,175,425,,left,green,0.91,1007.658998966217,1008.1350920200348,,3,7,4,lightness,readingArea,realistic,75,2023-04-01_11h12.21.375,tripletExp_regina_11082022,2022.2.4,120.23265080306952,
14,11,0,0,0.25,3.10526315789474,0,1.0,1.0,0,0.027777777777778,0.298245614035088,ReadingArea_rsl0-rcl25-esl310-rsm0-rcm100-esm100-rsr0-rcr2-esr29,exr/ReadingArea_rsl0-rcl25-esl310-rsm0-rcm100-esm100-rsr0-rcr2-esr29.exr,ReadingArea_rsl0-rcl25-esl310-rsm0-rcm100-esm100-rsr0-rcr2-esr29.npz,,,,,0,176,176,227,,left,green,0.78,1009.832878112793,1010.3092679977416,,3,7,4,lightness,readingArea,realistic,75,2023-04-01_11h12.21.375,tripletExp_regina_11082022,2022.2.4,120.23265080306952,
3,2,8,0,0.444444444444444,0.298245614035088,0,0.25,0.298245614035088,0,0.25,1.0,ReadingArea_rsl0-rcl44-esl29-rsm0-rcm25-esm29-rsr0-rcr25-esr100,exr/ReadingArea_rsl0-rcl44-esl29-rsm0-rcm25-esm29-rsr0-rcr25-esr100.exr,ReadingArea_rsl0-rcl44-esl29-rsm0-rcm25-esm29-rsr0-rcr25-esr100.npz,,,,,0,177,177,181,,left,green,0.72,1012.0184609889984,1012.5195310115814,,3,7,4,lightness,readingArea,realistic,75,2023-04-01_11h12.21.375,tripletExp_regina_11082022,2022.2.4,120.23265080306952,
8,12,4,0,0.25,1.0,0,0.027777777777778,3.10526315789474,0,0.694444444444444,0.298245614035088,ReadingArea_rsl0-rcl25-esl100-rsm0-rcm2-esm310-rsr0-rcr69-esr29,exr/ReadingArea_rsl0-rcl25-esl100-rsm0-rcm2-esm310-rsr0-rcr69-esr29.exr,ReadingArea_rsl0-rcl25-esl100-rsm0-rcm2-esm310-rsr0-rcr69-esr29.npz,,,,,0,178,178,30,,left,green,4.5,1017.7919099330902,1018.2981369495392,,3,7,4,lightness,readingArea,realistic,75,2023-04-01_11h12.21.375,tripletExp_regina_11082022,2022.2.4,120.23265080306952,
10,12,9,0,0.694444444444444,1.0,0,0.027777777777778,3.10526315789474,0,0.444444444444444,1.0,ReadingArea_rsl0-rcl69-esl100-rsm0-rcm2-esm310-rsr0-rcr44-esr100,exr/ReadingArea_rsl0-rcl69-esl100-rsm0-rcm2-esm310-rsr0-rcr44-esr100.exr,ReadingArea_rsl0-rcl69-esl100-rsm0-rcm2-esm310-rsr0-rcr44-esr100.npz,,,,,0,179,179,405,,right,red,1.2,1020.000342130661,1020.4908499717712,,3,7,4,lightness,readingArea,realistic,75,2023-04-01_11h12.21.375,tripletExp_regina_11082022,2022.2.4,120.23265080306952,
7,9,5,0,0.111111111111111,1.0,0,0.444444444444444,1.0,0,1.0,0.298245614035088,ReadingArea_rsl0-rcl11-esl100-rsm0-rcm44-esm100-rsr0-rcr100-esr29,exr/ReadingArea_rsl0-rcl11-esl100-rsm0-rcm44-esm100-rsr0-rcr100-esr29.exr,ReadingArea_rsl0-rcl11-esl100-rsm0-rcm44-esm100-rsr0-rcr100-esr29.npz,,,,,0,180,180,291,,right,red,1.19,1022.1803541183472,1022.6883580684662,,3,7,4,lightness,readingArea,realistic,75,2023-04-01_11h12.21.375,tripletExp_regina_11082022,2022.2.4,120.23265080306952,
3,7,0,0,0.444444444444444,0.298245614035088,0,0.111111111111111,1.0,0,0.027777777777778,0.298245614035088,ReadingArea_rsl0-rcl44-esl29-rsm0-rcm11-esm100-rsr0-rcr2-esr29,exr/ReadingArea_rsl0-rcl44-esl29-rsm0-rcm11-esm100-rsr0-rcr2-esr29.exr,ReadingArea_rsl0-rcl44-esl29-rsm0-rcm11-esm100-rsr0-rcr2-esr29.npz,,,,,0,181,181,327,,left,green,0.9,1024.376433134079,1024.859920978546,,3,7,4,lightness,readingArea,realistic,75,2023-04-01_11h12.21.375,tripletExp_regina_11082022,2022.2.4,120.23265080306952,
13,1,7,0,0.111111111111111,3.10526315789474,0,0.111111111111111,0.298245614035088,0,0.111111111111111,1.0,ReadingArea_rsl0-rcl11-esl310-rsm0-rcm11-esm29-rsr0-rcr11-esr100,exr/ReadingArea_rsl0-rcl11-esl310-rsm0-rcm11-esm29-rsr0-rcr11-esr100.exr,ReadingArea_rsl0-rcl11-esl310-rsm0-rcm11-esm29-rsr0-rcr11-esr100.npz,,,,,0,182,182,206,,right,red,1.1,1026.56205701828,1027.0418281555176,,3,7,4,lightness,readingArea,realistic,75,2023-04-01_11h12.21.375,tripletExp_regina_11082022,2022.2.4,120.23265080306952,
11,3,12,0,1.0,1.0,0,0.444444444444444,0.298245614035088,0,0.027777777777778,3.10526315789474,ReadingArea_rsl0-rcl100-esl100-rsm0-rcm44-esm29-rsr0-rcr2-esr310,exr/ReadingArea_rsl0-rcl100-esl100-rsm0-rcm44-esm29-rsr0-rcr2-esr310.exr,ReadingArea_rsl0-rcl100-esl100-rsm0-rcm44-esm29-rsr0-rcr2-esr310.npz,,,,,0,183,183,355,,right,red,1.35,1028.7343699932098,1029.210993051529,,3,7,4,lightness,readingArea,realistic,75,2023-04-01_11h12.21.375,tripletExp_regina_11082022,2022.2.4,120.23265080306952,
14,2,0,0,0.25,3.10526315789474,0,0.25,0.298245614035088,0,0.027777777777778,0.298245614035088,ReadingArea_rsl0-rcl25-esl310-rsm0-rcm25-esm29-rsr0-rcr2-esr29,exr/ReadingArea_rsl0-rcl25-esl310-rsm0-rcm25-esm29-rsr0-rcr2-esr29.exr,ReadingArea_rsl0-rcl25-esl310-rsm0-rcm25-esm29-rsr0-rcr2-esr29.npz,,,,,0,184,184,460,,right,red,1.29,1030.9032621383667,1031.3913419246674,,3,7,4,lightness,readingArea,realistic,75,2023-04-01_11h12.21.375,tripletExp_regina_11082022,2022.2.4,120.23265080306952,
2,12,6,0,0.25,0.298245614035088,0,0.027777777777778,3.10526315789474,0,0.027777777777778,1.0,ReadingArea_rsl0-rcl25-esl29-rsm0-rcm2-esm310-rsr0-rcr2-esr100,exr/ReadingArea_rsl0-rcl25-esl29-rsm0-rcm2-esm310-rsr0-rcr2-esr100.exr,ReadingArea_rsl0-rcl25-esl29-rsm0-rcm2-esm310-rsr0-rcr2-esr100.npz,,,,,0,185,185,400,,left,green,2.21,1034.8346691131592,1035.325317144394,,3,7,4,lightness,readingArea,realistic,75,2023-04-01_11h12.21.375,tripletExp_regina_11082022,2022.2.4,120.23265080306952,
2,1,8,0,0.25,0.298245614035088,0,0.111111111111111,0.298245614035088,0,0.25,1.0,ReadingArea_rsl0-rcl25-esl29-rsm0-rcm11-esm29-rsr0-rcr25-esr100,exr/ReadingArea_rsl0-rcl25-esl29-rsm0-rcm11-esm29-rsr0-rcr25-esr100.exr,ReadingArea_rsl0-rcl25-esl29-rsm0-rcm11-esm29-rsr0-rcr25-esr100.npz,,,,,0,186,186,125,,left,green,2.47,1038.8108749389648,1039.3047659397123,,3,7,4,lightness,readingArea,realistic,75,2023-04-01_11h12.21.375,tripletExp_regina_11082022,2022.2.4,120.23265080306952,
11,12,1,0,1.0,1.0,0,0.027777777777778,3.10526315789474,0,0.111111111111111,0.298245614035088,ReadingArea_rsl0-rcl100-esl100-rsm0-rcm2-esm310-rsr0-rcr11-esr29,exr/ReadingArea_rsl0-rcl100-esl100-rsm0-rcm2-esm310-rsr0-rcr11-esr29.exr,ReadingArea_rsl0-rcl100-esl100-rsm0-rcm2-esm310-rsr0-rcr11-esr29.npz,,,,,0,187,187,140,,right,red,0.9,1041.0095901489258,,,3,7,4,lightness,readingArea,realistic,75,2023-04-01_11h12.21.375,tripletExp_regina_11082022,2022.2.4,120.23265080306952,
3,13,6,0,0.444444444444444,0.298245614035088,0,0.111111111111111,3.10526315789474,0,0.027777777777778,1.0,ReadingArea_rsl0-rcl44-esl29-rsm0-rcm11-esm310-rsr0-rcr2-esr100,exr/ReadingArea_rsl0-rcl44-esl29-rsm0-rcm11-esm310-rsr0-rcr2-esr100.exr,ReadingArea_rsl0-rcl44-esl29-rsm0-rcm11-esm310-rsr0-rcr2-esr100.npz,,,,,0,188,188,199,,left,green,2.31,1044.9808349609375,1045.5139899253843,,3,7,4,lightness,readingArea,realistic,75,2023-04-01_11h12.21.375,tripletExp_regina_11082022,2022.2.4,120.23265080306952,
3,9,0,0,0.444444444444444,0.298245614035088,0,0.444444444444444,1.0,0,0.027777777777778,0.298245614035088,ReadingArea_rsl0-rcl44-esl29-rsm0-rcm44-esm100-rsr0-rcr2-esr29,exr/ReadingArea_rsl0-rcl44-esl29-rsm0-rcm44-esm100-rsr0-rcr2-esr29.exr,ReadingArea_rsl0-rcl44-esl29-rsm0-rcm44-esm100-rsr0-rcr2-esr29.npz,,,,,0,189,189,551,,left,green,0.96,1047.23628115654,1047.759017944336,,3,7,4,lightness,readingArea,realistic,75,2023-04-01_11h12.21.375,tripletExp_regina_11082022,2022.2.4,120.23265080306952,
2,3,6,0,0.25,0.298245614035088,0,0.444444444444444,0.298245614035088,0,0.027777777777778,1.0,ReadingArea_rsl0-rcl25-esl29-rsm0-rcm44-esm29-rsr0-rcr2-esr100,exr/ReadingArea_rsl0-rcl25-esl29-rsm0-rcm44-esm29-rsr0-rcr2-esr100.exr,ReadingArea_rsl0-rcl25-esl29-rsm0-rcm44-esm29-rsr0-rcr2-esr100.npz,,,,,0,190,190,357,,left,green,1.06,1049.4801189899445,1049.95135307312,,3,7,4,lightness,readingArea,realistic,75,2023-04-01_11h12.21.375,tripletExp_regina_11082022,2022.2.4,120.23265080306952,
6,11,7,0,0.027777777777778,1.0,0,1.0,1.0,0,0.111111111111111,1.0,ReadingArea_rsl0-rcl2-esl100-rsm0-rcm100-esm100-rsr0-rcr11-esr100,exr/ReadingArea_rsl0-rcl2-esl100-rsm0-rcm100-esm100-rsr0-rcr11-esr100.exr,ReadingArea_rsl0-rcl2-esl100-rsm0-rcm100-esm100-rsr0-rcr11-esr100.npz,,,,,0,191,191,571,,right,red,1.03,1051.644189119339,1052.136178970337,,3,7,4,lightness,readingArea,realistic,75,2023-04-01_11h12.21.375,tripletExp_regina_11082022,2022.2.4,120.23265080306952,
6,0,1,0,0.027777777777778,1.0,0,0.027777777777778,0.298245614035088,0,0.111111111111111,0.298245614035088,ReadingArea_rsl0-rcl2-esl100-rsm0-rcm2-esm29-rsr0-rcr11-esr29,exr/ReadingArea_rsl0-rcl2-esl100-rsm0-rcm2-esm29-rsr0-rcr11-esr29.exr,ReadingArea_rsl0-rcl2-esl100-rsm0-rcm2-esm29-rsr0-rcr11-esr29.npz,,,,,0,192,192,302,,left,green,2.32,1055.6117839813232,,,3,7,4,lightness,readingArea,realistic,75,2023-04-01_11h12.21.375,tripletExp_regina_11082022,2022.2.4,120.23265080306952,
0,2,1,0,0.027777777777778,0.298245614035088,0,0.25,0.298245614035088,0,0.111111111111111,0.298245614035088,ReadingArea_rsl0-rcl2-esl29-rsm0-rcm25-esm29-rsr0-rcr11-esr29,exr/ReadingArea_rsl0-rcl2-esl29-rsm0-rcm25-esm29-rsr0-rcr11-esr29.exr,ReadingArea_rsl0-rcl2-esl29-rsm0-rcm25-esm29-rsr0-rcr11-esr29.npz,,,,,0,193,193,527,,right,red,0.9,1057.825886964798,1058.3546199798584,,3,7,4,lightness,readingArea,realistic,75,2023-04-01_11h12.21.375,tripletExp_regina_11082022,2022.2.4,120.23265080306952,
5,2,7,0,1.0,0.298245614035088,0,0.25,0.298245614035088,0,0.111111111111111,1.0,ReadingArea_rsl0-rcl100-esl29-rsm0-rcm25-esm29-rsr0-rcr11-esr100,exr/ReadingArea_rsl0-rcl100-esl29-rsm0-rcm25-esm29-rsr0-rcr11-esr100.exr,ReadingArea_rsl0-rcl100-esl29-rsm0-rcm25-esm29-rsr0-rcr11-esr100.npz,,,,,0,194,194,179,,right,red,0.98,1060.0568561553955,1060.5364339351654,,3,7,4,lightness,readingArea,realistic,75,2023-04-01_11h12.21.375,tripletExp_regina_11082022,2022.2.4,120.23265080306952,
2,8,4,0,0.25,0.298245614035088,0,0.25,1.0,0,0.694444444444444,0.298245614035088,ReadingArea_rsl0-rcl25-esl29-rsm0-rcm25-esm100-rsr0-rcr69-esr29,exr/ReadingArea_rsl0-rcl25-esl29-rsm0-rcm25-esm100-rsr0-rcr69-esr29.exr,ReadingArea_rsl0-rcl25-esl29-rsm0-rcm25-esm100-rsr0-rcr69-esr29.npz,,,,,0,195,195,507,,right,red,0.95,1062.2439999580383,1062.7246451377869,,3,7,4,lightness,readingArea,realistic,75,2023-04-01_11h12.21.375,tripletExp_regina_11082022,2022.2.4,120.23265080306952,
3,6,11,0,0.444444444444444,0.298245614035088,0,0.027777777777778,1.0,0,1.0,1.0,ReadingArea_rsl0-rcl44-esl29-rsm0-rcm2-esm100-rsr0-rcr100-esr100,exr/ReadingArea_rsl0-rcl44-esl29-rsm0-rcm2-esm100-rsr0-rcr100-esr100.exr,ReadingArea_rsl0-rcl44-esl29-rsm0-rcm2-esm100-rsr0-rcr100-esr100.npz,,,,,0,196,196,155,,left,green,1.03,1064.4160499572754,1064.9270060062408,,3,7,4,lightness,readingArea,realistic,75,2023-04-01_11h12.21.375,tripletExp_regina_11082022,2022.2.4,120.23265080306952,
4,3,9,0,0.694444444444444,0.298245614035088,0,0.444444444444444,0.298245614035088,0,0.444444444444444,1.0,ReadingArea_rsl0-rcl69-esl29-rsm0-rcm44-esm29-rsr0-rcr44-esr100,exr/ReadingArea_rsl0-rcl69-esl29-rsm0-rcm44-esm29-rsr0-rcr44-esr100.exr,ReadingArea_rsl0-rcl69-esl29-rsm0-rcm44-esm29-rsr0-rcr44-esr100.npz,,,,,0,197,197,451,,left,green,1.16,1066.644737958908,1067.108313083649,,3,7,4,lightness,readingArea,realistic,75,2023-04-01_11h12.21.375,tripletExp_regina_11082022,2022.2.4,120.23265080306952,
2,7,11,0,0.25,0.298245614035088,0,0.111111111111111,1.0,0,1.0,1.0,ReadingArea_rsl0-rcl25-esl29-rsm0-rcm11-esm100-rsr0-rcr100-esr100,exr/ReadingArea_rsl0-rcl25-esl29-rsm0-rcm11-esm100-rsr0-rcr100-esr100.exr,ReadingArea_rsl0-rcl25-esl29-rsm0-rcm11-esm100-rsr0-rcr100-esr100.npz,,,,,0,198,198,194,,left,green,1.14,1068.8057370185852,,,3,7,4,lightness,readingArea,realistic,75,2023-04-01_11h12.21.375,tripletExp_regina_11082022,2022.2.4,120.23265080306952,
9,14,7,0,0.444444444444444,1.0,0,0.25,3.10526315789474,0,0.111111111111111,1.0,ReadingArea_rsl0-rcl44-esl100-rsm0-rcm25-esm310-rsr0-rcr11-esr100,exr/ReadingArea_rsl0-rcl44-esl100-rsm0-rcm25-esm310-rsr0-rcr11-esr100.exr,ReadingArea_rsl0-rcl44-esl100-rsm0-rcm25-esm310-rsr0-rcr11-esr100.npz,,,,,0,199,199,44,,left,green,1.29,1070.9971039295197,1071.475800037384,,3,7,4,lightness,readingArea,realistic,75,2023-04-01_11h12.21.375,tripletExp_regina_11082022,2022.2.4,120.23265080306952,
11,14,9,0,1.0,1.0,0,0.25,3.10526315789474,0,0.444444444444444,1.0,ReadingArea_rsl0-rcl100-esl100-rsm0-rcm25-esm310-rsr0-rcr44-esr100,exr/ReadingArea_rsl0-rcl100-esl100-rsm0-rcm25-esm310-rsr0-rcr44-esr100.exr,ReadingArea_rsl0-rcl100-esl100-rsm0-rcm25-esm310-rsr0-rcr44-esr100.npz,,,,,0,200,200,43,,left,green,1.44,1073.1703779697418,1073.6370940208435,,3,7,4,lightness,readingArea,realistic,75,2023-04-01_11h12.21.375,tripletExp_regina_11082022,2022.2.4,120.23265080306952,
7,2,0,0,0.111111111111111,1.0,0,0.25,0.298245614035088,0,0.027777777777778,0.298245614035088,ReadingArea_rsl0-rcl11-esl100-rsm0-rcm25-esm29-rsr0-rcr2-esr29,exr/ReadingArea_rsl0-rcl11-esl100-rsm0-rcm25-esm29-rsr0-rcr2-esr29.exr,ReadingArea_rsl0-rcl11-esl100-rsm0-rcm25-esm29-rsr0-rcr2-esr29.npz,,,,,0,201,201,520,,left,green,1.17,1075.3369591236117,1075.8362140655518,,3,7,4,lightness,readingArea,realistic,75,2023-04-01_11h12.21.375,tripletExp_regina_11082022,2022.2.4,120.23265080306952,
14,10,13,0,0.25,3.10526315789474,0,0.694444444444444,1.0,0,0.111111111111111,3.10526315789474,ReadingArea_rsl0-rcl25-esl310-rsm0-rcm69-esm100-rsr0-rcr11-esr310,exr/ReadingArea_rsl0-rcl25-esl310-rsm0-rcm69-esm100-rsr0-rcr11-esr310.exr,ReadingArea_rsl0-rcl25-esl310-rsm0-rcm69-esm100-rsr0-rcr11-esr310.npz,,,,,0,202,202,204,,left,green,1.17,1077.5298299789429,1078.018877029419,,3,7,4,lightness,readingArea,realistic,75,2023-04-01_11h12.21.375,tripletExp_regina_11082022,2022.2.4,120.23265080306952,
3,12,4,0,0.444444444444444,0.298245614035088,0,0.027777777777778,3.10526315789474,0,0.694444444444444,0.298245614035088,ReadingArea_rsl0-rcl44-esl29-rsm0-rcm2-esm310-rsr0-rcr69-esr29,exr/ReadingArea_rsl0-rcl44-esl29-rsm0-rcm2-esm310-rsr0-rcr69-esr29.exr,ReadingArea_rsl0-rcl44-esl29-rsm0-rcm2-esm310-rsr0-rcr69-esr29.npz,,,,,0,203,203,426,,left,green,2.42,1081.5016140937803,1082.0324771404266,,3,7,4,lightness,readingArea,realistic,75,2023-04-01_11h12.21.375,tripletExp_regina_11082022,2022.2.4,120.23265080306952,
