index_left,index_middle,index_right,reflectance_surround_left,reflectance_center_left,emission_spot_left,reflectance_surround_middle,reflectance_center_middle,emission_spot_middle,reflectance_surround_right,reflectance_center_right,emission_spot_right,ImageName,ImageExr,ImageNpy,trials_2.thisRepN,trials_2.thisTrialN,trials_2.thisN,trials_2.thisIndex,trials.thisRepN,trials.thisTrialN,trials.thisN,trials.thisIndex,sound_1.started,sound_1.stopped,BB_Trial.resp,BB_Trial.color,BB_Trial.rt,text.started,text.stopped,sound_2.started,block,sound_4.started,participant,session,L/B,scene,condition,nTrialsPerBlock,date,expName,psychopyVersion,frameRate,Unnamed: 43
10,11,9,0,0.694444444444444,1.0,0,1.0,1.0,0,0.444444444444444,1.0,ReadingArea_rsl0-rcl69-esl100-rsm0-rcm100-esm100-rsr0-rcr44-esr100,exr/ReadingArea_rsl0-rcl69-esl100-rsm0-rcm100-esm100-rsr0-rcr44-esr100.exr,ReadingArea_rsl0-rcl69-esl100-rsm0-rcm100-esm100-rsr0-rcr44-esr100.npz,,,,,0,0,0,492,262.20228335857394,202.2432210445404,left,green,1.26,270.22501611709595,270.7114770412445,258.0084392786026,1,,3,9,brightness,readingArea,realistic,75,2023-03-20_14h14.56.297,tripletExp_regina_11082022,2022.2.4,120.3399342395951,
8,13,9,0,0.25,1.0,0,0.111111111111111,3.10526315789474,0,0.444444444444444,1.0,ReadingArea_rsl0-rcl25-esl100-rsm0-rcm11-esm310-rsr0-rcr44-esr100,exr/ReadingArea_rsl0-rcl25-esl100-rsm0-rcm11-esm310-rsr0-rcr44-esr100.exr,ReadingArea_rsl0-rcl25-esl100-rsm0-rcm11-esm310-rsr0-rcr44-esr100.npz,,,,,0,1,1,487,,,right,red,3.4,274.1900191307068,274.81771993637085,,1,,3,9,brightness,readingArea,realistic,75,2023-03-20_14h14.56.297,tripletExp_regina_11082022,2022.2.4,120.3399342395951,
5,6,0,0,1.0,0.298245614035088,0,0.027777777777778,1.0,0,0.027777777777778,0.298245614035088,ReadingArea_rsl0-rcl100-esl29-rsm0-rcm2-esm100-rsr0-rcr2-esr29,exr/ReadingArea_rsl0-rcl100-esl29-rsm0-rcm2-esm100-rsr0-rcr2-esr29.exr,ReadingArea_rsl0-rcl100-esl29-rsm0-rcm2-esm100-rsr0-rcr2-esr29.npz,,,,,0,2,2,511,,,right,red,0.87,276.5065369606018,276.93581795692444,,1,,3,9,brightness,readingArea,realistic,75,2023-03-20_14h14.56.297,tripletExp_regina_11082022,2022.2.4,120.3399342395951,
11,2,4,0,1.0,1.0,0,0.25,0.298245614035088,0,0.694444444444444,0.298245614035088,ReadingArea_rsl0-rcl100-esl100-rsm0-rcm25-esm29-rsr0-rcr69-esr29,exr/ReadingArea_rsl0-rcl100-esl100-rsm0-rcm25-esm29-rsr0-rcr69-esr29.exr,ReadingArea_rsl0-rcl100-esl100-rsm0-rcm25-esm29-rsr0-rcr69-esr29.npz,,,,,0,3,3,359,,,right,red,0.68,278.6586599349976,279.0574779510498,,1,,3,9,brightness,readingArea,realistic,75,2023-03-20_14h14.56.297,tripletExp_regina_11082022,2022.2.4,120.3399342395951,
9,6,14,0,0.444444444444444,1.0,0,0.027777777777778,1.0,0,0.25,3.10526315789474,ReadingArea_rsl0-rcl44-esl100-rsm0-rcm2-esm100-rsr0-rcr25-esr310,exr/ReadingArea_rsl0-rcl44-esl100-rsm0-rcm2-esm100-rsr0-rcr25-esr310.exr,ReadingArea_rsl0-rcl44-esl100-rsm0-rcm2-esm100-rsr0-rcr25-esr310.npz,,,,,0,4,4,213,,,left,green,1.03,280.75047397613525,281.18393898010254,,1,,3,9,brightness,readingArea,realistic,75,2023-03-20_14h14.56.297,tripletExp_regina_11082022,2022.2.4,120.3399342395951,
12,0,2,0,0.027777777777778,3.10526315789474,0,0.027777777777778,0.298245614035088,0,0.25,0.298245614035088,ReadingArea_rsl0-rcl2-esl310-rsm0-rcm2-esm29-rsr0-rcr25-esr29,exr/ReadingArea_rsl0-rcl2-esl310-rsm0-rcm2-esm29-rsr0-rcr25-esr29.exr,ReadingArea_rsl0-rcl2-esl310-rsm0-rcm2-esm29-rsr0-rcr25-esr29.npz,,,,,0,5,5,77,,,right,red,4.49,286.4034299850464,287.0027620792389,,1,,3,9,brightness,readingArea,realistic,75,2023-03-20_14h14.56.297,tripletExp_regina_11082022,2022.2.4,120.3399342395951,
6,4,0,0,0.027777777777778,1.0,0,0.694444444444444,0.298245614035088,0,0.027777777777778,0.298245614035088,ReadingArea_rsl0-rcl2-esl100-rsm0-rcm69-esm29-rsr0-rcr2-esr29,exr/ReadingArea_rsl0-rcl2-esl100-rsm0-rcm69-esm29-rsr0-rcr2-esr29.exr,ReadingArea_rsl0-rcl2-esl100-rsm0-rcm69-esm29-rsr0-rcr2-esr29.npz,,,,,0,6,6,360,,,left,green,1.44,288.6935670375824,289.1287679672241,,1,,3,9,brightness,readingArea,realistic,75,2023-03-20_14h14.56.297,tripletExp_regina_11082022,2022.2.4,120.3399342395951,
0,8,7,0,0.027777777777778,0.298245614035088,0,0.25,1.0,0,0.111111111111111,1.0,ReadingArea_rsl0-rcl2-esl29-rsm0-rcm25-esm100-rsr0-rcr11-esr100,exr/ReadingArea_rsl0-rcl2-esl29-rsm0-rcm25-esm100-rsr0-rcr11-esr100.exr,ReadingArea_rsl0-rcl2-esl29-rsm0-rcm25-esm100-rsr0-rcr11-esr100.npz,,,,,0,7,7,9,,,right,red,0.76,290.8226659297943,291.2943091392517,,1,,3,9,brightness,readingArea,realistic,75,2023-03-20_14h14.56.297,tripletExp_regina_11082022,2022.2.4,120.3399342395951,
6,10,8,0,0.027777777777778,1.0,0,0.694444444444444,1.0,0,0.25,1.0,ReadingArea_rsl0-rcl2-esl100-rsm0-rcm69-esm100-rsr0-rcr25-esr100,exr/ReadingArea_rsl0-rcl2-esl100-rsm0-rcm69-esm100-rsr0-rcr25-esr100.exr,ReadingArea_rsl0-rcl2-esl100-rsm0-rcm69-esm100-rsr0-rcr25-esr100.npz,,,,,0,8,8,167,,,right,red,0.78,292.99546813964844,293.42125701904297,,1,,3,9,brightness,readingArea,realistic,75,2023-03-20_14h14.56.297,tripletExp_regina_11082022,2022.2.4,120.3399342395951,
14,10,5,0,0.25,3.10526315789474,0,0.694444444444444,1.0,0,1.0,0.298245614035088,ReadingArea_rsl0-rcl25-esl310-rsm0-rcm69-esm100-rsr0-rcr100-esr29,exr/ReadingArea_rsl0-rcl25-esl310-rsm0-rcm69-esm100-rsr0-rcr100-esr29.exr,ReadingArea_rsl0-rcl25-esl310-rsm0-rcm69-esm100-rsr0-rcr100-esr29.npz,,,,,0,9,9,96,,,left,green,0.97,295.1133599281311,,,1,,3,9,brightness,readingArea,realistic,75,2023-03-20_14h14.56.297,tripletExp_regina_11082022,2022.2.4,120.3399342395951,
7,4,6,0,0.111111111111111,1.0,0,0.694444444444444,0.298245614035088,0,0.027777777777778,1.0,ReadingArea_rsl0-rcl11-esl100-rsm0-rcm69-esm29-rsr0-rcr2-esr100,exr/ReadingArea_rsl0-rcl11-esl100-rsm0-rcm69-esm29-rsr0-rcr2-esr100.exr,ReadingArea_rsl0-rcl11-esl100-rsm0-rcm69-esm29-rsr0-rcr2-esr100.npz,,,,,0,10,10,528,,,left,green,1.16,297.24822902679443,297.7975161075592,,1,,3,9,brightness,readingArea,realistic,75,2023-03-20_14h14.56.297,tripletExp_regina_11082022,2022.2.4,120.3399342395951,
9,11,10,0,0.444444444444444,1.0,0,1.0,1.0,0,0.694444444444444,1.0,ReadingArea_rsl0-rcl44-esl100-rsm0-rcm100-esm100-rsr0-rcr69-esr100,exr/ReadingArea_rsl0-rcl44-esl100-rsm0-rcm100-esm100-rsr0-rcr69-esr100.exr,ReadingArea_rsl0-rcl44-esl100-rsm0-rcm100-esm100-rsr0-rcr69-esr100.npz,,,,,0,11,11,591,,,right,red,1.16,299.5119171142578,299.9486439228058,,1,,3,9,brightness,readingArea,realistic,75,2023-03-20_14h14.56.297,tripletExp_regina_11082022,2022.2.4,120.3399342395951,
13,0,8,0,0.111111111111111,3.10526315789474,0,0.027777777777778,0.298245614035088,0,0.25,1.0,ReadingArea_rsl0-rcl11-esl310-rsm0-rcm2-esm29-rsr0-rcr25-esr100,exr/ReadingArea_rsl0-rcl11-esl310-rsm0-rcm2-esm29-rsr0-rcr25-esr100.exr,ReadingArea_rsl0-rcl11-esl310-rsm0-rcm2-esm29-rsr0-rcr25-esr100.npz,,,,,0,12,12,249,,,right,red,3.09,303.4279611110687,303.8434031009674,,1,,3,9,brightness,readingArea,realistic,75,2023-03-20_14h14.56.297,tripletExp_regina_11082022,2022.2.4,120.3399342395951,
13,3,7,0,0.111111111111111,3.10526315789474,0,0.444444444444444,0.298245614035088,0,0.111111111111111,1.0,ReadingArea_rsl0-rcl11-esl310-rsm0-rcm44-esm29-rsr0-rcr11-esr100,exr/ReadingArea_rsl0-rcl11-esl310-rsm0-rcm44-esm29-rsr0-rcr11-esr100.exr,ReadingArea_rsl0-rcl11-esl310-rsm0-rcm44-esm29-rsr0-rcr11-esr100.npz,,,,,0,13,13,497,,,right,red,1.48,305.54136514663696,305.9821879863739,,1,,3,9,brightness,readingArea,realistic,75,2023-03-20_14h14.56.297,tripletExp_regina_11082022,2022.2.4,120.3399342395951,
5,3,6,0,1.0,0.298245614035088,0,0.444444444444444,0.298245614035088,0,0.027777777777778,1.0,ReadingArea_rsl0-rcl100-esl29-rsm0-rcm44-esm29-rsr0-rcr2-esr100,exr/ReadingArea_rsl0-rcl100-esl29-rsm0-rcm44-esm29-rsr0-rcr2-esr100.exr,ReadingArea_rsl0-rcl100-esl29-rsm0-rcm44-esm29-rsr0-rcr2-esr100.npz,,,,,0,14,14,316,,,left,green,0.8,307.70547008514404,308.1290919780731,,1,,3,9,brightness,readingArea,realistic,75,2023-03-20_14h14.56.297,tripletExp_regina_11082022,2022.2.4,120.3399342395951,
2,3,6,0,0.25,0.298245614035088,0,0.444444444444444,0.298245614035088,0,0.027777777777778,1.0,ReadingArea_rsl0-rcl25-esl29-rsm0-rcm44-esm29-rsr0-rcr2-esr100,exr/ReadingArea_rsl0-rcl25-esl29-rsm0-rcm44-esm29-rsr0-rcr2-esr100.exr,ReadingArea_rsl0-rcl25-esl29-rsm0-rcm44-esm29-rsr0-rcr2-esr100.npz,,,,,0,15,15,357,,,left,green,0.93,309.84730410575867,310.289754152298,,1,,3,9,brightness,readingArea,realistic,75,2023-03-20_14h14.56.297,tripletExp_regina_11082022,2022.2.4,120.3399342395951,
9,0,6,0,0.444444444444444,1.0,0,0.027777777777778,0.298245614035088,0,0.027777777777778,1.0,ReadingArea_rsl0-rcl44-esl100-rsm0-rcm2-esm29-rsr0-rcr2-esr100,exr/ReadingArea_rsl0-rcl44-esl100-rsm0-rcm2-esm29-rsr0-rcr2-esr100.exr,ReadingArea_rsl0-rcl44-esl100-rsm0-rcm2-esm29-rsr0-rcr2-esr100.npz,,,,,0,16,16,362,,,right,red,0.79,312.0009620189667,312.45756006240845,,1,,3,9,brightness,readingArea,realistic,75,2023-03-20_14h14.56.297,tripletExp_regina_11082022,2022.2.4,120.3399342395951,
2,4,6,0,0.25,0.298245614035088,0,0.694444444444444,0.298245614035088,0,0.027777777777778,1.0,ReadingArea_rsl0-rcl25-esl29-rsm0-rcm69-esm29-rsr0-rcr2-esr100,exr/ReadingArea_rsl0-rcl25-esl29-rsm0-rcm69-esm29-rsr0-rcr2-esr100.exr,ReadingArea_rsl0-rcl25-esl29-rsm0-rcm69-esm29-rsr0-rcr2-esr100.npz,,,,,0,17,17,563,,,left,green,1.19,314.14914894104004,314.59760212898254,,1,,3,9,brightness,readingArea,realistic,75,2023-03-20_14h14.56.297,tripletExp_regina_11082022,2022.2.4,120.3399342395951,
9,13,0,0,0.444444444444444,1.0,0,0.111111111111111,3.10526315789474,0,0.027777777777778,0.298245614035088,ReadingArea_rsl0-rcl44-esl100-rsm0-rcm11-esm310-rsr0-rcr2-esr29,exr/ReadingArea_rsl0-rcl44-esl100-rsm0-rcm11-esm310-rsr0-rcr2-esr29.exr,ReadingArea_rsl0-rcl44-esl100-rsm0-rcm11-esm310-rsr0-rcr2-esr29.npz,,,,,0,18,18,205,,,left,green,0.69,316.32061100006104,316.7574510574341,,1,,3,9,brightness,readingArea,realistic,75,2023-03-20_14h14.56.297,tripletExp_regina_11082022,2022.2.4,120.3399342395951,
9,6,11,0,0.444444444444444,1.0,0,0.027777777777778,1.0,0,1.0,1.0,ReadingArea_rsl0-rcl44-esl100-rsm0-rcm2-esm100-rsr0-rcr100-esr100,exr/ReadingArea_rsl0-rcl44-esl100-rsm0-rcm2-esm100-rsr0-rcr100-esr100.exr,ReadingArea_rsl0-rcl44-esl100-rsm0-rcm2-esm100-rsr0-rcr100-esr100.npz,,,,,0,19,19,572,,,left,green,1.09,318.44967913627625,318.86253809928894,,1,,3,9,brightness,readingArea,realistic,75,2023-03-20_14h14.56.297,tripletExp_regina_11082022,2022.2.4,120.3399342395951,
2,14,8,0,0.25,0.298245614035088,0,0.25,3.10526315789474,0,0.25,1.0,ReadingArea_rsl0-rcl25-esl29-rsm0-rcm25-esm310-rsr0-rcr25-esr100,exr/ReadingArea_rsl0-rcl25-esl29-rsm0-rcm25-esm310-rsr0-rcr25-esr100.exr,ReadingArea_rsl0-rcl25-esl29-rsm0-rcm25-esm310-rsr0-rcr25-esr100.npz,,,,,0,20,20,255,,,right,red,0.95,320.5696680545807,320.97696709632874,,1,,3,9,brightness,readingArea,realistic,75,2023-03-20_14h14.56.297,tripletExp_regina_11082022,2022.2.4,120.3399342395951,
3,5,7,0,0.444444444444444,0.298245614035088,0,1.0,0.298245614035088,0,0.111111111111111,1.0,ReadingArea_rsl0-rcl44-esl29-rsm0-rcm100-esm29-rsr0-rcr11-esr100,exr/ReadingArea_rsl0-rcl44-esl29-rsm0-rcm100-esm29-rsr0-rcr11-esr100.exr,ReadingArea_rsl0-rcl44-esl29-rsm0-rcm100-esm29-rsr0-rcr11-esr100.npz,,,,,0,21,21,474,,,left,green,1.15,322.67917108535767,323.11957597732544,,1,,3,9,brightness,readingArea,realistic,75,2023-03-20_14h14.56.297,tripletExp_regina_11082022,2022.2.4,120.3399342395951,
10,7,8,0,0.694444444444444,1.0,0,0.111111111111111,1.0,0,0.25,1.0,ReadingArea_rsl0-rcl69-esl100-rsm0-rcm11-esm100-rsr0-rcr25-esr100,exr/ReadingArea_rsl0-rcl69-esl100-rsm0-rcm11-esm100-rsr0-rcr25-esr100.exr,ReadingArea_rsl0-rcl69-esl100-rsm0-rcm11-esm100-rsr0-rcr25-esr100.npz,,,,,0,22,22,57,,,right,red,1.19,324.8295850753784,325.2673330307007,,1,,3,9,brightness,readingArea,realistic,75,2023-03-20_14h14.56.297,tripletExp_regina_11082022,2022.2.4,120.3399342395951,
9,0,11,0,0.444444444444444,1.0,0,0.027777777777778,0.298245614035088,0,1.0,1.0,ReadingArea_rsl0-rcl44-esl100-rsm0-rcm2-esm29-rsr0-rcr100-esr100,exr/ReadingArea_rsl0-rcl44-esl100-rsm0-rcm2-esm29-rsr0-rcr100-esr100.exr,ReadingArea_rsl0-rcl44-esl100-rsm0-rcm2-esm29-rsr0-rcr100-esr100.npz,,,,,0,23,23,319,,,left,green,1.2,326.9612259864807,327.400808095932,,1,,3,9,brightness,readingArea,realistic,75,2023-03-20_14h14.56.297,tripletExp_regina_11082022,2022.2.4,120.3399342395951,
5,11,14,0,1.0,0.298245614035088,0,1.0,1.0,0,0.25,3.10526315789474,ReadingArea_rsl0-rcl100-esl29-rsm0-rcm100-esm100-rsr0-rcr25-esr310,exr/ReadingArea_rsl0-rcl100-esl29-rsm0-rcm100-esm100-rsr0-rcr25-esr310.exr,ReadingArea_rsl0-rcl100-esl29-rsm0-rcm100-esm100-rsr0-rcr25-esr310.npz,,,,,0,24,24,258,,,right,red,0.97,329.10053396224976,329.55293011665344,,1,,3,9,brightness,readingArea,realistic,75,2023-03-20_14h14.56.297,tripletExp_regina_11082022,2022.2.4,120.3399342395951,
14,0,5,0,0.25,3.10526315789474,0,0.027777777777778,0.298245614035088,0,1.0,0.298245614035088,ReadingArea_rsl0-rcl25-esl310-rsm0-rcm2-esm29-rsr0-rcr100-esr29,exr/ReadingArea_rsl0-rcl25-esl310-rsm0-rcm2-esm29-rsr0-rcr100-esr29.exr,ReadingArea_rsl0-rcl25-esl310-rsm0-rcm2-esm29-rsr0-rcr100-esr29.npz,,,,,0,25,25,418,,,right,red,0.82,331.25580406188965,331.6658499240875,,1,,3,9,brightness,readingArea,realistic,75,2023-03-20_14h14.56.297,tripletExp_regina_11082022,2022.2.4,120.3399342395951,
12,5,2,0,0.027777777777778,3.10526315789474,0,1.0,0.298245614035088,0,0.25,0.298245614035088,ReadingArea_rsl0-rcl2-esl310-rsm0-rcm100-esm29-rsr0-rcr25-esr29,exr/ReadingArea_rsl0-rcl2-esl310-rsm0-rcm100-esm29-rsr0-rcr25-esr29.exr,ReadingArea_rsl0-rcl2-esl310-rsm0-rcm100-esm29-rsr0-rcr25-esr29.npz,,,,,0,26,26,415,,,right,red,2.9,335.1265060901642,335.6508090496063,,1,,3,9,brightness,readingArea,realistic,75,2023-03-20_14h14.56.297,tripletExp_regina_11082022,2022.2.4,120.3399342395951,
13,6,2,0,0.111111111111111,3.10526315789474,0,0.027777777777778,1.0,0,0.25,0.298245614035088,ReadingArea_rsl0-rcl11-esl310-rsm0-rcm2-esm100-rsr0-rcr25-esr29,exr/ReadingArea_rsl0-rcl11-esl310-rsm0-rcm2-esm100-rsr0-rcr25-esr29.exr,ReadingArea_rsl0-rcl11-esl310-rsm0-rcm2-esm100-rsr0-rcr25-esr29.npz,,,,,0,27,27,115,,,right,red,3.13,339.12020993232727,,,1,,3,9,brightness,readingArea,realistic,75,2023-03-20_14h14.56.297,tripletExp_regina_11082022,2022.2.4,120.3399342395951,
10,12,11,0,0.694444444444444,1.0,0,0.027777777777778,3.10526315789474,0,1.0,1.0,ReadingArea_rsl0-rcl69-esl100-rsm0-rcm2-esm310-rsr0-rcr100-esr100,exr/ReadingArea_rsl0-rcl69-esl100-rsm0-rcm2-esm310-rsr0-rcr100-esr100.exr,ReadingArea_rsl0-rcl69-esl100-rsm0-rcm2-esm310-rsr0-rcr100-esr100.npz,,,,,0,28,28,317,,,left,green,1.43,341.2570719718933,341.6930091381073,,1,,3,9,brightness,readingArea,realistic,75,2023-03-20_14h14.56.297,tripletExp_regina_11082022,2022.2.4,120.3399342395951,
6,12,8,0,0.027777777777778,1.0,0,0.027777777777778,3.10526315789474,0,0.25,1.0,ReadingArea_rsl0-rcl2-esl100-rsm0-rcm2-esm310-rsr0-rcr25-esr100,exr/ReadingArea_rsl0-rcl2-esl100-rsm0-rcm2-esm310-rsr0-rcr25-esr100.exr,ReadingArea_rsl0-rcl2-esl100-rsm0-rcm2-esm310-rsr0-rcr25-esr100.npz,,,,,0,29,29,186,,,left,green,1.04,343.3817639350891,343.8342399597168,,1,,3,9,brightness,readingArea,realistic,75,2023-03-20_14h14.56.297,tripletExp_regina_11082022,2022.2.4,120.3399342395951,
13,11,2,0,0.111111111111111,3.10526315789474,0,1.0,1.0,0,0.25,0.298245614035088,ReadingArea_rsl0-rcl11-esl310-rsm0-rcm100-esm100-rsr0-rcr25-esr29,exr/ReadingArea_rsl0-rcl11-esl310-rsm0-rcm100-esm100-rsr0-rcr25-esr29.exr,ReadingArea_rsl0-rcl11-esl310-rsm0-rcm100-esm100-rsr0-rcr25-esr29.npz,,,,,0,30,30,55,,,left,green,1.08,345.52316093444824,345.96681094169617,,1,,3,9,brightness,readingArea,realistic,75,2023-03-20_14h14.56.297,tripletExp_regina_11082022,2022.2.4,120.3399342395951,
0,14,10,0,0.027777777777778,0.298245614035088,0,0.25,3.10526315789474,0,0.694444444444444,1.0,ReadingArea_rsl0-rcl2-esl29-rsm0-rcm25-esm310-rsr0-rcr69-esr100,exr/ReadingArea_rsl0-rcl2-esl29-rsm0-rcm25-esm310-rsr0-rcr69-esr100.exr,ReadingArea_rsl0-rcl2-esl29-rsm0-rcm25-esm310-rsr0-rcr69-esr100.npz,,,,,0,31,31,128,,,right,red,0.68,347.6904921531677,348.12814593315125,,1,,3,9,brightness,readingArea,realistic,75,2023-03-20_14h14.56.297,tripletExp_regina_11082022,2022.2.4,120.3399342395951,
1,14,8,0,0.111111111111111,0.298245614035088,0,0.25,3.10526315789474,0,0.25,1.0,ReadingArea_rsl0-rcl11-esl29-rsm0-rcm25-esm310-rsr0-rcr25-esr100,exr/ReadingArea_rsl0-rcl11-esl29-rsm0-rcm25-esm310-rsr0-rcr25-esr100.exr,ReadingArea_rsl0-rcl11-esl29-rsm0-rcm25-esm310-rsr0-rcr25-esr100.npz,,,,,0,32,32,108,,,right,red,0.87,349.82003903388977,350.25640201568604,,1,,3,9,brightness,readingArea,realistic,75,2023-03-20_14h14.56.297,tripletExp_regina_11082022,2022.2.4,120.3399342395951,
13,2,4,0,0.111111111111111,3.10526315789474,0,0.25,0.298245614035088,0,0.694444444444444,0.298245614035088,ReadingArea_rsl0-rcl11-esl310-rsm0-rcm25-esm29-rsr0-rcr69-esr29,exr/ReadingArea_rsl0-rcl11-esl310-rsm0-rcm25-esm29-rsr0-rcr69-esr29.exr,ReadingArea_rsl0-rcl11-esl310-rsm0-rcm25-esm29-rsr0-rcr69-esr29.npz,,,,,0,33,33,307,,,right,red,3.5,353.7092580795288,354.1547920703888,,1,,3,9,brightness,readingArea,realistic,75,2023-03-20_14h14.56.297,tripletExp_regina_11082022,2022.2.4,120.3399342395951,
13,8,0,0,0.111111111111111,3.10526315789474,0,0.25,1.0,0,0.027777777777778,0.298245614035088,ReadingArea_rsl0-rcl11-esl310-rsm0-rcm25-esm100-rsr0-rcr2-esr29,exr/ReadingArea_rsl0-rcl11-esl310-rsm0-rcm25-esm100-rsr0-rcr2-esr29.exr,ReadingArea_rsl0-rcl11-esl310-rsm0-rcm25-esm100-rsr0-rcr2-esr29.npz,,,,,0,34,34,429,,,left,green,0.85,355.8742370605469,356.3218660354614,,1,,3,9,brightness,readingArea,realistic,75,2023-03-20_14h14.56.297,tripletExp_regina_11082022,2022.2.4,120.3399342395951,
14,1,13,0,0.25,3.10526315789474,0,0.111111111111111,0.298245614035088,0,0.111111111111111,3.10526315789474,ReadingArea_rsl0-rcl25-esl310-rsm0-rcm11-esm29-rsr0-rcr11-esr310,exr/ReadingArea_rsl0-rcl25-esl310-rsm0-rcm11-esm29-rsr0-rcr11-esr310.exr,ReadingArea_rsl0-rcl25-esl310-rsm0-rcm11-esm29-rsr0-rcr11-esr310.npz,,,,,0,35,35,265,,,right,red,1.01,358.0199820995331,358.4254369735718,,1,,3,9,brightness,readingArea,realistic,75,2023-03-20_14h14.56.297,tripletExp_regina_11082022,2022.2.4,120.3399342395951,
5,2,0,0,1.0,0.298245614035088,0,0.25,0.298245614035088,0,0.027777777777778,0.298245614035088,ReadingArea_rsl0-rcl100-esl29-rsm0-rcm25-esm29-rsr0-rcr2-esr29,exr/ReadingArea_rsl0-rcl100-esl29-rsm0-rcm25-esm29-rsr0-rcr2-esr29.exr,ReadingArea_rsl0-rcl100-esl29-rsm0-rcm25-esm29-rsr0-rcr2-esr29.npz,,,,,0,36,36,476,,,left,green,0.78,360.13660311698914,360.5560491085053,,1,,3,9,brightness,readingArea,realistic,75,2023-03-20_14h14.56.297,tripletExp_regina_11082022,2022.2.4,120.3399342395951,
0,12,7,0,0.027777777777778,0.298245614035088,0,0.027777777777778,3.10526315789474,0,0.111111111111111,1.0,ReadingArea_rsl0-rcl2-esl29-rsm0-rcm2-esm310-rsr0-rcr11-esr100,exr/ReadingArea_rsl0-rcl2-esl29-rsm0-rcm2-esm310-rsr0-rcr11-esr100.exr,ReadingArea_rsl0-rcl2-esl29-rsm0-rcm2-esm310-rsr0-rcr11-esr100.npz,,,,,0,37,37,481,,,right,red,0.78,362.2810270786285,362.6991069316864,,1,,3,9,brightness,readingArea,realistic,75,2023-03-20_14h14.56.297,tripletExp_regina_11082022,2022.2.4,120.3399342395951,
12,8,3,0,0.027777777777778,3.10526315789474,0,0.25,1.0,0,0.444444444444444,0.298245614035088,ReadingArea_rsl0-rcl2-esl310-rsm0-rcm25-esm100-rsr0-rcr44-esr29,exr/ReadingArea_rsl0-rcl2-esl310-rsm0-rcm25-esm100-rsr0-rcr44-esr29.exr,ReadingArea_rsl0-rcl2-esl310-rsm0-rcm25-esm100-rsr0-rcr44-esr29.npz,,,,,0,38,38,386,,,right,red,0.97,364.3883111476898,364.8274199962616,,1,,3,9,brightness,readingArea,realistic,75,2023-03-20_14h14.56.297,tripletExp_regina_11082022,2022.2.4,120.3399342395951,
2,6,0,0,0.25,0.298245614035088,0,0.027777777777778,1.0,0,0.027777777777778,0.298245614035088,ReadingArea_rsl0-rcl25-esl29-rsm0-rcm2-esm100-rsr0-rcr2-esr29,exr/ReadingArea_rsl0-rcl25-esl29-rsm0-rcm2-esm100-rsr0-rcr2-esr29.exr,ReadingArea_rsl0-rcl25-esl29-rsm0-rcm2-esm100-rsr0-rcr2-esr29.npz,,,,,0,39,39,525,,,right,red,0.89,366.51751613616943,366.9613399505615,,1,,3,9,brightness,readingArea,realistic,75,2023-03-20_14h14.56.297,tripletExp_regina_11082022,2022.2.4,120.3399342395951,
3,6,10,0,0.444444444444444,0.298245614035088,0,0.027777777777778,1.0,0,0.694444444444444,1.0,ReadingArea_rsl0-rcl44-esl29-rsm0-rcm2-esm100-rsr0-rcr69-esr100,exr/ReadingArea_rsl0-rcl44-esl29-rsm0-rcm2-esm100-rsr0-rcr69-esr100.exr,ReadingArea_rsl0-rcl44-esl29-rsm0-rcm2-esm100-rsr0-rcr69-esr100.npz,,,,,0,40,40,138,,,left,green,0.97,368.6493639945984,369.0784549713135,,1,,3,9,brightness,readingArea,realistic,75,2023-03-20_14h14.56.297,tripletExp_regina_11082022,2022.2.4,120.3399342395951,
14,8,2,0,0.25,3.10526315789474,0,0.25,1.0,0,0.25,0.298245614035088,ReadingArea_rsl0-rcl25-esl310-rsm0-rcm25-esm100-rsr0-rcr25-esr29,exr/ReadingArea_rsl0-rcl25-esl310-rsm0-rcm25-esm100-rsr0-rcr25-esr29.exr,ReadingArea_rsl0-rcl25-esl310-rsm0-rcm25-esm100-rsr0-rcr25-esr29.npz,,,,,0,41,41,251,,,right,red,1.32,370.7689549922943,371.2018039226532,,1,,3,9,brightness,readingArea,realistic,75,2023-03-20_14h14.56.297,tripletExp_regina_11082022,2022.2.4,120.3399342395951,
1,0,4,0,0.111111111111111,0.298245614035088,0,0.027777777777778,0.298245614035088,0,0.694444444444444,0.298245614035088,ReadingArea_rsl0-rcl11-esl29-rsm0-rcm2-esm29-rsr0-rcr69-esr29,exr/ReadingArea_rsl0-rcl11-esl29-rsm0-rcm2-esm29-rsr0-rcr69-esr29.exr,ReadingArea_rsl0-rcl11-esl29-rsm0-rcm2-esm29-rsr0-rcr69-esr29.npz,,,,,0,42,42,494,,,left,green,0.89,372.9140460491181,373.3238639831543,,1,,3,9,brightness,readingArea,realistic,75,2023-03-20_14h14.56.297,tripletExp_regina_11082022,2022.2.4,120.3399342395951,
8,6,11,0,0.25,1.0,0,0.027777777777778,1.0,0,1.0,1.0,ReadingArea_rsl0-rcl25-esl100-rsm0-rcm2-esm100-rsr0-rcr100-esr100,exr/ReadingArea_rsl0-rcl25-esl100-rsm0-rcm2-esm100-rsr0-rcr100-esr100.exr,ReadingArea_rsl0-rcl25-esl100-rsm0-rcm2-esm100-rsr0-rcr100-esr100.npz,,,,,0,43,43,236,,,left,green,1.02,375.02915811538696,375.5304870605469,,1,,3,9,brightness,readingArea,realistic,75,2023-03-20_14h14.56.297,tripletExp_regina_11082022,2022.2.4,120.3399342395951,
6,12,0,0,0.027777777777778,1.0,0,0.027777777777778,3.10526315789474,0,0.027777777777778,0.298245614035088,ReadingArea_rsl0-rcl2-esl100-rsm0-rcm2-esm310-rsr0-rcr2-esr29,exr/ReadingArea_rsl0-rcl2-esl100-rsm0-rcm2-esm310-rsr0-rcr2-esr29.exr,ReadingArea_rsl0-rcl2-esl100-rsm0-rcm2-esm310-rsr0-rcr2-esr29.npz,,,,,0,44,44,23,,,left,green,1.64,377.2282590866089,377.6703059673309,,1,,3,9,brightness,readingArea,realistic,75,2023-03-20_14h14.56.297,tripletExp_regina_11082022,2022.2.4,120.3399342395951,
13,3,5,0,0.111111111111111,3.10526315789474,0,0.444444444444444,0.298245614035088,0,1.0,0.298245614035088,ReadingArea_rsl0-rcl11-esl310-rsm0-rcm44-esm29-rsr0-rcr100-esr29,exr/ReadingArea_rsl0-rcl11-esl310-rsm0-rcm44-esm29-rsr0-rcr100-esr29.exr,ReadingArea_rsl0-rcl11-esl310-rsm0-rcm44-esm29-rsr0-rcr100-esr29.npz,,,,,0,45,45,398,,,right,red,4.52,382.8994700908661,383.3474071025848,,1,,3,9,brightness,readingArea,realistic,75,2023-03-20_14h14.56.297,tripletExp_regina_11082022,2022.2.4,120.3399342395951,
10,11,5,0,0.694444444444444,1.0,0,1.0,1.0,0,1.0,0.298245614035088,ReadingArea_rsl0-rcl69-esl100-rsm0-rcm100-esm100-rsr0-rcr100-esr29,exr/ReadingArea_rsl0-rcl69-esl100-rsm0-rcm100-esm100-rsr0-rcr100-esr29.exr,ReadingArea_rsl0-rcl69-esl100-rsm0-rcm100-esm100-rsr0-rcr100-esr29.npz,,,,,0,46,46,514,,,left,green,0.94,385.0662679672241,385.5101270675659,,1,,3,9,brightness,readingArea,realistic,75,2023-03-20_14h14.56.297,tripletExp_regina_11082022,2022.2.4,120.3399342395951,
0,7,9,0,0.027777777777778,0.298245614035088,0,0.111111111111111,1.0,0,0.444444444444444,1.0,ReadingArea_rsl0-rcl2-esl29-rsm0-rcm11-esm100-rsr0-rcr44-esr100,exr/ReadingArea_rsl0-rcl2-esl29-rsm0-rcm11-esm100-rsr0-rcr44-esr100.exr,ReadingArea_rsl0-rcl2-esl29-rsm0-rcm11-esm100-rsr0-rcr44-esr100.npz,,,,,0,47,47,463,,,right,red,0.67,387.2156069278717,387.6542670726776,,1,,3,9,brightness,readingArea,realistic,75,2023-03-20_14h14.56.297,tripletExp_regina_11082022,2022.2.4,120.3399342395951,
7,8,6,0,0.111111111111111,1.0,0,0.25,1.0,0,0.027777777777778,1.0,ReadingArea_rsl0-rcl11-esl100-rsm0-rcm25-esm100-rsr0-rcr2-esr100,exr/ReadingArea_rsl0-rcl11-esl100-rsm0-rcm25-esm100-rsr0-rcr2-esr100.exr,ReadingArea_rsl0-rcl11-esl100-rsm0-rcm25-esm100-rsr0-rcr2-esr100.npz,,,,,0,48,48,387,,,left,green,1.0,389.3645091056824,389.8025541305542,,1,,3,9,brightness,readingArea,realistic,75,2023-03-20_14h14.56.297,tripletExp_regina_11082022,2022.2.4,120.3399342395951,
5,7,14,0,1.0,0.298245614035088,0,0.111111111111111,1.0,0,0.25,3.10526315789474,ReadingArea_rsl0-rcl100-esl29-rsm0-rcm11-esm100-rsr0-rcr25-esr310,exr/ReadingArea_rsl0-rcl100-esl29-rsm0-rcm11-esm100-rsr0-rcr25-esr310.exr,ReadingArea_rsl0-rcl100-esl29-rsm0-rcm11-esm100-rsr0-rcr25-esr310.npz,,,,,0,49,49,210,,,left,green,1.42,391.49285197258,391.93004608154297,,1,,3,9,brightness,readingArea,realistic,75,2023-03-20_14h14.56.297,tripletExp_regina_11082022,2022.2.4,120.3399342395951,
11,4,2,0,1.0,1.0,0,0.694444444444444,0.298245614035088,0,0.25,0.298245614035088,ReadingArea_rsl0-rcl100-esl100-rsm0-rcm69-esm29-rsr0-rcr25-esr29,exr/ReadingArea_rsl0-rcl100-esl100-rsm0-rcm69-esm29-rsr0-rcr25-esr29.exr,ReadingArea_rsl0-rcl100-esl100-rsm0-rcm69-esm29-rsr0-rcr25-esr29.npz,,,,,0,50,50,280,,,right,red,4.59,397.17852210998535,397.6225430965424,,1,,3,9,brightness,readingArea,realistic,75,2023-03-20_14h14.56.297,tripletExp_regina_11082022,2022.2.4,120.3399342395951,
4,3,10,0,0.694444444444444,0.298245614035088,0,0.444444444444444,0.298245614035088,0,0.694444444444444,1.0,ReadingArea_rsl0-rcl69-esl29-rsm0-rcm44-esm29-rsr0-rcr69-esr100,exr/ReadingArea_rsl0-rcl69-esl29-rsm0-rcm44-esm29-rsr0-rcr69-esr100.exr,ReadingArea_rsl0-rcl69-esl29-rsm0-rcm44-esm29-rsr0-rcr69-esr100.npz,,,,,0,51,51,371,,,left,green,0.69,399.3437340259552,399.7509779930115,,1,,3,9,brightness,readingArea,realistic,75,2023-03-20_14h14.56.297,tripletExp_regina_11082022,2022.2.4,120.3399342395951,
1,7,8,0,0.111111111111111,0.298245614035088,0,0.111111111111111,1.0,0,0.25,1.0,ReadingArea_rsl0-rcl11-esl29-rsm0-rcm11-esm100-rsr0-rcr25-esr100,exr/ReadingArea_rsl0-rcl11-esl29-rsm0-rcm11-esm100-rsr0-rcr25-esr100.exr,ReadingArea_rsl0-rcl11-esl29-rsm0-rcm11-esm100-rsr0-rcr25-esr100.npz,,,,,0,52,52,260,,,right,red,0.64,401.4490349292755,401.89462900161743,,1,,3,9,brightness,readingArea,realistic,75,2023-03-20_14h14.56.297,tripletExp_regina_11082022,2022.2.4,120.3399342395951,
5,14,11,0,1.0,0.298245614035088,0,0.25,3.10526315789474,0,1.0,1.0,ReadingArea_rsl0-rcl100-esl29-rsm0-rcm25-esm310-rsr0-rcr100-esr100,exr/ReadingArea_rsl0-rcl100-esl29-rsm0-rcm25-esm310-rsr0-rcr100-esr100.exr,ReadingArea_rsl0-rcl100-esl29-rsm0-rcm25-esm310-rsr0-rcr100-esr100.npz,,,,,0,53,53,98,,,right,red,0.82,403.5904641151428,404.0280051231384,,1,,3,9,brightness,readingArea,realistic,75,2023-03-20_14h14.56.297,tripletExp_regina_11082022,2022.2.4,120.3399342395951,
12,5,10,0,0.027777777777778,3.10526315789474,0,1.0,0.298245614035088,0,0.694444444444444,1.0,ReadingArea_rsl0-rcl2-esl310-rsm0-rcm100-esm29-rsr0-rcr69-esr100,exr/ReadingArea_rsl0-rcl2-esl310-rsm0-rcm100-esm29-rsr0-rcr69-esr100.exr,ReadingArea_rsl0-rcl2-esl310-rsm0-rcm100-esm29-rsr0-rcr69-esr100.npz,,,,,0,54,54,493,,,right,red,1.56,405.7231960296631,406.30902194976807,,1,,3,9,brightness,readingArea,realistic,75,2023-03-20_14h14.56.297,tripletExp_regina_11082022,2022.2.4,120.3399342395951,
3,6,11,0,0.444444444444444,0.298245614035088,0,0.027777777777778,1.0,0,1.0,1.0,ReadingArea_rsl0-rcl44-esl29-rsm0-rcm2-esm100-rsr0-rcr100-esr100,exr/ReadingArea_rsl0-rcl44-esl29-rsm0-rcm2-esm100-rsr0-rcr100-esr100.exr,ReadingArea_rsl0-rcl44-esl29-rsm0-rcm2-esm100-rsr0-rcr100-esr100.npz,,,,,0,55,55,155,,,left,green,0.99,408.0053310394287,408.4379749298096,,1,,3,9,brightness,readingArea,realistic,75,2023-03-20_14h14.56.297,tripletExp_regina_11082022,2022.2.4,120.3399342395951,
0,14,6,0,0.027777777777778,0.298245614035088,0,0.25,3.10526315789474,0,0.027777777777778,1.0,ReadingArea_rsl0-rcl2-esl29-rsm0-rcm25-esm310-rsr0-rcr2-esr100,exr/ReadingArea_rsl0-rcl2-esl29-rsm0-rcm25-esm310-rsr0-rcr2-esr100.exr,ReadingArea_rsl0-rcl2-esl29-rsm0-rcm25-esm310-rsr0-rcr2-esr100.npz,,,,,0,56,56,499,,,right,red,0.73,410.1277401447296,410.5600390434265,,1,,3,9,brightness,readingArea,realistic,75,2023-03-20_14h14.56.297,tripletExp_regina_11082022,2022.2.4,120.3399342395951,
11,14,2,0,1.0,1.0,0,0.25,3.10526315789474,0,0.25,0.298245614035088,ReadingArea_rsl0-rcl100-esl100-rsm0-rcm25-esm310-rsr0-rcr25-esr29,exr/ReadingArea_rsl0-rcl100-esl100-rsm0-rcm25-esm310-rsr0-rcr25-esr29.exr,ReadingArea_rsl0-rcl100-esl100-rsm0-rcm25-esm310-rsr0-rcr25-esr29.npz,,,,,0,57,57,419,,,left,green,0.6,412.2788410186768,412.7151861190796,,1,,3,9,brightness,readingArea,realistic,75,2023-03-20_14h14.56.297,tripletExp_regina_11082022,2022.2.4,120.3399342395951,
3,0,4,0,0.444444444444444,0.298245614035088,0,0.027777777777778,0.298245614035088,0,0.694444444444444,0.298245614035088,ReadingArea_rsl0-rcl44-esl29-rsm0-rcm2-esm29-rsr0-rcr69-esr29,exr/ReadingArea_rsl0-rcl44-esl29-rsm0-rcm2-esm29-rsr0-rcr69-esr29.exr,ReadingArea_rsl0-rcl44-esl29-rsm0-rcm2-esm29-rsr0-rcr69-esr29.npz,,,,,0,58,58,111,,,left,green,3.19,416.17782497406006,416.6092619895935,,1,,3,9,brightness,readingArea,realistic,75,2023-03-20_14h14.56.297,tripletExp_regina_11082022,2022.2.4,120.3399342395951,
12,6,7,0,0.027777777777778,3.10526315789474,0,0.027777777777778,1.0,0,0.111111111111111,1.0,ReadingArea_rsl0-rcl2-esl310-rsm0-rcm2-esm100-rsr0-rcr11-esr100,exr/ReadingArea_rsl0-rcl2-esl310-rsm0-rcm2-esm100-rsr0-rcr11-esr100.exr,ReadingArea_rsl0-rcl2-esl310-rsm0-rcm2-esm100-rsr0-rcr11-esr100.npz,,,,,0,59,59,308,,,left,green,1.36,418.299623966217,,,1,,3,9,brightness,readingArea,realistic,75,2023-03-20_14h14.56.297,tripletExp_regina_11082022,2022.2.4,120.3399342395951,
12,10,6,0,0.027777777777778,3.10526315789474,0,0.694444444444444,1.0,0,0.027777777777778,1.0,ReadingArea_rsl0-rcl2-esl310-rsm0-rcm69-esm100-rsr0-rcr2-esr100,exr/ReadingArea_rsl0-rcl2-esl310-rsm0-rcm69-esm100-rsr0-rcr2-esr100.exr,ReadingArea_rsl0-rcl2-esl310-rsm0-rcm69-esm100-rsr0-rcr2-esr100.npz,,,,,0,60,60,273,,,left,green,1.52,420.4245171546936,420.8316459655762,,1,,3,9,brightness,readingArea,realistic,75,2023-03-20_14h14.56.297,tripletExp_regina_11082022,2022.2.4,120.3399342395951,
13,8,5,0,0.111111111111111,3.10526315789474,0,0.25,1.0,0,1.0,0.298245614035088,ReadingArea_rsl0-rcl11-esl310-rsm0-rcm25-esm100-rsr0-rcr100-esr29,exr/ReadingArea_rsl0-rcl11-esl310-rsm0-rcm25-esm100-rsr0-rcr100-esr29.exr,ReadingArea_rsl0-rcl11-esl310-rsm0-rcm25-esm100-rsr0-rcr100-esr29.npz,,,,,0,61,61,209,,,left,green,3.38,424.2911269664765,424.7355329990387,,1,,3,9,brightness,readingArea,realistic,75,2023-03-20_14h14.56.297,tripletExp_regina_11082022,2022.2.4,120.3399342395951,
7,13,5,0,0.111111111111111,1.0,0,0.111111111111111,3.10526315789474,0,1.0,0.298245614035088,ReadingArea_rsl0-rcl11-esl100-rsm0-rcm11-esm310-rsr0-rcr100-esr29,exr/ReadingArea_rsl0-rcl11-esl100-rsm0-rcm11-esm310-rsr0-rcr100-esr29.exr,ReadingArea_rsl0-rcl11-esl100-rsm0-rcm11-esm310-rsr0-rcr100-esr29.npz,,,,,0,62,62,332,,,right,red,1.51,426.4283471107483,426.89446115493774,,1,,3,9,brightness,readingArea,realistic,75,2023-03-20_14h14.56.297,tripletExp_regina_11082022,2022.2.4,120.3399342395951,
6,5,0,0,0.027777777777778,1.0,0,1.0,0.298245614035088,0,0.027777777777778,0.298245614035088,ReadingArea_rsl0-rcl2-esl100-rsm0-rcm100-esm29-rsr0-rcr2-esr29,exr/ReadingArea_rsl0-rcl2-esl100-rsm0-rcm100-esm29-rsr0-rcr2-esr29.exr,ReadingArea_rsl0-rcl2-esl100-rsm0-rcm100-esm29-rsr0-rcr2-esr29.npz,,,,,0,63,63,558,,,left,green,3.05,430.3558371067047,430.7966129779816,,1,,3,9,brightness,readingArea,realistic,75,2023-03-20_14h14.56.297,tripletExp_regina_11082022,2022.2.4,120.3399342395951,
13,3,12,0,0.111111111111111,3.10526315789474,0,0.444444444444444,0.298245614035088,0,0.027777777777778,3.10526315789474,ReadingArea_rsl0-rcl11-esl310-rsm0-rcm44-esm29-rsr0-rcr2-esr310,exr/ReadingArea_rsl0-rcl11-esl310-rsm0-rcm44-esm29-rsr0-rcr2-esr310.exr,ReadingArea_rsl0-rcl11-esl310-rsm0-rcm44-esm29-rsr0-rcr2-esr310.npz,,,,,0,64,64,80,,,right,red,1.5,432.5175609588623,432.9521589279175,,1,,3,9,brightness,readingArea,realistic,75,2023-03-20_14h14.56.297,tripletExp_regina_11082022,2022.2.4,120.3399342395951,
7,14,10,0,0.111111111111111,1.0,0,0.25,3.10526315789474,0,0.694444444444444,1.0,ReadingArea_rsl0-rcl11-esl100-rsm0-rcm25-esm310-rsr0-rcr69-esr100,exr/ReadingArea_rsl0-rcl11-esl100-rsm0-rcm25-esm310-rsr0-rcr69-esr100.exr,ReadingArea_rsl0-rcl11-esl100-rsm0-rcm25-esm310-rsr0-rcr69-esr100.npz,,,,,0,65,65,472,,,right,red,0.9,434.6500539779663,435.07462310791016,,1,,3,9,brightness,readingArea,realistic,75,2023-03-20_14h14.56.297,tripletExp_regina_11082022,2022.2.4,120.3399342395951,
12,8,10,0,0.027777777777778,3.10526315789474,0,0.25,1.0,0,0.694444444444444,1.0,ReadingArea_rsl0-rcl2-esl310-rsm0-rcm25-esm100-rsr0-rcr69-esr100,exr/ReadingArea_rsl0-rcl2-esl310-rsm0-rcm25-esm100-rsr0-rcr69-esr100.exr,ReadingArea_rsl0-rcl2-esl310-rsm0-rcm25-esm100-rsr0-rcr69-esr100.npz,,,,,0,66,66,216,,,right,red,0.67,436.77559208869934,437.2070300579071,,1,,3,9,brightness,readingArea,realistic,75,2023-03-20_14h14.56.297,tripletExp_regina_11082022,2022.2.4,120.3399342395951,
9,11,3,0,0.444444444444444,1.0,0,1.0,1.0,0,0.444444444444444,0.298245614035088,ReadingArea_rsl0-rcl44-esl100-rsm0-rcm100-esm100-rsr0-rcr44-esr29,exr/ReadingArea_rsl0-rcl44-esl100-rsm0-rcm100-esm100-rsr0-rcr44-esr29.exr,ReadingArea_rsl0-rcl44-esl100-rsm0-rcm100-esm100-rsr0-rcr44-esr29.npz,,,,,0,67,67,348,,,left,green,0.98,438.9019060134888,439.3368170261383,,1,,3,9,brightness,readingArea,realistic,75,2023-03-20_14h14.56.297,tripletExp_regina_11082022,2022.2.4,120.3399342395951,
2,3,13,0,0.25,0.298245614035088,0,0.444444444444444,0.298245614035088,0,0.111111111111111,3.10526315789474,ReadingArea_rsl0-rcl25-esl29-rsm0-rcm44-esm29-rsr0-rcr11-esr310,exr/ReadingArea_rsl0-rcl25-esl29-rsm0-rcm44-esm29-rsr0-rcr11-esr310.exr,ReadingArea_rsl0-rcl25-esl29-rsm0-rcm44-esm29-rsr0-rcr11-esr310.npz,,,,,0,68,68,498,,,right,red,4.89,444.5846600532532,445.0218420028687,,1,,3,9,brightness,readingArea,realistic,75,2023-03-20_14h14.56.297,tripletExp_regina_11082022,2022.2.4,120.3399342395951,
7,6,11,0,0.111111111111111,1.0,0,0.027777777777778,1.0,0,1.0,1.0,ReadingArea_rsl0-rcl11-esl100-rsm0-rcm2-esm100-rsr0-rcr100-esr100,exr/ReadingArea_rsl0-rcl11-esl100-rsm0-rcm2-esm100-rsr0-rcr100-esr100.exr,ReadingArea_rsl0-rcl11-esl100-rsm0-rcm2-esm100-rsr0-rcr100-esr100.npz,,,,,0,69,69,84,,,left,green,0.73,446.7395250797272,447.1974539756775,,1,,3,9,brightness,readingArea,realistic,75,2023-03-20_14h14.56.297,tripletExp_regina_11082022,2022.2.4,120.3399342395951,
10,5,4,0,0.694444444444444,1.0,0,1.0,0.298245614035088,0,0.694444444444444,0.298245614035088,ReadingArea_rsl0-rcl69-esl100-rsm0-rcm100-esm29-rsr0-rcr69-esr29,exr/ReadingArea_rsl0-rcl69-esl100-rsm0-rcm100-esm29-rsr0-rcr69-esr29.exr,ReadingArea_rsl0-rcl69-esl100-rsm0-rcm100-esm29-rsr0-rcr69-esr29.npz,,,,,0,70,70,455,,,right,red,3.09,450.6851680278778,451.15292096138,,1,,3,9,brightness,readingArea,realistic,75,2023-03-20_14h14.56.297,tripletExp_regina_11082022,2022.2.4,120.3399342395951,
2,1,14,0,0.25,0.298245614035088,0,0.111111111111111,0.298245614035088,0,0.25,3.10526315789474,ReadingArea_rsl0-rcl25-esl29-rsm0-rcm11-esm29-rsr0-rcr25-esr310,exr/ReadingArea_rsl0-rcl25-esl29-rsm0-rcm11-esm29-rsr0-rcr25-esr310.exr,ReadingArea_rsl0-rcl25-esl29-rsm0-rcm11-esm29-rsr0-rcr25-esr310.npz,,,,,0,71,71,59,,,left,green,0.83,452.8671910762787,453.3072781562805,,1,,3,9,brightness,readingArea,realistic,75,2023-03-20_14h14.56.297,tripletExp_regina_11082022,2022.2.4,120.3399342395951,
7,12,2,0,0.111111111111111,1.0,0,0.027777777777778,3.10526315789474,0,0.25,0.298245614035088,ReadingArea_rsl0-rcl11-esl100-rsm0-rcm2-esm310-rsr0-rcr25-esr29,exr/ReadingArea_rsl0-rcl11-esl100-rsm0-rcm2-esm310-rsr0-rcr25-esr29.exr,ReadingArea_rsl0-rcl11-esl100-rsm0-rcm2-esm310-rsr0-rcr25-esr29.npz,,,,,0,72,72,72,,,right,red,1.64,455.0251920223236,455.4530560970306,,1,,3,9,brightness,readingArea,realistic,75,2023-03-20_14h14.56.297,tripletExp_regina_11082022,2022.2.4,120.3399342395951,
13,7,11,0,0.111111111111111,3.10526315789474,0,0.111111111111111,1.0,0,1.0,1.0,ReadingArea_rsl0-rcl11-esl310-rsm0-rcm11-esm100-rsr0-rcr100-esr100,exr/ReadingArea_rsl0-rcl11-esl310-rsm0-rcm11-esm100-rsr0-rcr100-esr100.exr,ReadingArea_rsl0-rcl11-esl310-rsm0-rcm11-esm100-rsr0-rcr100-esr100.npz,,,,,0,73,73,121,,,left,green,0.96,457.146849155426,457.743411064148,,1,,3,9,brightness,readingArea,realistic,75,2023-03-20_14h14.56.297,tripletExp_regina_11082022,2022.2.4,120.3399342395951,
3,13,1,0,0.444444444444444,0.298245614035088,0,0.111111111111111,3.10526315789474,0,0.111111111111111,0.298245614035088,ReadingArea_rsl0-rcl44-esl29-rsm0-rcm11-esm310-rsr0-rcr11-esr29,exr/ReadingArea_rsl0-rcl44-esl29-rsm0-rcm11-esm310-rsr0-rcr11-esr29.exr,ReadingArea_rsl0-rcl44-esl29-rsm0-rcm11-esm310-rsr0-rcr11-esr29.npz,,,,,0,74,74,421,,,left,green,1.21,459.435173034668,459.638111114502,,1,,3,9,brightness,readingArea,realistic,75,2023-03-20_14h14.56.297,tripletExp_regina_11082022,2022.2.4,120.3399342395951,
13,6,0,0,0.111111111111111,3.10526315789474,0,0.027777777777778,1.0,0,0.027777777777778,0.298245614035088,ReadingArea_rsl0-rcl11-esl310-rsm0-rcm2-esm100-rsr0-rcr2-esr29,exr/ReadingArea_rsl0-rcl11-esl310-rsm0-rcm2-esm100-rsr0-rcr2-esr29.exr,ReadingArea_rsl0-rcl11-esl310-rsm0-rcm2-esm100-rsr0-rcr2-esr29.npz,,,,,0,75,75,309,,,right,red,0.98,470.7775919437408,471.2187340259552,,2,,3,9,brightness,readingArea,realistic,75,2023-03-20_14h14.56.297,tripletExp_regina_11082022,2022.2.4,120.3399342395951,
2,11,5,0,0.25,0.298245614035088,0,1.0,1.0,0,1.0,0.298245614035088,ReadingArea_rsl0-rcl25-esl29-rsm0-rcm100-esm100-rsr0-rcr100-esr29,exr/ReadingArea_rsl0-rcl25-esl29-rsm0-rcm100-esm100-rsr0-rcr100-esr29.exr,ReadingArea_rsl0-rcl25-esl29-rsm0-rcm100-esm100-rsr0-rcr100-esr29.npz,,,,,0,76,76,491,,,right,red,0.81,472.93157601356506,473.37890005111694,,2,,3,9,brightness,readingArea,realistic,75,2023-03-20_14h14.56.297,tripletExp_regina_11082022,2022.2.4,120.3399342395951,
0,9,10,0,0.027777777777778,0.298245614035088,0,0.444444444444444,1.0,0,0.694444444444444,1.0,ReadingArea_rsl0-rcl2-esl29-rsm0-rcm44-esm100-rsr0-rcr69-esr100,exr/ReadingArea_rsl0-rcl2-esl29-rsm0-rcm44-esm100-rsr0-rcr69-esr100.exr,ReadingArea_rsl0-rcl2-esl29-rsm0-rcm44-esm100-rsr0-rcr69-esr100.npz,,,,,0,77,77,434,,,right,red,0.67,475.07316613197327,475.5240650177002,,2,,3,9,brightness,readingArea,realistic,75,2023-03-20_14h14.56.297,tripletExp_regina_11082022,2022.2.4,120.3399342395951,
14,13,0,0,0.25,3.10526315789474,0,0.111111111111111,3.10526315789474,0,0.027777777777778,0.298245614035088,ReadingArea_rsl0-rcl25-esl310-rsm0-rcm11-esm310-rsr0-rcr2-esr29,exr/ReadingArea_rsl0-rcl25-esl310-rsm0-rcm11-esm310-rsr0-rcr2-esr29.exr,ReadingArea_rsl0-rcl25-esl310-rsm0-rcm11-esm310-rsr0-rcr2-esr29.npz,,,,,0,78,78,417,,,left,green,0.85,477.22832703590393,477.7498409748077,,2,,3,9,brightness,readingArea,realistic,75,2023-03-20_14h14.56.297,tripletExp_regina_11082022,2022.2.4,120.3399342395951,
3,4,5,0,0.444444444444444,0.298245614035088,0,0.694444444444444,0.298245614035088,0,1.0,0.298245614035088,ReadingArea_rsl0-rcl44-esl29-rsm0-rcm69-esm29-rsr0-rcr100-esr29,exr/ReadingArea_rsl0-rcl44-esl29-rsm0-rcm69-esm29-rsr0-rcr100-esr29.exr,ReadingArea_rsl0-rcl44-esl29-rsm0-rcm69-esm29-rsr0-rcr100-esr29.npz,,,,,0,79,79,233,,,right,red,3.01,481.2344019412994,,,2,,3,9,brightness,readingArea,realistic,75,2023-03-20_14h14.56.297,tripletExp_regina_11082022,2022.2.4,120.3399342395951,
13,7,6,0,0.111111111111111,3.10526315789474,0,0.111111111111111,1.0,0,0.027777777777778,1.0,ReadingArea_rsl0-rcl11-esl310-rsm0-rcm11-esm100-rsr0-rcr2-esr100,exr/ReadingArea_rsl0-rcl11-esl310-rsm0-rcm11-esm100-rsr0-rcr2-esr100.exr,ReadingArea_rsl0-rcl11-esl310-rsm0-rcm11-esm100-rsr0-rcr2-esr100.npz,,,,,0,80,80,283,,,left,green,1.49,483.3927750587464,483.83363103866577,,2,,3,9,brightness,readingArea,realistic,75,2023-03-20_14h14.56.297,tripletExp_regina_11082022,2022.2.4,120.3399342395951,
3,6,5,0,0.444444444444444,0.298245614035088,0,0.027777777777778,1.0,0,1.0,0.298245614035088,ReadingArea_rsl0-rcl44-esl29-rsm0-rcm2-esm100-rsr0-rcr100-esr29,exr/ReadingArea_rsl0-rcl44-esl29-rsm0-rcm2-esm100-rsr0-rcr100-esr29.exr,ReadingArea_rsl0-rcl44-esl29-rsm0-rcm2-esm100-rsr0-rcr100-esr29.npz,,,,,0,81,81,274,,,left,green,1.03,485.5332119464874,485.9836149215698,,2,,3,9,brightness,readingArea,realistic,75,2023-03-20_14h14.56.297,tripletExp_regina_11082022,2022.2.4,120.3399342395951,
1,11,12,0,0.111111111111111,0.298245614035088,0,1.0,1.0,0,0.027777777777778,3.10526315789474,ReadingArea_rsl0-rcl11-esl29-rsm0-rcm100-esm100-rsr0-rcr2-esr310,exr/ReadingArea_rsl0-rcl11-esl29-rsm0-rcm100-esm100-rsr0-rcr2-esr310.exr,ReadingArea_rsl0-rcl11-esl29-rsm0-rcm100-esm100-rsr0-rcr2-esr310.npz,,,,,0,82,82,288,,,right,red,0.69,487.6730761528015,488.1010000705719,,2,,3,9,brightness,readingArea,realistic,75,2023-03-20_14h14.56.297,tripletExp_regina_11082022,2022.2.4,120.3399342395951,
2,5,14,0,0.25,0.298245614035088,0,1.0,0.298245614035088,0,0.25,3.10526315789474,ReadingArea_rsl0-rcl25-esl29-rsm0-rcm100-esm29-rsr0-rcr25-esr310,exr/ReadingArea_rsl0-rcl25-esl29-rsm0-rcm100-esm29-rsr0-rcr25-esr310.exr,ReadingArea_rsl0-rcl25-esl29-rsm0-rcm100-esm29-rsr0-rcr25-esr310.npz,,,,,0,83,83,390,,,right,red,0.68,489.8216979503632,490.2654390335083,,2,,3,9,brightness,readingArea,realistic,75,2023-03-20_14h14.56.297,tripletExp_regina_11082022,2022.2.4,120.3399342395951,
14,12,9,0,0.25,3.10526315789474,0,0.027777777777778,3.10526315789474,0,0.444444444444444,1.0,ReadingArea_rsl0-rcl25-esl310-rsm0-rcm2-esm310-rsr0-rcr44-esr100,exr/ReadingArea_rsl0-rcl25-esl310-rsm0-rcm2-esm310-rsr0-rcr44-esr100.exr,ReadingArea_rsl0-rcl25-esl310-rsm0-rcm2-esm310-rsr0-rcr44-esr100.npz,,,,,0,84,84,40,,,right,red,1.22,491.9858341217041,,,2,,3,9,brightness,readingArea,realistic,75,2023-03-20_14h14.56.297,tripletExp_regina_11082022,2022.2.4,120.3399342395951,
12,13,14,0,0.027777777777778,3.10526315789474,0,0.111111111111111,3.10526315789474,0,0.25,3.10526315789474,ReadingArea_rsl0-rcl2-esl310-rsm0-rcm11-esm310-rsr0-rcr25-esr310,exr/ReadingArea_rsl0-rcl2-esl310-rsm0-rcm11-esm310-rsr0-rcr25-esr310.exr,ReadingArea_rsl0-rcl2-esl310-rsm0-rcm11-esm310-rsr0-rcr25-esr310.npz,,,,,0,85,85,208,,,right,red,0.78,494.1283121109009,,,2,,3,9,brightness,readingArea,realistic,75,2023-03-20_14h14.56.297,tripletExp_regina_11082022,2022.2.4,120.3399342395951,
5,3,2,0,1.0,0.298245614035088,0,0.444444444444444,0.298245614035088,0,0.25,0.298245614035088,ReadingArea_rsl0-rcl100-esl29-rsm0-rcm44-esm29-rsr0-rcr25-esr29,exr/ReadingArea_rsl0-rcl100-esl29-rsm0-rcm44-esm29-rsr0-rcr25-esr29.exr,ReadingArea_rsl0-rcl100-esl29-rsm0-rcm44-esm29-rsr0-rcr25-esr29.npz,,,,,0,86,86,143,,,left,green,0.97,496.2796919345856,496.6984510421753,,2,,3,9,brightness,readingArea,realistic,75,2023-03-20_14h14.56.297,tripletExp_regina_11082022,2022.2.4,120.3399342395951,
13,11,7,0,0.111111111111111,3.10526315789474,0,1.0,1.0,0,0.111111111111111,1.0,ReadingArea_rsl0-rcl11-esl310-rsm0-rcm100-esm100-rsr0-rcr11-esr100,exr/ReadingArea_rsl0-rcl11-esl310-rsm0-rcm100-esm100-rsr0-rcr11-esr100.exr,ReadingArea_rsl0-rcl11-esl310-rsm0-rcm100-esm100-rsr0-rcr11-esr100.npz,,,,,0,87,87,590,,,left,green,1.27,498.3970251083374,498.841845035553,,2,,3,9,brightness,readingArea,realistic,75,2023-03-20_14h14.56.297,tripletExp_regina_11082022,2022.2.4,120.3399342395951,
1,13,11,0,0.111111111111111,0.298245614035088,0,0.111111111111111,3.10526315789474,0,1.0,1.0,ReadingArea_rsl0-rcl11-esl29-rsm0-rcm11-esm310-rsr0-rcr100-esr100,exr/ReadingArea_rsl0-rcl11-esl29-rsm0-rcm11-esm310-rsr0-rcr100-esr100.exr,ReadingArea_rsl0-rcl11-esl29-rsm0-rcm11-esm310-rsr0-rcr100-esr100.npz,,,,,0,88,88,333,,,left,green,3.0,502.3094201087952,502.7580020427704,,2,,3,9,brightness,readingArea,realistic,75,2023-03-20_14h14.56.297,tripletExp_regina_11082022,2022.2.4,120.3399342395951,
1,13,14,0,0.111111111111111,0.298245614035088,0,0.111111111111111,3.10526315789474,0,0.25,3.10526315789474,ReadingArea_rsl0-rcl11-esl29-rsm0-rcm11-esm310-rsr0-rcr25-esr310,exr/ReadingArea_rsl0-rcl11-esl29-rsm0-rcm11-esm310-rsr0-rcr25-esr310.exr,ReadingArea_rsl0-rcl11-esl29-rsm0-rcm11-esm310-rsr0-rcr25-esr310.npz,,,,,0,89,89,183,,,right,red,3.13,506.2246279716492,506.6457440853119,,2,,3,9,brightness,readingArea,realistic,75,2023-03-20_14h14.56.297,tripletExp_regina_11082022,2022.2.4,120.3399342395951,
9,11,13,0,0.444444444444444,1.0,0,1.0,1.0,0,0.111111111111111,3.10526315789474,ReadingArea_rsl0-rcl44-esl100-rsm0-rcm100-esm100-rsr0-rcr11-esr310,exr/ReadingArea_rsl0-rcl44-esl100-rsm0-rcm100-esm100-rsr0-rcr11-esr310.exr,ReadingArea_rsl0-rcl44-esl100-rsm0-rcm100-esm100-rsr0-rcr11-esr310.npz,,,,,0,90,90,254,,,left,green,1.33,508.3353400230408,508.9431729316712,,2,,3,9,brightness,readingArea,realistic,75,2023-03-20_14h14.56.297,tripletExp_regina_11082022,2022.2.4,120.3399342395951,
13,1,4,0,0.111111111111111,3.10526315789474,0,0.111111111111111,0.298245614035088,0,0.694444444444444,0.298245614035088,ReadingArea_rsl0-rcl11-esl310-rsm0-rcm11-esm29-rsr0-rcr69-esr29,exr/ReadingArea_rsl0-rcl11-esl310-rsm0-rcm11-esm29-rsr0-rcr69-esr29.exr,ReadingArea_rsl0-rcl11-esl310-rsm0-rcm11-esm29-rsr0-rcr69-esr29.npz,,,,,0,91,91,396,,,right,red,2.89,512.4175879955292,512.8664541244507,,2,,3,9,brightness,readingArea,realistic,75,2023-03-20_14h14.56.297,tripletExp_regina_11082022,2022.2.4,120.3399342395951,
5,0,11,0,1.0,0.298245614035088,0,0.027777777777778,0.298245614035088,0,1.0,1.0,ReadingArea_rsl0-rcl100-esl29-rsm0-rcm2-esm29-rsr0-rcr100-esr100,exr/ReadingArea_rsl0-rcl100-esl29-rsm0-rcm2-esm29-rsr0-rcr100-esr100.exr,ReadingArea_rsl0-rcl100-esl29-rsm0-rcm2-esm29-rsr0-rcr100-esr100.npz,,,,,0,92,92,547,,,left,green,1.13,514.5595819950104,515.0994169712067,,2,,3,9,brightness,readingArea,realistic,75,2023-03-20_14h14.56.297,tripletExp_regina_11082022,2022.2.4,120.3399342395951,
13,6,1,0,0.111111111111111,3.10526315789474,0,0.027777777777778,1.0,0,0.111111111111111,0.298245614035088,ReadingArea_rsl0-rcl11-esl310-rsm0-rcm2-esm100-rsr0-rcr11-esr29,exr/ReadingArea_rsl0-rcl11-esl310-rsm0-rcm2-esm100-rsr0-rcr11-esr29.exr,ReadingArea_rsl0-rcl11-esl310-rsm0-rcm2-esm100-rsr0-rcr11-esr29.npz,,,,,0,93,93,486,,,right,red,1.04,516.7959039211273,517.2388579845428,,2,,3,9,brightness,readingArea,realistic,75,2023-03-20_14h14.56.297,tripletExp_regina_11082022,2022.2.4,120.3399342395951,
2,1,13,0,0.25,0.298245614035088,0,0.111111111111111,0.298245614035088,0,0.111111111111111,3.10526315789474,ReadingArea_rsl0-rcl25-esl29-rsm0-rcm11-esm29-rsr0-rcr11-esr310,exr/ReadingArea_rsl0-rcl25-esl29-rsm0-rcm11-esm29-rsr0-rcr11-esr310.exr,ReadingArea_rsl0-rcl25-esl29-rsm0-rcm11-esm29-rsr0-rcr11-esr310.npz,,,,,0,94,94,290,,,left,green,0.71,518.9304950237274,519.4644610881805,,2,,3,9,brightness,readingArea,realistic,75,2023-03-20_14h14.56.297,tripletExp_regina_11082022,2022.2.4,120.3399342395951,
7,3,0,0,0.111111111111111,1.0,0,0.444444444444444,0.298245614035088,0,0.027777777777778,0.298245614035088,ReadingArea_rsl0-rcl11-esl100-rsm0-rcm44-esm29-rsr0-rcr2-esr29,exr/ReadingArea_rsl0-rcl11-esl100-rsm0-rcm44-esm29-rsr0-rcr2-esr29.exr,ReadingArea_rsl0-rcl11-esl100-rsm0-rcm44-esm29-rsr0-rcr2-esr29.npz,,,,,0,95,95,318,,,left,green,0.89,521.1562330722809,521.592581987381,,2,,3,9,brightness,readingArea,realistic,75,2023-03-20_14h14.56.297,tripletExp_regina_11082022,2022.2.4,120.3399342395951,
11,8,10,0,1.0,1.0,0,0.25,1.0,0,0.694444444444444,1.0,ReadingArea_rsl0-rcl100-esl100-rsm0-rcm25-esm100-rsr0-rcr69-esr100,exr/ReadingArea_rsl0-rcl100-esl100-rsm0-rcm25-esm100-rsr0-rcr69-esr100.exr,ReadingArea_rsl0-rcl100-esl100-rsm0-rcm25-esm100-rsr0-rcr69-esr100.npz,,,,,0,96,96,67,,,right,red,1.54,523.2878019809723,523.7164480686188,,2,,3,9,brightness,readingArea,realistic,75,2023-03-20_14h14.56.297,tripletExp_regina_11082022,2022.2.4,120.3399342395951,
0,8,3,0,0.027777777777778,0.298245614035088,0,0.25,1.0,0,0.444444444444444,0.298245614035088,ReadingArea_rsl0-rcl2-esl29-rsm0-rcm25-esm100-rsr0-rcr44-esr29,exr/ReadingArea_rsl0-rcl2-esl29-rsm0-rcm25-esm100-rsr0-rcr44-esr29.exr,ReadingArea_rsl0-rcl2-esl29-rsm0-rcm25-esm100-rsr0-rcr44-esr29.npz,,,,,0,97,97,301,,,right,red,1.16,525.4215090274811,525.8806891441345,,2,,3,9,brightness,readingArea,realistic,75,2023-03-20_14h14.56.297,tripletExp_regina_11082022,2022.2.4,120.3399342395951,
4,2,5,0,0.694444444444444,0.298245614035088,0,0.25,0.298245614035088,0,1.0,0.298245614035088,ReadingArea_rsl0-rcl69-esl29-rsm0-rcm25-esm29-rsr0-rcr100-esr29,exr/ReadingArea_rsl0-rcl69-esl29-rsm0-rcm25-esm29-rsr0-rcr100-esr29.exr,ReadingArea_rsl0-rcl69-esl29-rsm0-rcm25-esm29-rsr0-rcr100-esr29.npz,,,,,0,98,98,101,,,left,green,1.58,527.5795450210571,528.0320720672607,,2,,3,9,brightness,readingArea,realistic,75,2023-03-20_14h14.56.297,tripletExp_regina_11082022,2022.2.4,120.3399342395951,
13,0,9,0,0.111111111111111,3.10526315789474,0,0.027777777777778,0.298245614035088,0,0.444444444444444,1.0,ReadingArea_rsl0-rcl11-esl310-rsm0-rcm2-esm29-rsr0-rcr44-esr100,exr/ReadingArea_rsl0-rcl11-esl310-rsm0-rcm2-esm29-rsr0-rcr44-esr100.exr,ReadingArea_rsl0-rcl11-esl310-rsm0-rcm2-esm29-rsr0-rcr44-esr100.npz,,,,,0,99,99,373,,,left,green,3.34,531.5032861232758,531.9593870639801,,2,,3,9,brightness,readingArea,realistic,75,2023-03-20_14h14.56.297,tripletExp_regina_11082022,2022.2.4,120.3399342395951,
2,11,7,0,0.25,0.298245614035088,0,1.0,1.0,0,0.111111111111111,1.0,ReadingArea_rsl0-rcl25-esl29-rsm0-rcm100-esm100-rsr0-rcr11-esr100,exr/ReadingArea_rsl0-rcl25-esl29-rsm0-rcm100-esm100-rsr0-rcr11-esr100.exr,ReadingArea_rsl0-rcl25-esl29-rsm0-rcm100-esm100-rsr0-rcr11-esr100.npz,,,,,0,100,100,576,,,left,green,3.51,535.45108294487,,,2,,3,9,brightness,readingArea,realistic,75,2023-03-20_14h14.56.297,tripletExp_regina_11082022,2022.2.4,120.3399342395951,
8,7,12,0,0.25,1.0,0,0.111111111111111,1.0,0,0.027777777777778,3.10526315789474,ReadingArea_rsl0-rcl25-esl100-rsm0-rcm11-esm100-rsr0-rcr2-esr310,exr/ReadingArea_rsl0-rcl25-esl100-rsm0-rcm11-esm100-rsr0-rcr2-esr310.exr,ReadingArea_rsl0-rcl25-esl100-rsm0-rcm11-esm100-rsr0-rcr2-esr310.npz,,,,,0,101,101,471,,,right,red,1.6,537.792407989502,538.2270820140839,,2,,3,9,brightness,readingArea,realistic,75,2023-03-20_14h14.56.297,tripletExp_regina_11082022,2022.2.4,120.3399342395951,
3,10,9,0,0.444444444444444,0.298245614035088,0,0.694444444444444,1.0,0,0.444444444444444,1.0,ReadingArea_rsl0-rcl44-esl29-rsm0-rcm69-esm100-rsr0-rcr44-esr100,exr/ReadingArea_rsl0-rcl44-esl29-rsm0-rcm69-esm100-rsr0-rcr44-esr100.exr,ReadingArea_rsl0-rcl44-esl29-rsm0-rcm69-esm100-rsr0-rcr44-esr100.npz,,,,,0,102,102,222,,,right,red,1.04,539.9450089931488,540.394926071167,,2,,3,9,brightness,readingArea,realistic,75,2023-03-20_14h14.56.297,tripletExp_regina_11082022,2022.2.4,120.3399342395951,
6,7,3,0,0.027777777777778,1.0,0,0.111111111111111,1.0,0,0.444444444444444,0.298245614035088,ReadingArea_rsl0-rcl2-esl100-rsm0-rcm11-esm100-rsr0-rcr44-esr29,exr/ReadingArea_rsl0-rcl2-esl100-rsm0-rcm11-esm100-rsr0-rcr44-esr29.exr,ReadingArea_rsl0-rcl2-esl100-rsm0-rcm11-esm100-rsr0-rcr44-esr29.npz,,,,,0,103,103,47,,,right,red,0.75,542.1055510044098,542.5643179416656,,2,,3,9,brightness,readingArea,realistic,75,2023-03-20_14h14.56.297,tripletExp_regina_11082022,2022.2.4,120.3399342395951,
13,10,12,0,0.111111111111111,3.10526315789474,0,0.694444444444444,1.0,0,0.027777777777778,3.10526315789474,ReadingArea_rsl0-rcl11-esl310-rsm0-rcm69-esm100-rsr0-rcr2-esr310,exr/ReadingArea_rsl0-rcl11-esl310-rsm0-rcm69-esm100-rsr0-rcr2-esr310.exr,ReadingArea_rsl0-rcl11-esl310-rsm0-rcm69-esm100-rsr0-rcr2-esr310.npz,,,,,0,104,104,384,,,left,green,1.03,544.2592480182648,544.7117900848389,,2,,3,9,brightness,readingArea,realistic,75,2023-03-20_14h14.56.297,tripletExp_regina_11082022,2022.2.4,120.3399342395951,
5,12,7,0,1.0,0.298245614035088,0,0.027777777777778,3.10526315789474,0,0.111111111111111,1.0,ReadingArea_rsl0-rcl100-esl29-rsm0-rcm2-esm310-rsr0-rcr11-esr100,exr/ReadingArea_rsl0-rcl100-esl29-rsm0-rcm2-esm310-rsr0-rcr11-esr100.exr,ReadingArea_rsl0-rcl100-esl29-rsm0-rcm2-esm310-rsr0-rcr11-esr100.npz,,,,,0,105,105,447,,,right,red,0.96,546.4224939346313,546.8478629589081,,2,,3,9,brightness,readingArea,realistic,75,2023-03-20_14h14.56.297,tripletExp_regina_11082022,2022.2.4,120.3399342395951,
11,8,7,0,1.0,1.0,0,0.25,1.0,0,0.111111111111111,1.0,ReadingArea_rsl0-rcl100-esl100-rsm0-rcm25-esm100-rsr0-rcr11-esr100,exr/ReadingArea_rsl0-rcl100-esl100-rsm0-rcm25-esm100-rsr0-rcr11-esr100.exr,ReadingArea_rsl0-rcl100-esl100-rsm0-rcm25-esm100-rsr0-rcr11-esr100.npz,,,,,0,106,106,105,,,right,red,2.93,550.338860988617,550.7807850837708,,2,,3,9,brightness,readingArea,realistic,75,2023-03-20_14h14.56.297,tripletExp_regina_11082022,2022.2.4,120.3399342395951,
12,5,14,0,0.027777777777778,3.10526315789474,0,1.0,0.298245614035088,0,0.25,3.10526315789474,ReadingArea_rsl0-rcl2-esl310-rsm0-rcm100-esm29-rsr0-rcr25-esr310,exr/ReadingArea_rsl0-rcl2-esl310-rsm0-rcm100-esm29-rsr0-rcr25-esr310.exr,ReadingArea_rsl0-rcl2-esl310-rsm0-rcm100-esm29-rsr0-rcr25-esr310.npz,,,,,0,107,107,193,,,right,red,1.43,552.5003061294556,552.9484579563141,,2,,3,9,brightness,readingArea,realistic,75,2023-03-20_14h14.56.297,tripletExp_regina_11082022,2022.2.4,120.3399342395951,
9,0,8,0,0.444444444444444,1.0,0,0.027777777777778,0.298245614035088,0,0.25,1.0,ReadingArea_rsl0-rcl44-esl100-rsm0-rcm2-esm29-rsr0-rcr25-esr100,exr/ReadingArea_rsl0-rcl44-esl100-rsm0-rcm2-esm29-rsr0-rcr25-esr100.exr,ReadingArea_rsl0-rcl44-esl100-rsm0-rcm2-esm29-rsr0-rcr25-esr100.npz,,,,,0,108,108,27,,,right,red,1.49,554.6706631183624,555.0941369533539,,2,,3,9,brightness,readingArea,realistic,75,2023-03-20_14h14.56.297,tripletExp_regina_11082022,2022.2.4,120.3399342395951,
8,3,9,0,0.25,1.0,0,0.444444444444444,0.298245614035088,0,0.444444444444444,1.0,ReadingArea_rsl0-rcl25-esl100-rsm0-rcm44-esm29-rsr0-rcr44-esr100,exr/ReadingArea_rsl0-rcl25-esl100-rsm0-rcm44-esm29-rsr0-rcr44-esr100.exr,ReadingArea_rsl0-rcl25-esl100-rsm0-rcm44-esm29-rsr0-rcr44-esr100.npz,,,,,0,109,109,15,,,left,green,1.6,556.7955119609833,557.2356691360474,,2,,3,9,brightness,readingArea,realistic,75,2023-03-20_14h14.56.297,tripletExp_regina_11082022,2022.2.4,120.3399342395951,
11,10,0,0,1.0,1.0,0,0.694444444444444,1.0,0,0.027777777777778,0.298245614035088,ReadingArea_rsl0-rcl100-esl100-rsm0-rcm69-esm100-rsr0-rcr2-esr29,exr/ReadingArea_rsl0-rcl100-esl100-rsm0-rcm69-esm100-rsr0-rcr2-esr29.exr,ReadingArea_rsl0-rcl100-esl100-rsm0-rcm69-esm100-rsr0-rcr2-esr29.npz,,,,,0,110,110,549,,,left,green,0.81,558.9293169975281,559.3639631271362,,2,,3,9,brightness,readingArea,realistic,75,2023-03-20_14h14.56.297,tripletExp_regina_11082022,2022.2.4,120.3399342395951,
4,9,13,0,0.694444444444444,0.298245614035088,0,0.444444444444444,1.0,0,0.111111111111111,3.10526315789474,ReadingArea_rsl0-rcl69-esl29-rsm0-rcm44-esm100-rsr0-rcr11-esr310,exr/ReadingArea_rsl0-rcl69-esl29-rsm0-rcm44-esm100-rsr0-rcr11-esr310.exr,ReadingArea_rsl0-rcl69-esl29-rsm0-rcm44-esm100-rsr0-rcr11-esr310.npz,,,,,0,111,111,488,,,right,red,1.5,561.0556859970093,,,2,,3,9,brightness,readingArea,realistic,75,2023-03-20_14h14.56.297,tripletExp_regina_11082022,2022.2.4,120.3399342395951,
9,0,14,0,0.444444444444444,1.0,0,0.027777777777778,0.298245614035088,0,0.25,3.10526315789474,ReadingArea_rsl0-rcl44-esl100-rsm0-rcm2-esm29-rsr0-rcr25-esr310,exr/ReadingArea_rsl0-rcl44-esl100-rsm0-rcm2-esm29-rsr0-rcr25-esr310.exr,ReadingArea_rsl0-rcl44-esl100-rsm0-rcm2-esm29-rsr0-rcr25-esr310.npz,,,,,0,112,112,550,,,left,green,1.43,563.2477259635925,,,2,,3,9,brightness,readingArea,realistic,75,2023-03-20_14h14.56.297,tripletExp_regina_11082022,2022.2.4,120.3399342395951,
8,14,3,0,0.25,1.0,0,0.25,3.10526315789474,0,0.444444444444444,0.298245614035088,ReadingArea_rsl0-rcl25-esl100-rsm0-rcm25-esm310-rsr0-rcr44-esr29,exr/ReadingArea_rsl0-rcl25-esl100-rsm0-rcm25-esm310-rsr0-rcr44-esr29.exr,ReadingArea_rsl0-rcl25-esl100-rsm0-rcm25-esm310-rsr0-rcr44-esr29.npz,,,,,0,113,113,503,,,left,green,1.7,565.3954150676727,565.8235709667206,,2,,3,9,brightness,readingArea,realistic,75,2023-03-20_14h14.56.297,tripletExp_regina_11082022,2022.2.4,120.3399342395951,
11,7,10,0,1.0,1.0,0,0.111111111111111,1.0,0,0.694444444444444,1.0,ReadingArea_rsl0-rcl100-esl100-rsm0-rcm11-esm100-rsr0-rcr69-esr100,exr/ReadingArea_rsl0-rcl100-esl100-rsm0-rcm11-esm100-rsr0-rcr69-esr100.exr,ReadingArea_rsl0-rcl100-esl100-rsm0-rcm11-esm100-rsr0-rcr69-esr100.npz,,,,,0,114,114,411,,,right,red,1.72,567.5178780555725,568.1154630184174,,2,,3,9,brightness,readingArea,realistic,75,2023-03-20_14h14.56.297,tripletExp_regina_11082022,2022.2.4,120.3399342395951,
11,7,14,0,1.0,1.0,0,0.111111111111111,1.0,0,0.25,3.10526315789474,ReadingArea_rsl0-rcl100-esl100-rsm0-rcm11-esm100-rsr0-rcr25-esr310,exr/ReadingArea_rsl0-rcl100-esl100-rsm0-rcm11-esm100-rsr0-rcr25-esr310.exr,ReadingArea_rsl0-rcl100-esl100-rsm0-rcm11-esm100-rsr0-rcr25-esr310.npz,,,,,0,115,115,119,,,right,red,1.43,569.8116271495819,570.2667109966278,,2,,3,9,brightness,readingArea,realistic,75,2023-03-20_14h14.56.297,tripletExp_regina_11082022,2022.2.4,120.3399342395951,
4,14,12,0,0.694444444444444,0.298245614035088,0,0.25,3.10526315789474,0,0.027777777777778,3.10526315789474,ReadingArea_rsl0-rcl69-esl29-rsm0-rcm25-esm310-rsr0-rcr2-esr310,exr/ReadingArea_rsl0-rcl69-esl29-rsm0-rcm25-esm310-rsr0-rcr2-esr310.exr,ReadingArea_rsl0-rcl69-esl29-rsm0-rcm25-esm310-rsr0-rcr2-esr310.npz,,,,,0,116,116,392,,,left,green,1.06,571.988685131073,572.6901860237122,,2,,3,9,brightness,readingArea,realistic,75,2023-03-20_14h14.56.297,tripletExp_regina_11082022,2022.2.4,120.3399342395951,
5,10,2,0,1.0,0.298245614035088,0,0.694444444444444,1.0,0,0.25,0.298245614035088,ReadingArea_rsl0-rcl100-esl29-rsm0-rcm69-esm100-rsr0-rcr25-esr29,exr/ReadingArea_rsl0-rcl100-esl29-rsm0-rcm69-esm100-rsr0-rcr25-esr29.exr,ReadingArea_rsl0-rcl100-esl29-rsm0-rcm69-esm100-rsr0-rcr25-esr29.npz,,,,,0,117,117,489,,,left,green,1.22,574.3979179859161,574.791177034378,,2,,3,9,brightness,readingArea,realistic,75,2023-03-20_14h14.56.297,tripletExp_regina_11082022,2022.2.4,120.3399342395951,
4,8,0,0,0.694444444444444,0.298245614035088,0,0.25,1.0,0,0.027777777777778,0.298245614035088,ReadingArea_rsl0-rcl69-esl29-rsm0-rcm25-esm100-rsr0-rcr2-esr29,exr/ReadingArea_rsl0-rcl69-esl29-rsm0-rcm25-esm100-rsr0-rcr2-esr29.exr,ReadingArea_rsl0-rcl69-esl29-rsm0-rcm25-esm100-rsr0-rcr2-esr29.npz,,,,,0,118,118,137,,,left,green,0.78,576.5047180652618,576.9579911231995,,2,,3,9,brightness,readingArea,realistic,75,2023-03-20_14h14.56.297,tripletExp_regina_11082022,2022.2.4,120.3399342395951,
2,8,3,0,0.25,0.298245614035088,0,0.25,1.0,0,0.444444444444444,0.298245614035088,ReadingArea_rsl0-rcl25-esl29-rsm0-rcm25-esm100-rsr0-rcr44-esr29,exr/ReadingArea_rsl0-rcl25-esl29-rsm0-rcm25-esm100-rsr0-rcr44-esr29.exr,ReadingArea_rsl0-rcl25-esl29-rsm0-rcm25-esm100-rsr0-rcr44-esr29.npz,,,,,0,119,119,568,,,right,red,0.73,578.6731650829315,579.0816340446472,,2,,3,9,brightness,readingArea,realistic,75,2023-03-20_14h14.56.297,tripletExp_regina_11082022,2022.2.4,120.3399342395951,
2,8,7,0,0.25,0.298245614035088,0,0.25,1.0,0,0.111111111111111,1.0,ReadingArea_rsl0-rcl25-esl29-rsm0-rcm25-esm100-rsr0-rcr11-esr100,exr/ReadingArea_rsl0-rcl25-esl29-rsm0-rcm25-esm100-rsr0-rcr11-esr100.exr,ReadingArea_rsl0-rcl25-esl29-rsm0-rcm25-esm100-rsr0-rcr11-esr100.npz,,,,,0,120,120,393,,,right,red,0.71,580.7792460918427,581.2193851470947,,2,,3,9,brightness,readingArea,realistic,75,2023-03-20_14h14.56.297,tripletExp_regina_11082022,2022.2.4,120.3399342395951,
1,12,6,0,0.111111111111111,0.298245614035088,0,0.027777777777778,3.10526315789474,0,0.027777777777778,1.0,ReadingArea_rsl0-rcl11-esl29-rsm0-rcm2-esm310-rsr0-rcr2-esr100,exr/ReadingArea_rsl0-rcl11-esl29-rsm0-rcm2-esm310-rsr0-rcr2-esr100.exr,ReadingArea_rsl0-rcl11-esl29-rsm0-rcm2-esm310-rsr0-rcr2-esr100.npz,,,,,0,121,121,277,,,left,green,3.59,584.6923251152039,,,2,,3,9,brightness,readingArea,realistic,75,2023-03-20_14h14.56.297,tripletExp_regina_11082022,2022.2.4,120.3399342395951,
1,13,7,0,0.111111111111111,0.298245614035088,0,0.111111111111111,3.10526315789474,0,0.111111111111111,1.0,ReadingArea_rsl0-rcl11-esl29-rsm0-rcm11-esm310-rsr0-rcr11-esr100,exr/ReadingArea_rsl0-rcl11-esl29-rsm0-rcm11-esm310-rsr0-rcr11-esr100.exr,ReadingArea_rsl0-rcl11-esl29-rsm0-rcm11-esm310-rsr0-rcr11-esr100.npz,,,,,0,122,122,158,,,right,red,1.09,586.8494069576263,587.3209030628204,,2,,3,9,brightness,readingArea,realistic,75,2023-03-20_14h14.56.297,tripletExp_regina_11082022,2022.2.4,120.3399342395951,
0,14,8,0,0.027777777777778,0.298245614035088,0,0.25,3.10526315789474,0,0.25,1.0,ReadingArea_rsl0-rcl2-esl29-rsm0-rcm25-esm310-rsr0-rcr25-esr100,exr/ReadingArea_rsl0-rcl2-esl29-rsm0-rcm25-esm310-rsr0-rcr25-esr100.exr,ReadingArea_rsl0-rcl2-esl29-rsm0-rcm25-esm310-rsr0-rcr25-esr100.npz,,,,,0,123,123,545,,,right,red,1.0,589.0117521286011,589.4618449211121,,2,,3,9,brightness,readingArea,realistic,75,2023-03-20_14h14.56.297,tripletExp_regina_11082022,2022.2.4,120.3399342395951,
8,10,7,0,0.25,1.0,0,0.694444444444444,1.0,0,0.111111111111111,1.0,ReadingArea_rsl0-rcl25-esl100-rsm0-rcm69-esm100-rsr0-rcr11-esr100,exr/ReadingArea_rsl0-rcl25-esl100-rsm0-rcm69-esm100-rsr0-rcr11-esr100.exr,ReadingArea_rsl0-rcl25-esl100-rsm0-rcm69-esm100-rsr0-rcr11-esr100.npz,,,,,0,124,124,424,,,left,green,0.75,591.1596231460571,591.5807800292969,,2,,3,9,brightness,readingArea,realistic,75,2023-03-20_14h14.56.297,tripletExp_regina_11082022,2022.2.4,120.3399342395951,
8,3,12,0,0.25,1.0,0,0.444444444444444,0.298245614035088,0,0.027777777777778,3.10526315789474,ReadingArea_rsl0-rcl25-esl100-rsm0-rcm44-esm29-rsr0-rcr2-esr310,exr/ReadingArea_rsl0-rcl25-esl100-rsm0-rcm44-esm29-rsr0-rcr2-esr310.exr,ReadingArea_rsl0-rcl25-esl100-rsm0-rcm44-esm29-rsr0-rcr2-esr310.npz,,,,,0,125,125,22,,,left,green,2.94,595.0553760528564,595.5640020370483,,2,,3,9,brightness,readingArea,realistic,75,2023-03-20_14h14.56.297,tripletExp_regina_11082022,2022.2.4,120.3399342395951,
3,0,8,0,0.444444444444444,0.298245614035088,0,0.027777777777778,0.298245614035088,0,0.25,1.0,ReadingArea_rsl0-rcl44-esl29-rsm0-rcm2-esm29-rsr0-rcr25-esr100,exr/ReadingArea_rsl0-rcl44-esl29-rsm0-rcm2-esm29-rsr0-rcr25-esr100.exr,ReadingArea_rsl0-rcl44-esl29-rsm0-rcm2-esm29-rsr0-rcr25-esr100.npz,,,,,0,126,126,510,,,left,green,4.53,600.7833580970764,601.2609210014343,,2,,3,9,brightness,readingArea,realistic,75,2023-03-20_14h14.56.297,tripletExp_regina_11082022,2022.2.4,120.3399342395951,
8,12,4,0,0.25,1.0,0,0.027777777777778,3.10526315789474,0,0.694444444444444,0.298245614035088,ReadingArea_rsl0-rcl25-esl100-rsm0-rcm2-esm310-rsr0-rcr69-esr29,exr/ReadingArea_rsl0-rcl25-esl100-rsm0-rcm2-esm310-rsr0-rcr69-esr29.exr,ReadingArea_rsl0-rcl25-esl100-rsm0-rcm2-esm310-rsr0-rcr69-esr29.npz,,,,,0,127,127,30,,,right,red,1.49,602.9620871543884,,,2,,3,9,brightness,readingArea,realistic,75,2023-03-20_14h14.56.297,tripletExp_regina_11082022,2022.2.4,120.3399342395951,
9,8,7,0,0.444444444444444,1.0,0,0.25,1.0,0,0.111111111111111,1.0,ReadingArea_rsl0-rcl44-esl100-rsm0-rcm25-esm100-rsr0-rcr11-esr100,exr/ReadingArea_rsl0-rcl44-esl100-rsm0-rcm25-esm100-rsr0-rcr11-esr100.exr,ReadingArea_rsl0-rcl44-esl100-rsm0-rcm25-esm100-rsr0-rcr11-esr100.npz,,,,,0,128,128,368,,,right,red,4.32,608.7321529388428,609.1792161464691,,2,,3,9,brightness,readingArea,realistic,75,2023-03-20_14h14.56.297,tripletExp_regina_11082022,2022.2.4,120.3399342395951,
11,14,9,0,1.0,1.0,0,0.25,3.10526315789474,0,0.444444444444444,1.0,ReadingArea_rsl0-rcl100-esl100-rsm0-rcm25-esm310-rsr0-rcr44-esr100,exr/ReadingArea_rsl0-rcl100-esl100-rsm0-rcm25-esm310-rsr0-rcr44-esr100.exr,ReadingArea_rsl0-rcl100-esl100-rsm0-rcm25-esm310-rsr0-rcr44-esr100.npz,,,,,0,129,129,43,,,left,green,0.98,610.8912651538849,611.3304619789124,,2,,3,9,brightness,readingArea,realistic,75,2023-03-20_14h14.56.297,tripletExp_regina_11082022,2022.2.4,120.3399342395951,
9,8,0,0,0.444444444444444,1.0,0,0.25,1.0,0,0.027777777777778,0.298245614035088,ReadingArea_rsl0-rcl44-esl100-rsm0-rcm25-esm100-rsr0-rcr2-esr29,exr/ReadingArea_rsl0-rcl44-esl100-rsm0-rcm25-esm100-rsr0-rcr2-esr29.exr,ReadingArea_rsl0-rcl44-esl100-rsm0-rcm25-esm100-rsr0-rcr2-esr29.npz,,,,,0,130,130,66,,,left,green,0.69,613.0312340259552,613.4762680530548,,2,,3,9,brightness,readingArea,realistic,75,2023-03-20_14h14.56.297,tripletExp_regina_11082022,2022.2.4,120.3399342395951,
10,14,1,0,0.694444444444444,1.0,0,0.25,3.10526315789474,0,0.111111111111111,0.298245614035088,ReadingArea_rsl0-rcl69-esl100-rsm0-rcm25-esm310-rsr0-rcr11-esr29,exr/ReadingArea_rsl0-rcl69-esl100-rsm0-rcm25-esm310-rsr0-rcr11-esr29.exr,ReadingArea_rsl0-rcl69-esl100-rsm0-rcm25-esm310-rsr0-rcr11-esr29.npz,,,,,0,131,131,544,,,left,green,0.65,615.1768090724945,615.6277210712433,,2,,3,9,brightness,readingArea,realistic,75,2023-03-20_14h14.56.297,tripletExp_regina_11082022,2022.2.4,120.3399342395951,
0,5,12,0,0.027777777777778,0.298245614035088,0,1.0,0.298245614035088,0,0.027777777777778,3.10526315789474,ReadingArea_rsl0-rcl2-esl29-rsm0-rcm100-esm29-rsr0-rcr2-esr310,exr/ReadingArea_rsl0-rcl2-esl29-rsm0-rcm100-esm29-rsr0-rcr2-esr310.exr,ReadingArea_rsl0-rcl2-esl29-rsm0-rcm100-esm29-rsr0-rcr2-esr310.npz,,,,,0,132,132,366,,,right,red,0.88,617.3245220184326,617.7867739200592,,2,,3,9,brightness,readingArea,realistic,75,2023-03-20_14h14.56.297,tripletExp_regina_11082022,2022.2.4,120.3399342395951,
3,12,4,0,0.444444444444444,0.298245614035088,0,0.027777777777778,3.10526315789474,0,0.694444444444444,0.298245614035088,ReadingArea_rsl0-rcl44-esl29-rsm0-rcm2-esm310-rsr0-rcr69-esr29,exr/ReadingArea_rsl0-rcl44-esl29-rsm0-rcm2-esm310-rsr0-rcr69-esr29.exr,ReadingArea_rsl0-rcl44-esl29-rsm0-rcm2-esm310-rsr0-rcr69-esr29.npz,,,,,0,133,133,426,,,left,green,1.06,619.4849529266357,619.9245481491089,,2,,3,9,brightness,readingArea,realistic,75,2023-03-20_14h14.56.297,tripletExp_regina_11082022,2022.2.4,120.3399342395951,
8,1,14,0,0.25,1.0,0,0.111111111111111,0.298245614035088,0,0.25,3.10526315789474,ReadingArea_rsl0-rcl25-esl100-rsm0-rcm11-esm29-rsr0-rcr25-esr310,exr/ReadingArea_rsl0-rcl25-esl100-rsm0-rcm11-esm29-rsr0-rcr25-esr310.exr,ReadingArea_rsl0-rcl25-esl100-rsm0-rcm11-esm29-rsr0-rcr25-esr310.npz,,,,,0,134,134,500,,,left,green,0.91,621.6425070762634,622.1689541339874,,2,,3,9,brightness,readingArea,realistic,75,2023-03-20_14h14.56.297,tripletExp_regina_11082022,2022.2.4,120.3399342395951,
6,11,7,0,0.027777777777778,1.0,0,1.0,1.0,0,0.111111111111111,1.0,ReadingArea_rsl0-rcl2-esl100-rsm0-rcm100-esm100-rsr0-rcr11-esr100,exr/ReadingArea_rsl0-rcl2-esl100-rsm0-rcm100-esm100-rsr0-rcr11-esr100.exr,ReadingArea_rsl0-rcl2-esl100-rsm0-rcm100-esm100-rsr0-rcr11-esr100.npz,,,,,0,135,135,571,,,right,red,1.0,623.8864929676056,624.3207330703735,,2,,3,9,brightness,readingArea,realistic,75,2023-03-20_14h14.56.297,tripletExp_regina_11082022,2022.2.4,120.3399342395951,
11,0,10,0,1.0,1.0,0,0.027777777777778,0.298245614035088,0,0.694444444444444,1.0,ReadingArea_rsl0-rcl100-esl100-rsm0-rcm2-esm29-rsr0-rcr69-esr100,exr/ReadingArea_rsl0-rcl100-esl100-rsm0-rcm2-esm29-rsr0-rcr69-esr100.exr,ReadingArea_rsl0-rcl100-esl100-rsm0-rcm2-esm29-rsr0-rcr69-esr100.npz,,,,,0,136,136,259,,,right,red,1.38,626.0450971126556,626.4637579917908,,2,,3,9,brightness,readingArea,realistic,75,2023-03-20_14h14.56.297,tripletExp_regina_11082022,2022.2.4,120.3399342395951,
3,4,0,0,0.444444444444444,0.298245614035088,0,0.694444444444444,0.298245614035088,0,0.027777777777778,0.298245614035088,ReadingArea_rsl0-rcl44-esl29-rsm0-rcm69-esm29-rsr0-rcr2-esr29,exr/ReadingArea_rsl0-rcl44-esl29-rsm0-rcm69-esm29-rsr0-rcr2-esr29.exr,ReadingArea_rsl0-rcl44-esl29-rsm0-rcm69-esm29-rsr0-rcr2-esr29.npz,,,,,0,137,137,130,,,left,green,0.93,628.1668410301208,628.620954990387,,2,,3,9,brightness,readingArea,realistic,75,2023-03-20_14h14.56.297,tripletExp_regina_11082022,2022.2.4,120.3399342395951,
0,4,12,0,0.027777777777778,0.298245614035088,0,0.694444444444444,0.298245614035088,0,0.027777777777778,3.10526315789474,ReadingArea_rsl0-rcl2-esl29-rsm0-rcm69-esm29-rsr0-rcr2-esr310,exr/ReadingArea_rsl0-rcl2-esl29-rsm0-rcm69-esm29-rsr0-rcr2-esr310.exr,ReadingArea_rsl0-rcl2-esl29-rsm0-rcm69-esm29-rsr0-rcr2-esr310.npz,,,,,0,138,138,150,,,right,red,0.82,630.3345301151276,630.7806479930878,,2,,3,9,brightness,readingArea,realistic,75,2023-03-20_14h14.56.297,tripletExp_regina_11082022,2022.2.4,120.3399342395951,
10,8,11,0,0.694444444444444,1.0,0,0.25,1.0,0,1.0,1.0,ReadingArea_rsl0-rcl69-esl100-rsm0-rcm25-esm100-rsr0-rcr100-esr100,exr/ReadingArea_rsl0-rcl69-esl100-rsm0-rcm25-esm100-rsr0-rcr100-esr100.exr,ReadingArea_rsl0-rcl69-esl100-rsm0-rcm25-esm100-rsr0-rcr100-esr100.npz,,,,,0,139,139,578,,,left,green,1.34,632.4932389259338,632.9343540668488,,2,,3,9,brightness,readingArea,realistic,75,2023-03-20_14h14.56.297,tripletExp_regina_11082022,2022.2.4,120.3399342395951,
9,4,6,0,0.444444444444444,1.0,0,0.694444444444444,0.298245614035088,0,0.027777777777778,1.0,ReadingArea_rsl0-rcl44-esl100-rsm0-rcm69-esm29-rsr0-rcr2-esr100,exr/ReadingArea_rsl0-rcl44-esl100-rsm0-rcm69-esm29-rsr0-rcr2-esr100.exr,ReadingArea_rsl0-rcl44-esl100-rsm0-rcm69-esm29-rsr0-rcr2-esr100.npz,,,,,0,140,140,453,,,left,green,0.77,634.6363301277161,635.2185280323029,,2,,3,9,brightness,readingArea,realistic,75,2023-03-20_14h14.56.297,tripletExp_regina_11082022,2022.2.4,120.3399342395951,
13,10,11,0,0.111111111111111,3.10526315789474,0,0.694444444444444,1.0,0,1.0,1.0,ReadingArea_rsl0-rcl11-esl310-rsm0-rcm69-esm100-rsr0-rcr100-esr100,exr/ReadingArea_rsl0-rcl11-esl310-rsm0-rcm69-esm100-rsr0-rcr100-esr100.exr,ReadingArea_rsl0-rcl11-esl310-rsm0-rcm69-esm100-rsr0-rcr100-esr100.npz,,,,,0,141,141,320,,,right,red,0.9,636.926530122757,637.390928030014,,2,,3,9,brightness,readingArea,realistic,75,2023-03-20_14h14.56.297,tripletExp_regina_11082022,2022.2.4,120.3399342395951,
1,9,11,0,0.111111111111111,0.298245614035088,0,0.444444444444444,1.0,0,1.0,1.0,ReadingArea_rsl0-rcl11-esl29-rsm0-rcm44-esm100-rsr0-rcr100-esr100,exr/ReadingArea_rsl0-rcl11-esl29-rsm0-rcm44-esm100-rsr0-rcr100-esr100.exr,ReadingArea_rsl0-rcl11-esl29-rsm0-rcm44-esm100-rsr0-rcr100-esr100.npz,,,,,0,142,142,215,,,right,red,0.65,639.0875189304352,639.5125551223755,,2,,3,9,brightness,readingArea,realistic,75,2023-03-20_14h14.56.297,tripletExp_regina_11082022,2022.2.4,120.3399342395951,
13,6,4,0,0.111111111111111,3.10526315789474,0,0.027777777777778,1.0,0,0.694444444444444,0.298245614035088,ReadingArea_rsl0-rcl11-esl310-rsm0-rcm2-esm100-rsr0-rcr69-esr29,exr/ReadingArea_rsl0-rcl11-esl310-rsm0-rcm2-esm100-rsr0-rcr69-esr29.exr,ReadingArea_rsl0-rcl11-esl310-rsm0-rcm2-esm100-rsr0-rcr69-esr29.npz,,,,,0,143,143,328,,,right,red,1.71,641.2347581386566,,,2,,3,9,brightness,readingArea,realistic,75,2023-03-20_14h14.56.297,tripletExp_regina_11082022,2022.2.4,120.3399342395951,
9,6,13,0,0.444444444444444,1.0,0,0.027777777777778,1.0,0,0.111111111111111,3.10526315789474,ReadingArea_rsl0-rcl44-esl100-rsm0-rcm2-esm100-rsr0-rcr11-esr310,exr/ReadingArea_rsl0-rcl44-esl100-rsm0-rcm2-esm100-rsr0-rcr11-esr310.exr,ReadingArea_rsl0-rcl44-esl100-rsm0-rcm2-esm100-rsr0-rcr11-esr310.npz,,,,,0,144,144,285,,,right,red,1.78,643.4089419841766,643.859885931015,,2,,3,9,brightness,readingArea,realistic,75,2023-03-20_14h14.56.297,tripletExp_regina_11082022,2022.2.4,120.3399342395951,
1,10,0,0,0.111111111111111,0.298245614035088,0,0.694444444444444,1.0,0,0.027777777777778,0.298245614035088,ReadingArea_rsl0-rcl11-esl29-rsm0-rcm69-esm100-rsr0-rcr2-esr29,exr/ReadingArea_rsl0-rcl11-esl29-rsm0-rcm69-esm100-rsr0-rcr2-esr29.exr,ReadingArea_rsl0-rcl11-esl29-rsm0-rcm69-esm100-rsr0-rcr2-esr29.npz,,,,,0,145,145,196,,,left,green,1.18,645.5613040924072,645.9945380687714,,2,,3,9,brightness,readingArea,realistic,75,2023-03-20_14h14.56.297,tripletExp_regina_11082022,2022.2.4,120.3399342395951,
0,1,6,0,0.027777777777778,0.298245614035088,0,0.111111111111111,0.298245614035088,0,0.027777777777778,1.0,ReadingArea_rsl0-rcl2-esl29-rsm0-rcm11-esm29-rsr0-rcr2-esr100,exr/ReadingArea_rsl0-rcl2-esl29-rsm0-rcm11-esm29-rsr0-rcr2-esr100.exr,ReadingArea_rsl0-rcl2-esl29-rsm0-rcm11-esm29-rsr0-rcr2-esr100.npz,,,,,0,146,146,375,,,right,red,0.87,647.7194111347198,,,2,,3,9,brightness,readingArea,realistic,75,2023-03-20_14h14.56.297,tripletExp_regina_11082022,2022.2.4,120.3399342395951,
6,0,1,0,0.027777777777778,1.0,0,0.027777777777778,0.298245614035088,0,0.111111111111111,0.298245614035088,ReadingArea_rsl0-rcl2-esl100-rsm0-rcm2-esm29-rsr0-rcr11-esr29,exr/ReadingArea_rsl0-rcl2-esl100-rsm0-rcm2-esm29-rsr0-rcr11-esr29.exr,ReadingArea_rsl0-rcl2-esl100-rsm0-rcm2-esm29-rsr0-rcr11-esr29.npz,,,,,0,147,147,302,,,left,green,3.13,651.7425439357758,652.1928889751434,,2,,3,9,brightness,readingArea,realistic,75,2023-03-20_14h14.56.297,tripletExp_regina_11082022,2022.2.4,120.3399342395951,
12,9,2,0,0.027777777777778,3.10526315789474,0,0.444444444444444,1.0,0,0.25,0.298245614035088,ReadingArea_rsl0-rcl2-esl310-rsm0-rcm44-esm100-rsr0-rcr25-esr29,exr/ReadingArea_rsl0-rcl2-esl310-rsm0-rcm44-esm100-rsr0-rcr25-esr29.exr,ReadingArea_rsl0-rcl2-esl310-rsm0-rcm44-esm100-rsr0-rcr25-esr29.npz,,,,,0,148,148,226,,,right,red,1.35,653.8858399391174,654.3416531085968,,2,,3,9,brightness,readingArea,realistic,75,2023-03-20_14h14.56.297,tripletExp_regina_11082022,2022.2.4,120.3399342395951,
8,14,6,0,0.25,1.0,0,0.25,3.10526315789474,0,0.027777777777778,1.0,ReadingArea_rsl0-rcl25-esl100-rsm0-rcm25-esm310-rsr0-rcr2-esr100,exr/ReadingArea_rsl0-rcl25-esl100-rsm0-rcm25-esm310-rsr0-rcr2-esr100.exr,ReadingArea_rsl0-rcl25-esl100-rsm0-rcm25-esm310-rsr0-rcr2-esr100.npz,,,,,0,149,149,469,,,left,green,0.96,656.0371849536896,,,2,,3,9,brightness,readingArea,realistic,75,2023-03-20_14h14.56.297,tripletExp_regina_11082022,2022.2.4,120.3399342395951,
3,8,7,0,0.444444444444444,0.298245614035088,0,0.25,1.0,0,0.111111111111111,1.0,ReadingArea_rsl0-rcl44-esl29-rsm0-rcm25-esm100-rsr0-rcr11-esr100,exr/ReadingArea_rsl0-rcl44-esl29-rsm0-rcm25-esm100-rsr0-rcr11-esr100.exr,ReadingArea_rsl0-rcl44-esl29-rsm0-rcm25-esm100-rsr0-rcr11-esr100.npz,,,,,0,150,150,484,,,left,green,1.33,658.8871660232544,,,3,,3,9,brightness,readingArea,realistic,75,2023-03-20_14h14.56.297,tripletExp_regina_11082022,2022.2.4,120.3399342395951,
0,5,2,0,0.027777777777778,0.298245614035088,0,1.0,0.298245614035088,0,0.25,0.298245614035088,ReadingArea_rsl0-rcl2-esl29-rsm0-rcm100-esm29-rsr0-rcr25-esr29,exr/ReadingArea_rsl0-rcl2-esl29-rsm0-rcm100-esm29-rsr0-rcr25-esr29.exr,ReadingArea_rsl0-rcl2-esl29-rsm0-rcm100-esm29-rsr0-rcr25-esr29.npz,,,,,0,151,151,25,,,right,red,0.97,661.1583969593048,661.6046891212463,,3,,3,9,brightness,readingArea,realistic,75,2023-03-20_14h14.56.297,tripletExp_regina_11082022,2022.2.4,120.3399342395951,
3,4,13,0,0.444444444444444,0.298245614035088,0,0.694444444444444,0.298245614035088,0,0.111111111111111,3.10526315789474,ReadingArea_rsl0-rcl44-esl29-rsm0-rcm69-esm29-rsr0-rcr11-esr310,exr/ReadingArea_rsl0-rcl44-esl29-rsm0-rcm69-esm29-rsr0-rcr11-esr310.exr,ReadingArea_rsl0-rcl44-esl29-rsm0-rcm69-esm29-rsr0-rcr11-esr310.npz,,,,,0,152,152,63,,,right,red,3.24,665.0800681114197,,,3,,3,9,brightness,readingArea,realistic,75,2023-03-20_14h14.56.297,tripletExp_regina_11082022,2022.2.4,120.3399342395951,
3,14,4,0,0.444444444444444,0.298245614035088,0,0.25,3.10526315789474,0,0.694444444444444,0.298245614035088,ReadingArea_rsl0-rcl44-esl29-rsm0-rcm25-esm310-rsr0-rcr69-esr29,exr/ReadingArea_rsl0-rcl44-esl29-rsm0-rcm25-esm310-rsr0-rcr69-esr29.exr,ReadingArea_rsl0-rcl44-esl29-rsm0-rcm25-esm310-rsr0-rcr69-esr29.npz,,,,,0,153,153,537,,,right,red,1.6,667.2196409702301,667.67365193367,,3,,3,9,brightness,readingArea,realistic,75,2023-03-20_14h14.56.297,tripletExp_regina_11082022,2022.2.4,120.3399342395951,
8,7,13,0,0.25,1.0,0,0.111111111111111,1.0,0,0.111111111111111,3.10526315789474,ReadingArea_rsl0-rcl25-esl100-rsm0-rcm11-esm100-rsr0-rcr11-esr310,exr/ReadingArea_rsl0-rcl25-esl100-rsm0-rcm11-esm100-rsr0-rcr11-esr310.exr,ReadingArea_rsl0-rcl25-esl100-rsm0-rcm11-esm100-rsr0-rcr11-esr310.npz,,,,,0,154,154,512,,,left,green,3.17,671.1380360126495,671.5851399898529,,3,,3,9,brightness,readingArea,realistic,75,2023-03-20_14h14.56.297,tripletExp_regina_11082022,2022.2.4,120.3399342395951,
10,14,13,0,0.694444444444444,1.0,0,0.25,3.10526315789474,0,0.111111111111111,3.10526315789474,ReadingArea_rsl0-rcl69-esl100-rsm0-rcm25-esm310-rsr0-rcr11-esr310,exr/ReadingArea_rsl0-rcl69-esl100-rsm0-rcm25-esm310-rsr0-rcr11-esr310.exr,ReadingArea_rsl0-rcl69-esl100-rsm0-rcm25-esm310-rsr0-rcr11-esr310.npz,,,,,0,155,155,168,,,left,green,1.09,673.3040509223938,673.716490983963,,3,,3,9,brightness,readingArea,realistic,75,2023-03-20_14h14.56.297,tripletExp_regina_11082022,2022.2.4,120.3399342395951,
10,0,3,0,0.694444444444444,1.0,0,0.027777777777778,0.298245614035088,0,0.444444444444444,0.298245614035088,ReadingArea_rsl0-rcl69-esl100-rsm0-rcm2-esm29-rsr0-rcr44-esr29,exr/ReadingArea_rsl0-rcl69-esl100-rsm0-rcm2-esm29-rsr0-rcr44-esr29.exr,ReadingArea_rsl0-rcl69-esl100-rsm0-rcm2-esm29-rsr0-rcr44-esr29.npz,,,,,0,156,156,87,,,right,red,0.82,675.434798002243,676.0281710624695,,3,,3,9,brightness,readingArea,realistic,75,2023-03-20_14h14.56.297,tripletExp_regina_11082022,2022.2.4,120.3399342395951,
9,12,11,0,0.444444444444444,1.0,0,0.027777777777778,3.10526315789474,0,1.0,1.0,ReadingArea_rsl0-rcl44-esl100-rsm0-rcm2-esm310-rsr0-rcr100-esr100,exr/ReadingArea_rsl0-rcl44-esl100-rsm0-rcm2-esm310-rsr0-rcr100-esr100.exr,ReadingArea_rsl0-rcl44-esl100-rsm0-rcm2-esm310-rsr0-rcr100-esr100.npz,,,,,0,157,157,144,,,left,green,1.11,677.7330729961395,678.1930599212646,,3,,3,9,brightness,readingArea,realistic,75,2023-03-20_14h14.56.297,tripletExp_regina_11082022,2022.2.4,120.3399342395951,
4,10,11,0,0.694444444444444,0.298245614035088,0,0.694444444444444,1.0,0,1.0,1.0,ReadingArea_rsl0-rcl69-esl29-rsm0-rcm69-esm100-rsr0-rcr100-esr100,exr/ReadingArea_rsl0-rcl69-esl29-rsm0-rcm69-esm100-rsr0-rcr100-esr100.exr,ReadingArea_rsl0-rcl69-esl29-rsm0-rcm69-esm100-rsr0-rcr100-esr100.npz,,,,,0,158,158,180,,,right,red,0.75,679.8917031288147,680.327877998352,,3,,3,9,brightness,readingArea,realistic,75,2023-03-20_14h14.56.297,tripletExp_regina_11082022,2022.2.4,120.3399342395951,
2,6,13,0,0.25,0.298245614035088,0,0.027777777777778,1.0,0,0.111111111111111,3.10526315789474,ReadingArea_rsl0-rcl25-esl29-rsm0-rcm2-esm100-rsr0-rcr11-esr310,exr/ReadingArea_rsl0-rcl25-esl29-rsm0-rcm2-esm100-rsr0-rcr11-esr310.exr,ReadingArea_rsl0-rcl25-esl29-rsm0-rcm2-esm100-rsr0-rcr11-esr310.npz,,,,,0,159,159,388,,,left,green,0.93,682.0338740348816,682.4869270324707,,3,,3,9,brightness,readingArea,realistic,75,2023-03-20_14h14.56.297,tripletExp_regina_11082022,2022.2.4,120.3399342395951,
14,6,2,0,0.25,3.10526315789474,0,0.027777777777778,1.0,0,0.25,0.298245614035088,ReadingArea_rsl0-rcl25-esl310-rsm0-rcm2-esm100-rsr0-rcr25-esr29,exr/ReadingArea_rsl0-rcl25-esl310-rsm0-rcm2-esm100-rsr0-rcr25-esr29.exr,ReadingArea_rsl0-rcl25-esl310-rsm0-rcm2-esm100-rsr0-rcr25-esr29.npz,,,,,0,160,160,272,,,right,red,0.69,684.176351070404,684.6024191379547,,3,,3,9,brightness,readingArea,realistic,75,2023-03-20_14h14.56.297,tripletExp_regina_11082022,2022.2.4,120.3399342395951,
12,6,8,0,0.027777777777778,3.10526315789474,0,0.027777777777778,1.0,0,0.25,1.0,ReadingArea_rsl0-rcl2-esl310-rsm0-rcm2-esm100-rsr0-rcr25-esr100,exr/ReadingArea_rsl0-rcl2-esl310-rsm0-rcm2-esm100-rsr0-rcr25-esr100.exr,ReadingArea_rsl0-rcl2-esl310-rsm0-rcm2-esm100-rsr0-rcr25-esr100.npz,,,,,0,161,161,540,,,left,green,0.76,686.2930860519409,686.7293009757996,,3,,3,9,brightness,readingArea,realistic,75,2023-03-20_14h14.56.297,tripletExp_regina_11082022,2022.2.4,120.3399342395951,
4,7,1,0,0.694444444444444,0.298245614035088,0,0.111111111111111,1.0,0,0.111111111111111,0.298245614035088,ReadingArea_rsl0-rcl69-esl29-rsm0-rcm11-esm100-rsr0-rcr11-esr29,exr/ReadingArea_rsl0-rcl69-esl29-rsm0-rcm11-esm100-rsr0-rcr11-esr29.exr,ReadingArea_rsl0-rcl69-esl29-rsm0-rcm11-esm100-rsr0-rcr11-esr29.npz,,,,,0,162,162,33,,,left,green,1.83,688.4225471019745,688.8796980381012,,3,,3,9,brightness,readingArea,realistic,75,2023-03-20_14h14.56.297,tripletExp_regina_11082022,2022.2.4,120.3399342395951,
0,11,9,0,0.027777777777778,0.298245614035088,0,1.0,1.0,0,0.444444444444444,1.0,ReadingArea_rsl0-rcl2-esl29-rsm0-rcm100-esm100-rsr0-rcr44-esr100,exr/ReadingArea_rsl0-rcl2-esl29-rsm0-rcm100-esm100-rsr0-rcr44-esr100.exr,ReadingArea_rsl0-rcl2-esl29-rsm0-rcm100-esm100-rsr0-rcr44-esr100.npz,,,,,0,163,163,32,,,right,red,0.71,690.5851480960846,690.9896850585938,,3,,3,9,brightness,readingArea,realistic,75,2023-03-20_14h14.56.297,tripletExp_regina_11082022,2022.2.4,120.3399342395951,
11,0,6,0,1.0,1.0,0,0.027777777777778,0.298245614035088,0,0.027777777777778,1.0,ReadingArea_rsl0-rcl100-esl100-rsm0-rcm2-esm29-rsr0-rcr2-esr100,exr/ReadingArea_rsl0-rcl100-esl100-rsm0-rcm2-esm29-rsr0-rcr2-esr100.exr,ReadingArea_rsl0-rcl100-esl100-rsm0-rcm2-esm29-rsr0-rcr2-esr100.npz,,,,,0,164,164,586,,,right,red,0.62,692.6805069446564,693.1415619850159,,3,,3,9,brightness,readingArea,realistic,75,2023-03-20_14h14.56.297,tripletExp_regina_11082022,2022.2.4,120.3399342395951,
10,7,13,0,0.694444444444444,1.0,0,0.111111111111111,1.0,0,0.111111111111111,3.10526315789474,ReadingArea_rsl0-rcl69-esl100-rsm0-rcm11-esm100-rsr0-rcr11-esr310,exr/ReadingArea_rsl0-rcl69-esl100-rsm0-rcm11-esm100-rsr0-rcr11-esr310.exr,ReadingArea_rsl0-rcl69-esl100-rsm0-rcm11-esm100-rsr0-rcr11-esr310.npz,,,,,0,165,165,379,,,right,red,1.01,694.8344810009003,695.2577590942383,,3,,3,9,brightness,readingArea,realistic,75,2023-03-20_14h14.56.297,tripletExp_regina_11082022,2022.2.4,120.3399342395951,
8,9,6,0,0.25,1.0,0,0.444444444444444,1.0,0,0.027777777777778,1.0,ReadingArea_rsl0-rcl25-esl100-rsm0-rcm44-esm100-rsr0-rcr2-esr100,exr/ReadingArea_rsl0-rcl25-esl100-rsm0-rcm44-esm100-rsr0-rcr2-esr100.exr,ReadingArea_rsl0-rcl25-esl100-rsm0-rcm44-esm100-rsr0-rcr2-esr100.npz,,,,,0,166,166,3,,,left,green,0.81,696.954185962677,697.4386279582977,,3,,3,9,brightness,readingArea,realistic,75,2023-03-20_14h14.56.297,tripletExp_regina_11082022,2022.2.4,120.3399342395951,
10,0,11,0,0.694444444444444,1.0,0,0.027777777777778,0.298245614035088,0,1.0,1.0,ReadingArea_rsl0-rcl69-esl100-rsm0-rcm2-esm29-rsr0-rcr100-esr100,exr/ReadingArea_rsl0-rcl69-esl100-rsm0-rcm2-esm29-rsr0-rcr100-esr100.exr,ReadingArea_rsl0-rcl69-esl100-rsm0-rcm2-esm29-rsr0-rcr100-esr100.npz,,,,,0,167,167,573,,,right,red,1.54,699.1480700969696,699.6112689971924,,3,,3,9,brightness,readingArea,realistic,75,2023-03-20_14h14.56.297,tripletExp_regina_11082022,2022.2.4,120.3399342395951,
8,4,1,0,0.25,1.0,0,0.694444444444444,0.298245614035088,0,0.111111111111111,0.298245614035088,ReadingArea_rsl0-rcl25-esl100-rsm0-rcm69-esm29-rsr0-rcr11-esr29,exr/ReadingArea_rsl0-rcl25-esl100-rsm0-rcm69-esm29-rsr0-rcr11-esr29.exr,ReadingArea_rsl0-rcl25-esl100-rsm0-rcm69-esm29-rsr0-rcr11-esr29.npz,,,,,0,168,168,286,,,left,green,0.82,701.3098649978638,701.8266179561615,,3,,3,9,brightness,readingArea,realistic,75,2023-03-20_14h14.56.297,tripletExp_regina_11082022,2022.2.4,120.3399342395951,
14,10,9,0,0.25,3.10526315789474,0,0.694444444444444,1.0,0,0.444444444444444,1.0,ReadingArea_rsl0-rcl25-esl310-rsm0-rcm69-esm100-rsr0-rcr44-esr100,exr/ReadingArea_rsl0-rcl25-esl310-rsm0-rcm69-esm100-rsr0-rcr44-esr100.exr,ReadingArea_rsl0-rcl25-esl310-rsm0-rcm69-esm100-rsr0-rcr44-esr100.npz,,,,,0,169,169,402,,,left,green,1.15,703.5177099704742,703.9624619483948,,3,,3,9,brightness,readingArea,realistic,75,2023-03-20_14h14.56.297,tripletExp_regina_11082022,2022.2.4,120.3399342395951,
14,8,3,0,0.25,3.10526315789474,0,0.25,1.0,0,0.444444444444444,0.298245614035088,ReadingArea_rsl0-rcl25-esl310-rsm0-rcm25-esm100-rsr0-rcr44-esr29,exr/ReadingArea_rsl0-rcl25-esl310-rsm0-rcm25-esm100-rsr0-rcr44-esr29.exr,ReadingArea_rsl0-rcl25-esl310-rsm0-rcm25-esm100-rsr0-rcr44-esr29.npz,,,,,0,170,170,100,,,right,red,1.24,705.658399105072,706.0864131450653,,3,,3,9,brightness,readingArea,realistic,75,2023-03-20_14h14.56.297,tripletExp_regina_11082022,2022.2.4,120.3399342395951,
3,13,10,0,0.444444444444444,0.298245614035088,0,0.111111111111111,3.10526315789474,0,0.694444444444444,1.0,ReadingArea_rsl0-rcl44-esl29-rsm0-rcm11-esm310-rsr0-rcr69-esr100,exr/ReadingArea_rsl0-rcl44-esl29-rsm0-rcm11-esm310-rsr0-rcr69-esr100.exr,ReadingArea_rsl0-rcl44-esl29-rsm0-rcm11-esm310-rsr0-rcr69-esr100.npz,,,,,0,171,171,416,,,left,green,1.27,707.7838151454926,708.2535591125488,,3,,3,9,brightness,readingArea,realistic,75,2023-03-20_14h14.56.297,tripletExp_regina_11082022,2022.2.4,120.3399342395951,
13,10,7,0,0.111111111111111,3.10526315789474,0,0.694444444444444,1.0,0,0.111111111111111,1.0,ReadingArea_rsl0-rcl11-esl310-rsm0-rcm69-esm100-rsr0-rcr11-esr100,exr/ReadingArea_rsl0-rcl11-esl310-rsm0-rcm69-esm100-rsr0-rcr11-esr100.exr,ReadingArea_rsl0-rcl11-esl310-rsm0-rcm69-esm100-rsr0-rcr11-esr100.npz,,,,,0,172,172,385,,,left,green,1.11,709.9638080596924,710.436331987381,,3,,3,9,brightness,readingArea,realistic,75,2023-03-20_14h14.56.297,tripletExp_regina_11082022,2022.2.4,120.3399342395951,
14,9,0,0,0.25,3.10526315789474,0,0.444444444444444,1.0,0,0.027777777777778,0.298245614035088,ReadingArea_rsl0-rcl25-esl310-rsm0-rcm44-esm100-rsr0-rcr2-esr29,exr/ReadingArea_rsl0-rcl25-esl310-rsm0-rcm44-esm100-rsr0-rcr2-esr29.exr,ReadingArea_rsl0-rcl25-esl310-rsm0-rcm44-esm100-rsr0-rcr2-esr29.npz,,,,,0,173,173,313,,,left,green,0.7,712.1411430835724,712.5833690166473,,3,,3,9,brightness,readingArea,realistic,75,2023-03-20_14h14.56.297,tripletExp_regina_11082022,2022.2.4,120.3399342395951,
3,14,12,0,0.444444444444444,0.298245614035088,0,0.25,3.10526315789474,0,0.027777777777778,3.10526315789474,ReadingArea_rsl0-rcl44-esl29-rsm0-rcm25-esm310-rsr0-rcr2-esr310,exr/ReadingArea_rsl0-rcl44-esl29-rsm0-rcm25-esm310-rsr0-rcr2-esr310.exr,ReadingArea_rsl0-rcl44-esl29-rsm0-rcm25-esm310-rsr0-rcr2-esr310.npz,,,,,0,174,174,336,,,left,green,1.43,714.2803709506989,714.7180259227753,,3,,3,9,brightness,readingArea,realistic,75,2023-03-20_14h14.56.297,tripletExp_regina_11082022,2022.2.4,120.3399342395951,
0,14,11,0,0.027777777777778,0.298245614035088,0,0.25,3.10526315789474,0,1.0,1.0,ReadingArea_rsl0-rcl2-esl29-rsm0-rcm25-esm310-rsr0-rcr100-esr100,exr/ReadingArea_rsl0-rcl2-esl29-rsm0-rcm25-esm310-rsr0-rcr100-esr100.exr,ReadingArea_rsl0-rcl2-esl29-rsm0-rcm25-esm310-rsr0-rcr100-esr100.npz,,,,,0,175,175,557,,,right,red,0.95,716.4190790653229,717.052374124527,,3,,3,9,brightness,readingArea,realistic,75,2023-03-20_14h14.56.297,tripletExp_regina_11082022,2022.2.4,120.3399342395951,
2,8,11,0,0.25,0.298245614035088,0,0.25,1.0,0,1.0,1.0,ReadingArea_rsl0-rcl25-esl29-rsm0-rcm25-esm100-rsr0-rcr100-esr100,exr/ReadingArea_rsl0-rcl25-esl29-rsm0-rcm25-esm100-rsr0-rcr100-esr100.exr,ReadingArea_rsl0-rcl25-esl29-rsm0-rcm25-esm100-rsr0-rcr100-esr100.npz,,,,,0,176,176,225,,,left,green,1.12,718.7458961009979,719.1977150440216,,3,,3,9,brightness,readingArea,realistic,75,2023-03-20_14h14.56.297,tripletExp_regina_11082022,2022.2.4,120.3399342395951,
7,13,4,0,0.111111111111111,1.0,0,0.111111111111111,3.10526315789474,0,0.694444444444444,0.298245614035088,ReadingArea_rsl0-rcl11-esl100-rsm0-rcm11-esm310-rsr0-rcr69-esr29,exr/ReadingArea_rsl0-rcl11-esl100-rsm0-rcm11-esm310-rsr0-rcr69-esr29.exr,ReadingArea_rsl0-rcl11-esl100-rsm0-rcm11-esm310-rsr0-rcr69-esr29.npz,,,,,0,177,177,456,,,right,red,3.27,722.6682839393616,723.1140539646149,,3,,3,9,brightness,readingArea,realistic,75,2023-03-20_14h14.56.297,tripletExp_regina_11082022,2022.2.4,120.3399342395951,
14,0,3,0,0.25,3.10526315789474,0,0.027777777777778,0.298245614035088,0,0.444444444444444,0.298245614035088,ReadingArea_rsl0-rcl25-esl310-rsm0-rcm2-esm29-rsr0-rcr44-esr29,exr/ReadingArea_rsl0-rcl25-esl310-rsm0-rcm2-esm29-rsr0-rcr44-esr29.exr,ReadingArea_rsl0-rcl25-esl310-rsm0-rcm2-esm29-rsr0-rcr44-esr29.npz,,,,,0,178,178,75,,,right,red,1.07,724.8098771572113,725.2725851535797,,3,,3,9,brightness,readingArea,realistic,75,2023-03-20_14h14.56.297,tripletExp_regina_11082022,2022.2.4,120.3399342395951,
1,8,12,0,0.111111111111111,0.298245614035088,0,0.25,1.0,0,0.027777777777778,3.10526315789474,ReadingArea_rsl0-rcl11-esl29-rsm0-rcm25-esm100-rsr0-rcr2-esr310,exr/ReadingArea_rsl0-rcl11-esl29-rsm0-rcm25-esm100-rsr0-rcr2-esr310.exr,ReadingArea_rsl0-rcl11-esl29-rsm0-rcm25-esm100-rsr0-rcr2-esr310.npz,,,,,0,179,179,156,,,right,red,3.04,728.7657949924469,729.2866280078888,,3,,3,9,brightness,readingArea,realistic,75,2023-03-20_14h14.56.297,tripletExp_regina_11082022,2022.2.4,120.3399342395951,
13,9,4,0,0.111111111111111,3.10526315789474,0,0.444444444444444,1.0,0,0.694444444444444,0.298245614035088,ReadingArea_rsl0-rcl11-esl310-rsm0-rcm44-esm100-rsr0-rcr69-esr29,exr/ReadingArea_rsl0-rcl11-esl310-rsm0-rcm44-esm100-rsr0-rcr69-esr29.exr,ReadingArea_rsl0-rcl11-esl310-rsm0-rcm44-esm100-rsr0-rcr69-esr29.npz,,,,,0,180,180,444,,,right,red,1.55,730.9807600975037,731.4299631118774,,3,,3,9,brightness,readingArea,realistic,75,2023-03-20_14h14.56.297,tripletExp_regina_11082022,2022.2.4,120.3399342395951,
11,5,3,0,1.0,1.0,0,1.0,0.298245614035088,0,0.444444444444444,0.298245614035088,ReadingArea_rsl0-rcl100-esl100-rsm0-rcm100-esm29-rsr0-rcr44-esr29,exr/ReadingArea_rsl0-rcl100-esl100-rsm0-rcm100-esm29-rsr0-rcr44-esr29.exr,ReadingArea_rsl0-rcl100-esl100-rsm0-rcm100-esm29-rsr0-rcr44-esr29.npz,,,,,0,181,181,172,,,right,red,2.92,734.883770942688,735.3461620807648,,3,,3,9,brightness,readingArea,realistic,75,2023-03-20_14h14.56.297,tripletExp_regina_11082022,2022.2.4,120.3399342395951,
12,5,4,0,0.027777777777778,3.10526315789474,0,1.0,0.298245614035088,0,0.694444444444444,0.298245614035088,ReadingArea_rsl0-rcl2-esl310-rsm0-rcm100-esm29-rsr0-rcr69-esr29,exr/ReadingArea_rsl0-rcl2-esl310-rsm0-rcm100-esm29-rsr0-rcr69-esr29.exr,ReadingArea_rsl0-rcl2-esl310-rsm0-rcm100-esm29-rsr0-rcr69-esr29.npz,,,,,0,182,182,566,,,right,red,0.88,737.0474290847778,737.4852359294891,,3,,3,9,brightness,readingArea,realistic,75,2023-03-20_14h14.56.297,tripletExp_regina_11082022,2022.2.4,120.3399342395951,
3,12,6,0,0.444444444444444,0.298245614035088,0,0.027777777777778,3.10526315789474,0,0.027777777777778,1.0,ReadingArea_rsl0-rcl44-esl29-rsm0-rcm2-esm310-rsr0-rcr2-esr100,exr/ReadingArea_rsl0-rcl44-esl29-rsm0-rcm2-esm310-rsr0-rcr2-esr100.exr,ReadingArea_rsl0-rcl44-esl29-rsm0-rcm2-esm310-rsr0-rcr2-esr100.npz,,,,,0,183,183,353,,,right,red,1.12,739.1894340515137,739.6298079490662,,3,,3,9,brightness,readingArea,realistic,75,2023-03-20_14h14.56.297,tripletExp_regina_11082022,2022.2.4,120.3399342395951,
8,1,3,0,0.25,1.0,0,0.111111111111111,0.298245614035088,0,0.444444444444444,0.298245614035088,ReadingArea_rsl0-rcl25-esl100-rsm0-rcm11-esm29-rsr0-rcr44-esr29,exr/ReadingArea_rsl0-rcl25-esl100-rsm0-rcm11-esm29-rsr0-rcr44-esr29.exr,ReadingArea_rsl0-rcl25-esl100-rsm0-rcm11-esm29-rsr0-rcr44-esr29.npz,,,,,0,184,184,490,,,right,red,1.58,741.3233981132507,741.8978641033173,,3,,3,9,brightness,readingArea,realistic,75,2023-03-20_14h14.56.297,tripletExp_regina_11082022,2022.2.4,120.3399342395951,
12,14,4,0,0.027777777777778,3.10526315789474,0,0.25,3.10526315789474,0,0.694444444444444,0.298245614035088,ReadingArea_rsl0-rcl2-esl310-rsm0-rcm25-esm310-rsr0-rcr69-esr29,exr/ReadingArea_rsl0-rcl2-esl310-rsm0-rcm25-esm310-rsr0-rcr69-esr29.exr,ReadingArea_rsl0-rcl2-esl310-rsm0-rcm25-esm310-rsr0-rcr69-esr29.npz,,,,,0,185,185,315,,,right,red,1.69,743.5927269458771,,,3,,3,9,brightness,readingArea,realistic,75,2023-03-20_14h14.56.297,tripletExp_regina_11082022,2022.2.4,120.3399342395951,
14,6,11,0,0.25,3.10526315789474,0,0.027777777777778,1.0,0,1.0,1.0,ReadingArea_rsl0-rcl25-esl310-rsm0-rcm2-esm100-rsr0-rcr100-esr100,exr/ReadingArea_rsl0-rcl25-esl310-rsm0-rcm2-esm100-rsr0-rcr100-esr100.exr,ReadingArea_rsl0-rcl25-esl310-rsm0-rcm2-esm100-rsr0-rcr100-esr100.npz,,,,,0,186,186,337,,,left,green,1.61,745.7468841075897,746.1794979572296,,3,,3,9,brightness,readingArea,realistic,75,2023-03-20_14h14.56.297,tripletExp_regina_11082022,2022.2.4,120.3399342395951,
7,2,0,0,0.111111111111111,1.0,0,0.25,0.298245614035088,0,0.027777777777778,0.298245614035088,ReadingArea_rsl0-rcl11-esl100-rsm0-rcm25-esm29-rsr0-rcr2-esr29,exr/ReadingArea_rsl0-rcl11-esl100-rsm0-rcm25-esm29-rsr0-rcr2-esr29.exr,ReadingArea_rsl0-rcl11-esl100-rsm0-rcm25-esm29-rsr0-rcr2-esr29.npz,,,,,0,187,187,520,,,left,green,1.0,747.8715829849243,748.3247880935669,,3,,3,9,brightness,readingArea,realistic,75,2023-03-20_14h14.56.297,tripletExp_regina_11082022,2022.2.4,120.3399342395951,
7,8,11,0,0.111111111111111,1.0,0,0.25,1.0,0,1.0,1.0,ReadingArea_rsl0-rcl11-esl100-rsm0-rcm25-esm100-rsr0-rcr100-esr100,exr/ReadingArea_rsl0-rcl11-esl100-rsm0-rcm25-esm100-rsr0-rcr100-esr100.exr,ReadingArea_rsl0-rcl11-esl100-rsm0-rcm25-esm100-rsr0-rcr100-esr100.npz,,,,,0,188,188,363,,,left,green,3.54,751.7944860458374,752.2869501113892,,3,,3,9,brightness,readingArea,realistic,75,2023-03-20_14h14.56.297,tripletExp_regina_11082022,2022.2.4,120.3399342395951,
4,7,10,0,0.694444444444444,0.298245614035088,0,0.111111111111111,1.0,0,0.694444444444444,1.0,ReadingArea_rsl0-rcl69-esl29-rsm0-rcm11-esm100-rsr0-rcr69-esr100,exr/ReadingArea_rsl0-rcl69-esl29-rsm0-rcm11-esm100-rsr0-rcr69-esr100.exr,ReadingArea_rsl0-rcl69-esl29-rsm0-rcm11-esm100-rsr0-rcr69-esr100.npz,,,,,0,189,189,8,,,left,green,0.86,753.9876930713654,754.487725019455,,3,,3,9,brightness,readingArea,realistic,75,2023-03-20_14h14.56.297,tripletExp_regina_11082022,2022.2.4,120.3399342395951,
10,5,2,0,0.694444444444444,1.0,0,1.0,0.298245614035088,0,0.25,0.298245614035088,ReadingArea_rsl0-rcl69-esl100-rsm0-rcm100-esm29-rsr0-rcr25-esr29,exr/ReadingArea_rsl0-rcl69-esl100-rsm0-rcm100-esm29-rsr0-rcr25-esr29.exr,ReadingArea_rsl0-rcl69-esl100-rsm0-rcm100-esm29-rsr0-rcr25-esr29.npz,,,,,0,190,190,299,,,left,green,3.0,757.9539051055908,758.3900129795074,,3,,3,9,brightness,readingArea,realistic,75,2023-03-20_14h14.56.297,tripletExp_regina_11082022,2022.2.4,120.3399342395951,
11,12,1,0,1.0,1.0,0,0.027777777777778,3.10526315789474,0,0.111111111111111,0.298245614035088,ReadingArea_rsl0-rcl100-esl100-rsm0-rcm2-esm310-rsr0-rcr11-esr29,exr/ReadingArea_rsl0-rcl100-esl100-rsm0-rcm2-esm310-rsr0-rcr11-esr29.exr,ReadingArea_rsl0-rcl100-esl100-rsm0-rcm2-esm310-rsr0-rcr11-esr29.npz,,,,,0,191,191,140,,,right,red,0.84,760.0857880115509,760.6065890789032,,3,,3,9,brightness,readingArea,realistic,75,2023-03-20_14h14.56.297,tripletExp_regina_11082022,2022.2.4,120.3399342395951,
2,13,3,0,0.25,0.298245614035088,0,0.111111111111111,3.10526315789474,0,0.444444444444444,0.298245614035088,ReadingArea_rsl0-rcl25-esl29-rsm0-rcm11-esm310-rsr0-rcr44-esr29,exr/ReadingArea_rsl0-rcl25-esl29-rsm0-rcm11-esm310-rsr0-rcr44-esr29.exr,ReadingArea_rsl0-rcl25-esl29-rsm0-rcm11-esm310-rsr0-rcr44-esr29.npz,,,,,0,192,192,473,,,right,red,1.0,762.3029079437256,762.9065279960632,,3,,3,9,brightness,readingArea,realistic,75,2023-03-20_14h14.56.297,tripletExp_regina_11082022,2022.2.4,120.3399342395951,
12,9,14,0,0.027777777777778,3.10526315789474,0,0.444444444444444,1.0,0,0.25,3.10526315789474,ReadingArea_rsl0-rcl2-esl310-rsm0-rcm44-esm100-rsr0-rcr25-esr310,exr/ReadingArea_rsl0-rcl2-esl310-rsm0-rcm44-esm100-rsr0-rcr25-esr310.exr,ReadingArea_rsl0-rcl2-esl310-rsm0-rcm44-esm100-rsr0-rcr25-esr310.npz,,,,,0,193,193,123,,,right,red,3.51,766.3785960674286,766.8802621364594,,3,,3,9,brightness,readingArea,realistic,75,2023-03-20_14h14.56.297,tripletExp_regina_11082022,2022.2.4,120.3399342395951,
14,12,5,0,0.25,3.10526315789474,0,0.027777777777778,3.10526315789474,0,1.0,0.298245614035088,ReadingArea_rsl0-rcl25-esl310-rsm0-rcm2-esm310-rsr0-rcr100-esr29,exr/ReadingArea_rsl0-rcl25-esl310-rsm0-rcm2-esm310-rsr0-rcr100-esr29.exr,ReadingArea_rsl0-rcl25-esl310-rsm0-rcm2-esm310-rsr0-rcr100-esr29.npz,,,,,0,194,194,335,,,right,red,1.02,768.572692155838,769.0259959697723,,3,,3,9,brightness,readingArea,realistic,75,2023-03-20_14h14.56.297,tripletExp_regina_11082022,2022.2.4,120.3399342395951,
0,13,12,0,0.027777777777778,0.298245614035088,0,0.111111111111111,3.10526315789474,0,0.027777777777778,3.10526315789474,ReadingArea_rsl0-rcl2-esl29-rsm0-rcm11-esm310-rsr0-rcr2-esr310,exr/ReadingArea_rsl0-rcl2-esl29-rsm0-rcm11-esm310-rsr0-rcr2-esr310.exr,ReadingArea_rsl0-rcl2-esl29-rsm0-rcm11-esm310-rsr0-rcr2-esr310.npz,,,,,0,195,195,501,,,right,red,1.24,770.7485420703888,771.194962978363,,3,,3,9,brightness,readingArea,realistic,75,2023-03-20_14h14.56.297,tripletExp_regina_11082022,2022.2.4,120.3399342395951,
10,11,4,0,0.694444444444444,1.0,0,1.0,1.0,0,0.694444444444444,0.298245614035088,ReadingArea_rsl0-rcl69-esl100-rsm0-rcm100-esm100-rsr0-rcr69-esr29,exr/ReadingArea_rsl0-rcl69-esl100-rsm0-rcm100-esm100-rsr0-rcr69-esr29.exr,ReadingArea_rsl0-rcl69-esl100-rsm0-rcm100-esm100-rsr0-rcr69-esr29.npz,,,,,0,196,196,239,,,left,green,0.83,772.8844020366669,773.3619620800018,,3,,3,9,brightness,readingArea,realistic,75,2023-03-20_14h14.56.297,tripletExp_regina_11082022,2022.2.4,120.3399342395951,
10,8,1,0,0.694444444444444,1.0,0,0.25,1.0,0,0.111111111111111,0.298245614035088,ReadingArea_rsl0-rcl69-esl100-rsm0-rcm25-esm100-rsr0-rcr11-esr29,exr/ReadingArea_rsl0-rcl69-esl100-rsm0-rcm25-esm100-rsr0-rcr11-esr29.exr,ReadingArea_rsl0-rcl69-esl100-rsm0-rcm25-esm100-rsr0-rcr11-esr29.npz,,,,,0,197,197,247,,,left,green,2.76,776.8178460597992,777.272784948349,,3,,3,9,brightness,readingArea,realistic,75,2023-03-20_14h14.56.297,tripletExp_regina_11082022,2022.2.4,120.3399342395951,
1,13,2,0,0.111111111111111,0.298245614035088,0,0.111111111111111,3.10526315789474,0,0.25,0.298245614035088,ReadingArea_rsl0-rcl11-esl29-rsm0-rcm11-esm310-rsr0-rcr25-esr29,exr/ReadingArea_rsl0-rcl11-esl29-rsm0-rcm11-esm310-rsr0-rcr25-esr29.exr,ReadingArea_rsl0-rcl11-esl29-rsm0-rcm11-esm310-rsr0-rcr25-esr29.npz,,,,,0,198,198,118,,,right,red,0.9,778.9660959243774,779.4291989803314,,3,,3,9,brightness,readingArea,realistic,75,2023-03-20_14h14.56.297,tripletExp_regina_11082022,2022.2.4,120.3399342395951,
5,10,12,0,1.0,0.298245614035088,0,0.694444444444444,1.0,0,0.027777777777778,3.10526315789474,ReadingArea_rsl0-rcl100-esl29-rsm0-rcm69-esm100-rsr0-rcr2-esr310,exr/ReadingArea_rsl0-rcl100-esl29-rsm0-rcm69-esm100-rsr0-rcr2-esr310.exr,ReadingArea_rsl0-rcl100-esl29-rsm0-rcm69-esm100-rsr0-rcr2-esr310.npz,,,,,0,199,199,587,,,left,green,1.03,781.1191880702972,781.5639591217041,,3,,3,9,brightness,readingArea,realistic,75,2023-03-20_14h14.56.297,tripletExp_regina_11082022,2022.2.4,120.3399342395951,
2,3,4,0,0.25,0.298245614035088,0,0.444444444444444,0.298245614035088,0,0.694444444444444,0.298245614035088,ReadingArea_rsl0-rcl25-esl29-rsm0-rcm44-esm29-rsr0-rcr69-esr29,exr/ReadingArea_rsl0-rcl25-esl29-rsm0-rcm44-esm29-rsr0-rcr69-esr29.exr,ReadingArea_rsl0-rcl25-esl29-rsm0-rcm44-esm29-rsr0-rcr69-esr29.npz,,,,,0,200,200,61,,,left,green,4.87,786.7951300144196,787.2464649677277,,3,,3,9,brightness,readingArea,realistic,75,2023-03-20_14h14.56.297,tripletExp_regina_11082022,2022.2.4,120.3399342395951,
14,7,1,0,0.25,3.10526315789474,0,0.111111111111111,1.0,0,0.111111111111111,0.298245614035088,ReadingArea_rsl0-rcl25-esl310-rsm0-rcm11-esm100-rsr0-rcr11-esr29,exr/ReadingArea_rsl0-rcl25-esl310-rsm0-rcm11-esm100-rsr0-rcr11-esr29.exr,ReadingArea_rsl0-rcl25-esl310-rsm0-rcm11-esm100-rsr0-rcr11-esr29.npz,,,,,0,201,201,298,,,right,red,1.28,788.9387321472168,789.4665150642395,,3,,3,9,brightness,readingArea,realistic,75,2023-03-20_14h14.56.297,tripletExp_regina_11082022,2022.2.4,120.3399342395951,
8,12,7,0,0.25,1.0,0,0.027777777777778,3.10526315789474,0,0.111111111111111,1.0,ReadingArea_rsl0-rcl25-esl100-rsm0-rcm2-esm310-rsr0-rcr11-esr100,exr/ReadingArea_rsl0-rcl25-esl100-rsm0-rcm2-esm310-rsr0-rcr11-esr100.exr,ReadingArea_rsl0-rcl25-esl100-rsm0-rcm2-esm310-rsr0-rcr11-esr100.npz,,,,,0,202,202,467,,,right,red,1.32,791.1630890369415,791.6266119480133,,3,,3,9,brightness,readingArea,realistic,75,2023-03-20_14h14.56.297,tripletExp_regina_11082022,2022.2.4,120.3399342395951,
