index_left,index_middle,index_right,reflectance_surround_left,reflectance_center_left,emission_spot_left,reflectance_surround_middle,reflectance_center_middle,emission_spot_middle,reflectance_surround_right,reflectance_center_right,emission_spot_right,ImageName,ImageExr,ImageNpy,trials_2.thisRepN,trials_2.thisTrialN,trials_2.thisN,trials_2.thisIndex,trials.thisRepN,trials.thisTrialN,trials.thisN,trials.thisIndex,sound_1.started,sound_1.stopped,BB_Trial.resp,BB_Trial.color,BB_Trial.rt,text.started,text.stopped,sound_2.started,block,sound_4.started,participant,session,L/B,scene,condition,nTrialsPerBlock,date,expName,psychopyVersion,frameRate,Unnamed: 43
6,4,10,2,0.027777777777778,1.0,2,0.694444444444444,0.298245614035088,2,0.694444444444444,1.0,ReadingArea_rsl2-rcl2-esl100-rsm2-rcm69-esm29-rsr2-rcr69-esr100,exr/ReadingArea_rsl2-rcl2-esl100-rsm2-rcm69-esm29-rsr2-rcr69-esr100.exr,ReadingArea_rsl2-rcl2-esl100-rsm2-rcm69-esm29-rsr2-rcr69-esr100.npz,,,,,0,0,0,554,122.238534784317,100.126384973526,right,red,0.97,132.30872797966003,132.7186679840088,46.4237726688385,1,,5,2,lightness,readingArea,realistic,75,2023-03-13_15h05.54.393,tripletExp_regina_11082022,2022.2.4,120.22265663068464,
2,5,3,2,0.25,0.298245614035088,2,1.0,0.298245614035088,2,0.444444444444444,0.298245614035088,ReadingArea_rsl2-rcl25-esl29-rsm2-rcm100-esm29-rsr2-rcr44-esr29,exr/ReadingArea_rsl2-rcl25-esl29-rsm2-rcm100-esm29-rsr2-rcr44-esr29.exr,ReadingArea_rsl2-rcl25-esl29-rsm2-rcm100-esm29-rsr2-rcr44-esr29.npz,,,,,0,1,1,135,,,right,red,1.41,134.45119190216064,,,1,,5,2,lightness,readingArea,realistic,75,2023-03-13_15h05.54.393,tripletExp_regina_11082022,2022.2.4,120.22265663068464,
12,11,6,2,0.027777777777778,3.10526315789474,2,1.0,1.0,2,0.027777777777778,1.0,ReadingArea_rsl2-rcl2-esl310-rsm2-rcm100-esm100-rsr2-rcr2-esr100,exr/ReadingArea_rsl2-rcl2-esl310-rsm2-rcm100-esm100-rsr2-rcr2-esr100.exr,ReadingArea_rsl2-rcl2-esl310-rsm2-rcm100-esm100-rsr2-rcr2-esr100.npz,,,,,0,2,2,163,,,left,green,1.16,136.55959391593933,,,1,,5,2,lightness,readingArea,realistic,75,2023-03-13_15h05.54.393,tripletExp_regina_11082022,2022.2.4,120.22265663068464,
5,1,4,2,1.0,0.298245614035088,2,0.111111111111111,0.298245614035088,2,0.694444444444444,0.298245614035088,ReadingArea_rsl2-rcl100-esl29-rsm2-rcm11-esm29-rsr2-rcr69-esr29,exr/ReadingArea_rsl2-rcl100-esl29-rsm2-rcm11-esm29-rsr2-rcr69-esr29.exr,ReadingArea_rsl2-rcl100-esl29-rsm2-rcm11-esm29-rsr2-rcr69-esr29.npz,,,,,0,3,3,287,,,left,green,1.33,138.59953689575195,138.9480481147766,,1,,5,2,lightness,readingArea,realistic,75,2023-03-13_15h05.54.393,tripletExp_regina_11082022,2022.2.4,120.22265663068464,
14,13,6,2,0.25,3.10526315789474,2,0.111111111111111,3.10526315789474,2,0.027777777777778,1.0,ReadingArea_rsl2-rcl25-esl310-rsm2-rcm11-esm310-rsr2-rcr2-esr100,exr/ReadingArea_rsl2-rcl25-esl310-rsm2-rcm11-esm310-rsr2-rcr2-esr100.exr,ReadingArea_rsl2-rcl25-esl310-rsm2-rcm11-esm310-rsr2-rcr2-esr100.npz,,,,,0,4,4,102,,,left,green,1.23,140.65201210975647,,,1,,5,2,lightness,readingArea,realistic,75,2023-03-13_15h05.54.393,tripletExp_regina_11082022,2022.2.4,120.22265663068464,
8,12,7,2,0.25,1.0,2,0.027777777777778,3.10526315789474,2,0.111111111111111,1.0,ReadingArea_rsl2-rcl25-esl100-rsm2-rcm2-esm310-rsr2-rcr11-esr100,exr/ReadingArea_rsl2-rcl25-esl100-rsm2-rcm2-esm310-rsr2-rcr11-esr100.exr,ReadingArea_rsl2-rcl25-esl100-rsm2-rcm2-esm310-rsr2-rcr11-esr100.npz,,,,,0,5,5,467,,,right,red,1.32,142.71223211288452,143.07723212242126,,1,,5,2,lightness,readingArea,realistic,75,2023-03-13_15h05.54.393,tripletExp_regina_11082022,2022.2.4,120.22265663068464,
7,13,4,2,0.111111111111111,1.0,2,0.111111111111111,3.10526315789474,2,0.694444444444444,0.298245614035088,ReadingArea_rsl2-rcl11-esl100-rsm2-rcm11-esm310-rsr2-rcr69-esr29,exr/ReadingArea_rsl2-rcl11-esl100-rsm2-rcm11-esm310-rsr2-rcr69-esr29.exr,ReadingArea_rsl2-rcl11-esl100-rsm2-rcm11-esm310-rsr2-rcr69-esr29.npz,,,,,0,6,6,456,,,right,red,3.01,146.56569910049438,147.0273950099945,,1,,5,2,lightness,readingArea,realistic,75,2023-03-13_15h05.54.393,tripletExp_regina_11082022,2022.2.4,120.22265663068464,
8,9,1,2,0.25,1.0,2,0.444444444444444,1.0,2,0.111111111111111,0.298245614035088,ReadingArea_rsl2-rcl25-esl100-rsm2-rcm44-esm100-rsr2-rcr11-esr29,exr/ReadingArea_rsl2-rcl25-esl100-rsm2-rcm44-esm100-rsr2-rcr11-esr29.exr,ReadingArea_rsl2-rcl25-esl100-rsm2-rcm44-esm100-rsr2-rcr11-esr29.npz,,,,,0,7,7,266,,,left,green,2.67,150.5080049037933,150.85464692115784,,1,,5,2,lightness,readingArea,realistic,75,2023-03-13_15h05.54.393,tripletExp_regina_11082022,2022.2.4,120.22265663068464,
7,1,9,2,0.111111111111111,1.0,2,0.111111111111111,0.298245614035088,2,0.444444444444444,1.0,ReadingArea_rsl2-rcl11-esl100-rsm2-rcm11-esm29-rsr2-rcr44-esr100,exr/ReadingArea_rsl2-rcl11-esl100-rsm2-rcm11-esm29-rsr2-rcr44-esr100.exr,ReadingArea_rsl2-rcl11-esl100-rsm2-rcm11-esm29-rsr2-rcr44-esr100.npz,,,,,0,8,8,89,,,left,green,2.53,154.31717610359192,154.74092292785645,,1,,5,2,lightness,readingArea,realistic,75,2023-03-13_15h05.54.393,tripletExp_regina_11082022,2022.2.4,120.22265663068464,
11,7,10,2,1.0,1.0,2,0.111111111111111,1.0,2,0.694444444444444,1.0,ReadingArea_rsl2-rcl100-esl100-rsm2-rcm11-esm100-rsr2-rcr69-esr100,exr/ReadingArea_rsl2-rcl100-esl100-rsm2-rcm11-esm100-rsr2-rcr69-esr100.exr,ReadingArea_rsl2-rcl100-esl100-rsm2-rcm11-esm100-rsr2-rcr69-esr100.npz,,,,,0,9,9,411,,,left,green,1.89,158.20772004127502,158.61337208747864,,1,,5,2,lightness,readingArea,realistic,75,2023-03-13_15h05.54.393,tripletExp_regina_11082022,2022.2.4,120.22265663068464,
0,14,11,2,0.027777777777778,0.298245614035088,2,0.25,3.10526315789474,2,1.0,1.0,ReadingArea_rsl2-rcl2-esl29-rsm2-rcm25-esm310-rsr2-rcr100-esr100,exr/ReadingArea_rsl2-rcl2-esl29-rsm2-rcm25-esm310-rsr2-rcr100-esr100.exr,ReadingArea_rsl2-rcl2-esl29-rsm2-rcm25-esm310-rsr2-rcr100-esr100.npz,,,,,0,10,10,557,,,right,red,2.19,162.06639194488525,162.48162508010864,,1,,5,2,lightness,readingArea,realistic,75,2023-03-13_15h05.54.393,tripletExp_regina_11082022,2022.2.4,120.22265663068464,
14,7,8,2,0.25,3.10526315789474,2,0.111111111111111,1.0,2,0.25,1.0,ReadingArea_rsl2-rcl25-esl310-rsm2-rcm11-esm100-rsr2-rcr25-esr100,exr/ReadingArea_rsl2-rcl25-esl310-rsm2-rcm11-esm100-rsr2-rcr25-esr100.exr,ReadingArea_rsl2-rcl25-esl310-rsm2-rcm11-esm100-rsr2-rcr25-esr100.npz,,,,,0,11,11,326,,,right,red,1.19,164.17307090759277,164.52671790122986,,1,,5,2,lightness,readingArea,realistic,75,2023-03-13_15h05.54.393,tripletExp_regina_11082022,2022.2.4,120.22265663068464,
12,14,8,2,0.027777777777778,3.10526315789474,2,0.25,3.10526315789474,2,0.25,1.0,ReadingArea_rsl2-rcl2-esl310-rsm2-rcm25-esm310-rsr2-rcr25-esr100,exr/ReadingArea_rsl2-rcl2-esl310-rsm2-rcm25-esm310-rsr2-rcr25-esr100.exr,ReadingArea_rsl2-rcl2-esl310-rsm2-rcm25-esm310-rsr2-rcr25-esr100.npz,,,,,0,12,12,466,,,right,red,2.12,167.99801802635193,,,1,,5,2,lightness,readingArea,realistic,75,2023-03-13_15h05.54.393,tripletExp_regina_11082022,2022.2.4,120.22265663068464,
13,6,1,2,0.111111111111111,3.10526315789474,2,0.027777777777778,1.0,2,0.111111111111111,0.298245614035088,ReadingArea_rsl2-rcl11-esl310-rsm2-rcm2-esm100-rsr2-rcr11-esr29,exr/ReadingArea_rsl2-rcl11-esl310-rsm2-rcm2-esm100-rsr2-rcr11-esr29.exr,ReadingArea_rsl2-rcl11-esl310-rsm2-rcm2-esm100-rsr2-rcr11-esr29.npz,,,,,0,13,13,486,,,right,red,2.86,171.84669589996338,172.1943850517273,,1,,5,2,lightness,readingArea,realistic,75,2023-03-13_15h05.54.393,tripletExp_regina_11082022,2022.2.4,120.22265663068464,
9,4,6,2,0.444444444444444,1.0,2,0.694444444444444,0.298245614035088,2,0.027777777777778,1.0,ReadingArea_rsl2-rcl44-esl100-rsm2-rcm69-esm29-rsr2-rcr2-esr100,exr/ReadingArea_rsl2-rcl44-esl100-rsm2-rcm69-esm29-rsr2-rcr2-esr100.exr,ReadingArea_rsl2-rcl44-esl100-rsm2-rcm69-esm29-rsr2-rcr2-esr100.npz,,,,,0,14,14,453,,,left,green,1.04,173.8938319683075,174.24559712409973,,1,,5,2,lightness,readingArea,realistic,75,2023-03-13_15h05.54.393,tripletExp_regina_11082022,2022.2.4,120.22265663068464,
6,2,12,2,0.027777777777778,1.0,2,0.25,0.298245614035088,2,0.027777777777778,3.10526315789474,ReadingArea_rsl2-rcl2-esl100-rsm2-rcm25-esm29-rsr2-rcr2-esr310,exr/ReadingArea_rsl2-rcl2-esl100-rsm2-rcm25-esm29-rsr2-rcr2-esr310.exr,ReadingArea_rsl2-rcl2-esl100-rsm2-rcm25-esm29-rsr2-rcr2-esr310.npz,,,,,0,15,15,480,,,right,red,2.5,177.71363592147827,178.0506100654602,,1,,5,2,lightness,readingArea,realistic,75,2023-03-13_15h05.54.393,tripletExp_regina_11082022,2022.2.4,120.22265663068464,
4,8,14,2,0.694444444444444,0.298245614035088,2,0.25,1.0,2,0.25,3.10526315789474,ReadingArea_rsl2-rcl69-esl29-rsm2-rcm25-esm100-rsr2-rcr25-esr310,exr/ReadingArea_rsl2-rcl69-esl29-rsm2-rcm25-esm100-rsr2-rcr25-esr310.exr,ReadingArea_rsl2-rcl69-esl29-rsm2-rcm25-esm100-rsr2-rcr25-esr310.npz,,,,,0,16,16,234,,,left,green,0.91,179.74375891685486,180.09346103668213,,1,,5,2,lightness,readingArea,realistic,75,2023-03-13_15h05.54.393,tripletExp_regina_11082022,2022.2.4,120.22265663068464,
9,0,14,2,0.444444444444444,1.0,2,0.027777777777778,0.298245614035088,2,0.25,3.10526315789474,ReadingArea_rsl2-rcl44-esl100-rsm2-rcm2-esm29-rsr2-rcr25-esr310,exr/ReadingArea_rsl2-rcl44-esl100-rsm2-rcm2-esm29-rsr2-rcr25-esr310.exr,ReadingArea_rsl2-rcl44-esl100-rsm2-rcm2-esm29-rsr2-rcr25-esr310.npz,,,,,0,17,17,550,,,left,green,2.22,183.57206392288208,183.9183099269867,,1,,5,2,lightness,readingArea,realistic,75,2023-03-13_15h05.54.393,tripletExp_regina_11082022,2022.2.4,120.22265663068464,
14,12,0,2,0.25,3.10526315789474,2,0.027777777777778,3.10526315789474,2,0.027777777777778,0.298245614035088,ReadingArea_rsl2-rcl25-esl310-rsm2-rcm2-esm310-rsr2-rcr2-esr29,exr/ReadingArea_rsl2-rcl25-esl310-rsm2-rcm2-esm310-rsr2-rcr2-esr29.exr,ReadingArea_rsl2-rcl25-esl310-rsm2-rcm2-esm310-rsr2-rcr2-esr29.npz,,,,,0,18,18,409,,,right,red,2.55,187.38765406608584,187.72563099861145,,1,,5,2,lightness,readingArea,realistic,75,2023-03-13_15h05.54.393,tripletExp_regina_11082022,2022.2.4,120.22265663068464,
10,7,3,2,0.694444444444444,1.0,2,0.111111111111111,1.0,2,0.444444444444444,0.298245614035088,ReadingArea_rsl2-rcl69-esl100-rsm2-rcm11-esm100-rsr2-rcr44-esr29,exr/ReadingArea_rsl2-rcl69-esl100-rsm2-rcm11-esm100-rsr2-rcr44-esr29.exr,ReadingArea_rsl2-rcl69-esl100-rsm2-rcm11-esm100-rsr2-rcr44-esr29.npz,,,,,0,19,19,582,,,right,red,1.31,189.4177179336548,,,1,,5,2,lightness,readingArea,realistic,75,2023-03-13_15h05.54.393,tripletExp_regina_11082022,2022.2.4,120.22265663068464,
8,1,10,2,0.25,1.0,2,0.111111111111111,0.298245614035088,2,0.694444444444444,1.0,ReadingArea_rsl2-rcl25-esl100-rsm2-rcm11-esm29-rsr2-rcr69-esr100,exr/ReadingArea_rsl2-rcl25-esl100-rsm2-rcm11-esm29-rsr2-rcr69-esr100.exr,ReadingArea_rsl2-rcl25-esl100-rsm2-rcm11-esm29-rsr2-rcr69-esr100.npz,,,,,0,20,20,442,,,left,green,2.51,193.263708114624,193.6049931049347,,1,,5,2,lightness,readingArea,realistic,75,2023-03-13_15h05.54.393,tripletExp_regina_11082022,2022.2.4,120.22265663068464,
4,12,6,2,0.694444444444444,0.298245614035088,2,0.027777777777778,3.10526315789474,2,0.027777777777778,1.0,ReadingArea_rsl2-rcl69-esl29-rsm2-rcm2-esm310-rsr2-rcr2-esr100,exr/ReadingArea_rsl2-rcl69-esl29-rsm2-rcm2-esm310-rsr2-rcr2-esr100.exr,ReadingArea_rsl2-rcl69-esl29-rsm2-rcm2-esm310-rsr2-rcr2-esr100.npz,,,,,0,21,21,99,,,left,green,2.29,197.08051800727844,197.4341859817505,,1,,5,2,lightness,readingArea,realistic,75,2023-03-13_15h05.54.393,tripletExp_regina_11082022,2022.2.4,120.22265663068464,
7,14,10,2,0.111111111111111,1.0,2,0.25,3.10526315789474,2,0.694444444444444,1.0,ReadingArea_rsl2-rcl11-esl100-rsm2-rcm25-esm310-rsr2-rcr69-esr100,exr/ReadingArea_rsl2-rcl11-esl100-rsm2-rcm25-esm310-rsr2-rcr69-esr100.exr,ReadingArea_rsl2-rcl11-esl100-rsm2-rcm25-esm310-rsr2-rcr69-esr100.npz,,,,,0,22,22,472,,,right,red,1.12,199.1276040077209,,,1,,5,2,lightness,readingArea,realistic,75,2023-03-13_15h05.54.393,tripletExp_regina_11082022,2022.2.4,120.22265663068464,
0,1,7,2,0.027777777777778,0.298245614035088,2,0.111111111111111,0.298245614035088,2,0.111111111111111,1.0,ReadingArea_rsl2-rcl2-esl29-rsm2-rcm11-esm29-rsr2-rcr11-esr100,exr/ReadingArea_rsl2-rcl2-esl29-rsm2-rcm11-esm29-rsr2-rcr11-esr100.exr,ReadingArea_rsl2-rcl2-esl29-rsm2-rcm11-esm29-rsr2-rcr11-esr100.npz,,,,,0,23,23,243,,,right,red,4.78,204.7314710617065,205.08716106414795,,1,,5,2,lightness,readingArea,realistic,75,2023-03-13_15h05.54.393,tripletExp_regina_11082022,2022.2.4,120.22265663068464,
12,13,10,2,0.027777777777778,3.10526315789474,2,0.111111111111111,3.10526315789474,2,0.694444444444444,1.0,ReadingArea_rsl2-rcl2-esl310-rsm2-rcm11-esm310-rsr2-rcr69-esr100,exr/ReadingArea_rsl2-rcl2-esl310-rsm2-rcm11-esm310-rsr2-rcr69-esr100.exr,ReadingArea_rsl2-rcl2-esl310-rsm2-rcm11-esm310-rsr2-rcr69-esr100.npz,,,,,0,24,24,295,,,left,green,2.25,208.57349491119385,208.92643094062805,,1,,5,2,lightness,readingArea,realistic,75,2023-03-13_15h05.54.393,tripletExp_regina_11082022,2022.2.4,120.22265663068464,
14,4,7,2,0.25,3.10526315789474,2,0.694444444444444,0.298245614035088,2,0.111111111111111,1.0,ReadingArea_rsl2-rcl25-esl310-rsm2-rcm69-esm29-rsr2-rcr11-esr100,exr/ReadingArea_rsl2-rcl25-esl310-rsm2-rcm69-esm29-rsr2-rcr11-esr100.exr,ReadingArea_rsl2-rcl25-esl310-rsm2-rcm69-esm29-rsr2-rcr11-esr100.npz,,,,,0,25,25,136,,,left,green,1.01,210.6199769973755,210.9827280044556,,1,,5,2,lightness,readingArea,realistic,75,2023-03-13_15h05.54.393,tripletExp_regina_11082022,2022.2.4,120.22265663068464,
4,14,12,2,0.694444444444444,0.298245614035088,2,0.25,3.10526315789474,2,0.027777777777778,3.10526315789474,ReadingArea_rsl2-rcl69-esl29-rsm2-rcm25-esm310-rsr2-rcr2-esr310,exr/ReadingArea_rsl2-rcl69-esl29-rsm2-rcm25-esm310-rsr2-rcr2-esr310.exr,ReadingArea_rsl2-rcl69-esl29-rsm2-rcm25-esm310-rsr2-rcr2-esr310.npz,,,,,0,26,26,392,,,left,green,1.13,212.6808440685272,213.033931016922,,1,,5,2,lightness,readingArea,realistic,75,2023-03-13_15h05.54.393,tripletExp_regina_11082022,2022.2.4,120.22265663068464,
13,9,4,2,0.111111111111111,3.10526315789474,2,0.444444444444444,1.0,2,0.694444444444444,0.298245614035088,ReadingArea_rsl2-rcl11-esl310-rsm2-rcm44-esm100-rsr2-rcr69-esr29,exr/ReadingArea_rsl2-rcl11-esl310-rsm2-rcm44-esm100-rsr2-rcr69-esr29.exr,ReadingArea_rsl2-rcl11-esl310-rsm2-rcm44-esm100-rsr2-rcr69-esr29.npz,,,,,0,27,27,444,,,left,green,2.22,216.5025899410248,216.8250250816345,,1,,5,2,lightness,readingArea,realistic,75,2023-03-13_15h05.54.393,tripletExp_regina_11082022,2022.2.4,120.22265663068464,
6,1,10,2,0.027777777777778,1.0,2,0.111111111111111,0.298245614035088,2,0.694444444444444,1.0,ReadingArea_rsl2-rcl2-esl100-rsm2-rcm11-esm29-rsr2-rcr69-esr100,exr/ReadingArea_rsl2-rcl2-esl100-rsm2-rcm11-esm29-rsr2-rcr69-esr100.exr,ReadingArea_rsl2-rcl2-esl100-rsm2-rcm11-esm29-rsr2-rcr69-esr100.npz,,,,,0,28,28,561,,,left,green,1.04,218.54596996307373,218.88985109329224,,1,,5,2,lightness,readingArea,realistic,75,2023-03-13_15h05.54.393,tripletExp_regina_11082022,2022.2.4,120.22265663068464,
5,8,2,2,1.0,0.298245614035088,2,0.25,1.0,2,0.25,0.298245614035088,ReadingArea_rsl2-rcl100-esl29-rsm2-rcm25-esm100-rsr2-rcr25-esr29,exr/ReadingArea_rsl2-rcl100-esl29-rsm2-rcm25-esm100-rsr2-rcr25-esr29.exr,ReadingArea_rsl2-rcl100-esl29-rsm2-rcm25-esm100-rsr2-rcr25-esr29.npz,,,,,0,29,29,65,,,left,green,1.15,220.5853590965271,220.9369330406189,,1,,5,2,lightness,readingArea,realistic,75,2023-03-13_15h05.54.393,tripletExp_regina_11082022,2022.2.4,120.22265663068464,
8,10,9,2,0.25,1.0,2,0.694444444444444,1.0,2,0.444444444444444,1.0,ReadingArea_rsl2-rcl25-esl100-rsm2-rcm69-esm100-rsr2-rcr44-esr100,exr/ReadingArea_rsl2-rcl25-esl100-rsm2-rcm69-esm100-rsr2-rcr44-esr100.exr,ReadingArea_rsl2-rcl25-esl100-rsm2-rcm69-esm100-rsr2-rcr44-esr100.npz,,,,,0,30,30,342,,,right,red,3.37,224.40482997894287,224.7380530834198,,1,,5,2,lightness,readingArea,realistic,75,2023-03-13_15h05.54.393,tripletExp_regina_11082022,2022.2.4,120.22265663068464,
4,1,13,2,0.694444444444444,0.298245614035088,2,0.111111111111111,0.298245614035088,2,0.111111111111111,3.10526315789474,ReadingArea_rsl2-rcl69-esl29-rsm2-rcm11-esm29-rsr2-rcr11-esr310,exr/ReadingArea_rsl2-rcl69-esl29-rsm2-rcm11-esm29-rsr2-rcr11-esr310.exr,ReadingArea_rsl2-rcl69-esl29-rsm2-rcm11-esm29-rsr2-rcr11-esr310.npz,,,,,0,31,31,565,,,left,green,2.89,228.1933810710907,228.56696891784668,,1,,5,2,lightness,readingArea,realistic,75,2023-03-13_15h05.54.393,tripletExp_regina_11082022,2022.2.4,120.22265663068464,
11,4,2,2,1.0,1.0,2,0.694444444444444,0.298245614035088,2,0.25,0.298245614035088,ReadingArea_rsl2-rcl100-esl100-rsm2-rcm69-esm29-rsr2-rcr25-esr29,exr/ReadingArea_rsl2-rcl100-esl100-rsm2-rcm69-esm29-rsr2-rcr25-esr29.exr,ReadingArea_rsl2-rcl100-esl100-rsm2-rcm69-esm29-rsr2-rcr25-esr29.npz,,,,,0,32,32,280,,,right,red,3.12,232.040687084198,,,1,,5,2,lightness,readingArea,realistic,75,2023-03-13_15h05.54.393,tripletExp_regina_11082022,2022.2.4,120.22265663068464,
3,13,12,2,0.444444444444444,0.298245614035088,2,0.111111111111111,3.10526315789474,2,0.027777777777778,3.10526315789474,ReadingArea_rsl2-rcl44-esl29-rsm2-rcm11-esm310-rsr2-rcr2-esr310,exr/ReadingArea_rsl2-rcl44-esl29-rsm2-rcm11-esm310-rsr2-rcr2-esr310.exr,ReadingArea_rsl2-rcl44-esl29-rsm2-rcm11-esm310-rsr2-rcr2-esr310.npz,,,,,0,33,33,34,,,left,green,2.1,235.8834249973297,,,1,,5,2,lightness,readingArea,realistic,75,2023-03-13_15h05.54.393,tripletExp_regina_11082022,2022.2.4,120.22265663068464,
6,3,1,2,0.027777777777778,1.0,2,0.444444444444444,0.298245614035088,2,0.111111111111111,0.298245614035088,ReadingArea_rsl2-rcl2-esl100-rsm2-rcm44-esm29-rsr2-rcr11-esr29,exr/ReadingArea_rsl2-rcl2-esl100-rsm2-rcm44-esm29-rsr2-rcr11-esr29.exr,ReadingArea_rsl2-rcl2-esl100-rsm2-rcm44-esm29-rsr2-rcr11-esr29.npz,,,,,0,34,34,430,,,right,red,4.53,241.47696590423584,241.8397889137268,,1,,5,2,lightness,readingArea,realistic,75,2023-03-13_15h05.54.393,tripletExp_regina_11082022,2022.2.4,120.22265663068464,
12,5,14,2,0.027777777777778,3.10526315789474,2,1.0,0.298245614035088,2,0.25,3.10526315789474,ReadingArea_rsl2-rcl2-esl310-rsm2-rcm100-esm29-rsr2-rcr25-esr310,exr/ReadingArea_rsl2-rcl2-esl310-rsm2-rcm100-esm29-rsr2-rcr25-esr310.exr,ReadingArea_rsl2-rcl2-esl310-rsm2-rcm100-esm29-rsr2-rcr25-esr310.npz,,,,,0,35,35,193,,,right,red,2.74,245.3093330860138,245.6602079868317,,1,,5,2,lightness,readingArea,realistic,75,2023-03-13_15h05.54.393,tripletExp_regina_11082022,2022.2.4,120.22265663068464,
2,9,12,2,0.25,0.298245614035088,2,0.444444444444444,1.0,2,0.027777777777778,3.10526315789474,ReadingArea_rsl2-rcl25-esl29-rsm2-rcm44-esm100-rsr2-rcr2-esr310,exr/ReadingArea_rsl2-rcl25-esl29-rsm2-rcm44-esm100-rsr2-rcr2-esr310.exr,ReadingArea_rsl2-rcl25-esl29-rsm2-rcm44-esm100-rsr2-rcr2-esr310.npz,,,,,0,36,36,354,,,left,green,2.71,249.1322629451752,249.4852340221405,,1,,5,2,lightness,readingArea,realistic,75,2023-03-13_15h05.54.393,tripletExp_regina_11082022,2022.2.4,120.22265663068464,
8,1,14,2,0.25,1.0,2,0.111111111111111,0.298245614035088,2,0.25,3.10526315789474,ReadingArea_rsl2-rcl25-esl100-rsm2-rcm11-esm29-rsr2-rcr25-esr310,exr/ReadingArea_rsl2-rcl25-esl100-rsm2-rcm11-esm29-rsr2-rcr25-esr310.exr,ReadingArea_rsl2-rcl25-esl100-rsm2-rcm11-esm29-rsr2-rcr25-esr310.npz,,,,,0,37,37,500,,,left,green,2.58,252.9579720497132,253.30601906776428,,1,,5,2,lightness,readingArea,realistic,75,2023-03-13_15h05.54.393,tripletExp_regina_11082022,2022.2.4,120.22265663068464,
8,1,3,2,0.25,1.0,2,0.111111111111111,0.298245614035088,2,0.444444444444444,0.298245614035088,ReadingArea_rsl2-rcl25-esl100-rsm2-rcm11-esm29-rsr2-rcr44-esr29,exr/ReadingArea_rsl2-rcl25-esl100-rsm2-rcm11-esm29-rsr2-rcr44-esr29.exr,ReadingArea_rsl2-rcl25-esl100-rsm2-rcm11-esm29-rsr2-rcr44-esr29.npz,,,,,0,38,38,490,,,right,red,1.99,256.79209303855896,257.12652111053467,,1,,5,2,lightness,readingArea,realistic,75,2023-03-13_15h05.54.393,tripletExp_regina_11082022,2022.2.4,120.22265663068464,
11,3,12,2,1.0,1.0,2,0.444444444444444,0.298245614035088,2,0.027777777777778,3.10526315789474,ReadingArea_rsl2-rcl100-esl100-rsm2-rcm44-esm29-rsr2-rcr2-esr310,exr/ReadingArea_rsl2-rcl100-esl100-rsm2-rcm44-esm29-rsr2-rcr2-esr310.exr,ReadingArea_rsl2-rcl100-esl100-rsm2-rcm44-esm29-rsr2-rcr2-esr310.npz,,,,,0,39,39,355,,,right,red,3.11,260.60571694374084,260.9571990966797,,1,,5,2,lightness,readingArea,realistic,75,2023-03-13_15h05.54.393,tripletExp_regina_11082022,2022.2.4,120.22265663068464,
13,6,10,2,0.111111111111111,3.10526315789474,2,0.027777777777778,1.0,2,0.694444444444444,1.0,ReadingArea_rsl2-rcl11-esl310-rsm2-rcm2-esm100-rsr2-rcr69-esr100,exr/ReadingArea_rsl2-rcl11-esl310-rsm2-rcm2-esm100-rsr2-rcr69-esr100.exr,ReadingArea_rsl2-rcl11-esl310-rsm2-rcm2-esm100-rsr2-rcr69-esr100.npz,,,,,0,40,40,593,,,left,green,2.71,264.42916202545166,,,1,,5,2,lightness,readingArea,realistic,75,2023-03-13_15h05.54.393,tripletExp_regina_11082022,2022.2.4,120.22265663068464,
2,8,4,2,0.25,0.298245614035088,2,0.25,1.0,2,0.694444444444444,0.298245614035088,ReadingArea_rsl2-rcl25-esl29-rsm2-rcm25-esm100-rsr2-rcr69-esr29,exr/ReadingArea_rsl2-rcl25-esl29-rsm2-rcm25-esm100-rsr2-rcr69-esr29.exr,ReadingArea_rsl2-rcl25-esl29-rsm2-rcm25-esm100-rsr2-rcr69-esr29.npz,,,,,0,41,41,507,,,right,red,3.1,268.28179693222046,268.6401479244232,,1,,5,2,lightness,readingArea,realistic,75,2023-03-13_15h05.54.393,tripletExp_regina_11082022,2022.2.4,120.22265663068464,
13,3,12,2,0.111111111111111,3.10526315789474,2,0.444444444444444,0.298245614035088,2,0.027777777777778,3.10526315789474,ReadingArea_rsl2-rcl11-esl310-rsm2-rcm44-esm29-rsr2-rcr2-esr310,exr/ReadingArea_rsl2-rcl11-esl310-rsm2-rcm44-esm29-rsr2-rcr2-esr310.exr,ReadingArea_rsl2-rcl11-esl310-rsm2-rcm44-esm29-rsr2-rcr2-esr310.npz,,,,,0,42,42,80,,,right,red,3.06,272.08484292030334,272.4247000217438,,1,,5,2,lightness,readingArea,realistic,75,2023-03-13_15h05.54.393,tripletExp_regina_11082022,2022.2.4,120.22265663068464,
4,8,3,2,0.694444444444444,0.298245614035088,2,0.25,1.0,2,0.444444444444444,0.298245614035088,ReadingArea_rsl2-rcl69-esl29-rsm2-rcm25-esm100-rsr2-rcr44-esr29,exr/ReadingArea_rsl2-rcl69-esl29-rsm2-rcm25-esm100-rsr2-rcr44-esr29.exr,ReadingArea_rsl2-rcl69-esl29-rsm2-rcm25-esm100-rsr2-rcr44-esr29.npz,,,,,0,43,43,292,,,left,green,2.79,275.88931012153625,,,1,,5,2,lightness,readingArea,realistic,75,2023-03-13_15h05.54.393,tripletExp_regina_11082022,2022.2.4,120.22265663068464,
6,0,1,2,0.027777777777778,1.0,2,0.027777777777778,0.298245614035088,2,0.111111111111111,0.298245614035088,ReadingArea_rsl2-rcl2-esl100-rsm2-rcm2-esm29-rsr2-rcr11-esr29,exr/ReadingArea_rsl2-rcl2-esl100-rsm2-rcm2-esm29-rsr2-rcr11-esr29.exr,ReadingArea_rsl2-rcl2-esl100-rsm2-rcm2-esm29-rsr2-rcr11-esr29.npz,,,,,0,44,44,302,,,left,green,2.65,279.6984770298004,,,1,,5,2,lightness,readingArea,realistic,75,2023-03-13_15h05.54.393,tripletExp_regina_11082022,2022.2.4,120.22265663068464,
4,1,3,2,0.694444444444444,0.298245614035088,2,0.111111111111111,0.298245614035088,2,0.444444444444444,0.298245614035088,ReadingArea_rsl2-rcl69-esl29-rsm2-rcm11-esm29-rsr2-rcr44-esr29,exr/ReadingArea_rsl2-rcl69-esl29-rsm2-rcm11-esm29-rsr2-rcr44-esr29.exr,ReadingArea_rsl2-rcl69-esl29-rsm2-rcm11-esm29-rsr2-rcr44-esr29.npz,,,,,0,45,45,70,,,left,green,4.0,285.254497051239,285.6284849643707,,1,,5,2,lightness,readingArea,realistic,75,2023-03-13_15h05.54.393,tripletExp_regina_11082022,2022.2.4,120.22265663068464,
4,5,1,2,0.694444444444444,0.298245614035088,2,1.0,0.298245614035088,2,0.111111111111111,0.298245614035088,ReadingArea_rsl2-rcl69-esl29-rsm2-rcm100-esm29-rsr2-rcr11-esr29,exr/ReadingArea_rsl2-rcl69-esl29-rsm2-rcm100-esm29-rsr2-rcr11-esr29.exr,ReadingArea_rsl2-rcl69-esl29-rsm2-rcm100-esm29-rsr2-rcr11-esr29.npz,,,,,0,46,46,240,,,left,green,0.77,287.32612109184265,287.68358397483826,,1,,5,2,lightness,readingArea,realistic,75,2023-03-13_15h05.54.393,tripletExp_regina_11082022,2022.2.4,120.22265663068464,
2,0,3,2,0.25,0.298245614035088,2,0.027777777777778,0.298245614035088,2,0.444444444444444,0.298245614035088,ReadingArea_rsl2-rcl25-esl29-rsm2-rcm2-esm29-rsr2-rcr44-esr29,exr/ReadingArea_rsl2-rcl25-esl29-rsm2-rcm2-esm29-rsr2-rcr44-esr29.exr,ReadingArea_rsl2-rcl25-esl29-rsm2-rcm2-esm29-rsr2-rcr44-esr29.npz,,,,,0,47,47,338,,,left,green,2.04,291.1535120010376,291.54935812950134,,1,,5,2,lightness,readingArea,realistic,75,2023-03-13_15h05.54.393,tripletExp_regina_11082022,2022.2.4,120.22265663068464,
5,4,1,2,1.0,0.298245614035088,2,0.694444444444444,0.298245614035088,2,0.111111111111111,0.298245614035088,ReadingArea_rsl2-rcl100-esl29-rsm2-rcm69-esm29-rsr2-rcr11-esr29,exr/ReadingArea_rsl2-rcl100-esl29-rsm2-rcm69-esm29-rsr2-rcr11-esr29.exr,ReadingArea_rsl2-rcl100-esl29-rsm2-rcm69-esm29-rsr2-rcr11-esr29.npz,,,,,0,48,48,560,,,left,green,0.78,293.27130699157715,293.62570309638977,,1,,5,2,lightness,readingArea,realistic,75,2023-03-13_15h05.54.393,tripletExp_regina_11082022,2022.2.4,120.22265663068464,
13,8,5,2,0.111111111111111,3.10526315789474,2,0.25,1.0,2,1.0,0.298245614035088,ReadingArea_rsl2-rcl11-esl310-rsm2-rcm25-esm100-rsr2-rcr100-esr29,exr/ReadingArea_rsl2-rcl11-esl310-rsm2-rcm25-esm100-rsr2-rcr100-esr29.exr,ReadingArea_rsl2-rcl11-esl310-rsm2-rcm25-esm100-rsr2-rcr100-esr29.npz,,,,,0,49,49,209,,,left,green,2.27,297.1026129722595,297.4600520133972,,1,,5,2,lightness,readingArea,realistic,75,2023-03-13_15h05.54.393,tripletExp_regina_11082022,2022.2.4,120.22265663068464,
8,3,12,2,0.25,1.0,2,0.444444444444444,0.298245614035088,2,0.027777777777778,3.10526315789474,ReadingArea_rsl2-rcl25-esl100-rsm2-rcm44-esm29-rsr2-rcr2-esr310,exr/ReadingArea_rsl2-rcl25-esl100-rsm2-rcm44-esm29-rsr2-rcr2-esr310.exr,ReadingArea_rsl2-rcl25-esl100-rsm2-rcm44-esm29-rsr2-rcr2-esr310.npz,,,,,0,50,50,22,,,left,green,0.93,299.16688799858093,299.4938220977783,,1,,5,2,lightness,readingArea,realistic,75,2023-03-13_15h05.54.393,tripletExp_regina_11082022,2022.2.4,120.22265663068464,
1,13,7,2,0.111111111111111,0.298245614035088,2,0.111111111111111,3.10526315789474,2,0.111111111111111,1.0,ReadingArea_rsl2-rcl11-esl29-rsm2-rcm11-esm310-rsr2-rcr11-esr100,exr/ReadingArea_rsl2-rcl11-esl29-rsm2-rcm11-esm310-rsr2-rcr11-esr100.exr,ReadingArea_rsl2-rcl11-esl29-rsm2-rcm11-esm310-rsr2-rcr11-esr100.npz,,,,,0,51,51,158,,,right,red,2.53,302.9852979183197,,,1,,5,2,lightness,readingArea,realistic,75,2023-03-13_15h05.54.393,tripletExp_regina_11082022,2022.2.4,120.22265663068464,
5,14,11,2,1.0,0.298245614035088,2,0.25,3.10526315789474,2,1.0,1.0,ReadingArea_rsl2-rcl100-esl29-rsm2-rcm25-esm310-rsr2-rcr100-esr100,exr/ReadingArea_rsl2-rcl100-esl29-rsm2-rcm25-esm310-rsr2-rcr100-esr100.exr,ReadingArea_rsl2-rcl100-esl29-rsm2-rcm25-esm310-rsr2-rcr100-esr100.npz,,,,,0,52,52,98,,,left,green,2.25,306.7922909259796,307.1250660419464,,1,,5,2,lightness,readingArea,realistic,75,2023-03-13_15h05.54.393,tripletExp_regina_11082022,2022.2.4,120.22265663068464,
6,0,10,2,0.027777777777778,1.0,2,0.027777777777778,0.298245614035088,2,0.694444444444444,1.0,ReadingArea_rsl2-rcl2-esl100-rsm2-rcm2-esm29-rsr2-rcr69-esr100,exr/ReadingArea_rsl2-rcl2-esl100-rsm2-rcm2-esm29-rsr2-rcr69-esr100.exr,ReadingArea_rsl2-rcl2-esl100-rsm2-rcm2-esm29-rsr2-rcr69-esr100.npz,,,,,0,53,53,532,,,left,green,1.75,308.82397294044495,309.193146944046,,1,,5,2,lightness,readingArea,realistic,75,2023-03-13_15h05.54.393,tripletExp_regina_11082022,2022.2.4,120.22265663068464,
2,0,13,2,0.25,0.298245614035088,2,0.027777777777778,0.298245614035088,2,0.111111111111111,3.10526315789474,ReadingArea_rsl2-rcl25-esl29-rsm2-rcm2-esm29-rsr2-rcr11-esr310,exr/ReadingArea_rsl2-rcl25-esl29-rsm2-rcm2-esm29-rsr2-rcr11-esr310.exr,ReadingArea_rsl2-rcl25-esl29-rsm2-rcm2-esm29-rsr2-rcr11-esr310.npz,,,,,0,54,54,50,,,left,green,1.35,310.91214299201965,,,1,,5,2,lightness,readingArea,realistic,75,2023-03-13_15h05.54.393,tripletExp_regina_11082022,2022.2.4,120.22265663068464,
10,7,2,2,0.694444444444444,1.0,2,0.111111111111111,1.0,2,0.25,0.298245614035088,ReadingArea_rsl2-rcl69-esl100-rsm2-rcm11-esm100-rsr2-rcr25-esr29,exr/ReadingArea_rsl2-rcl69-esl100-rsm2-rcm11-esm100-rsr2-rcr25-esr29.exr,ReadingArea_rsl2-rcl69-esl100-rsm2-rcm11-esm100-rsr2-rcr25-esr29.npz,,,,,0,55,55,523,,,right,red,1.29,312.96889090538025,313.3176319599152,,1,,5,2,lightness,readingArea,realistic,75,2023-03-13_15h05.54.393,tripletExp_regina_11082022,2022.2.4,120.22265663068464,
7,0,2,2,0.111111111111111,1.0,2,0.027777777777778,0.298245614035088,2,0.25,0.298245614035088,ReadingArea_rsl2-rcl11-esl100-rsm2-rcm2-esm29-rsr2-rcr25-esr29,exr/ReadingArea_rsl2-rcl11-esl100-rsm2-rcm2-esm29-rsr2-rcr25-esr29.exr,ReadingArea_rsl2-rcl11-esl100-rsm2-rcm2-esm29-rsr2-rcr25-esr29.npz,,,,,0,56,56,347,,,right,red,4.56,318.55952310562134,318.92418003082275,,1,,5,2,lightness,readingArea,realistic,75,2023-03-13_15h05.54.393,tripletExp_regina_11082022,2022.2.4,120.22265663068464,
3,11,14,2,0.444444444444444,0.298245614035088,2,1.0,1.0,2,0.25,3.10526315789474,ReadingArea_rsl2-rcl44-esl29-rsm2-rcm100-esm100-rsr2-rcr25-esr310,exr/ReadingArea_rsl2-rcl44-esl29-rsm2-rcm100-esm100-rsr2-rcr25-esr310.exr,ReadingArea_rsl2-rcl44-esl29-rsm2-rcm100-esm100-rsr2-rcr25-esr310.npz,,,,,0,57,57,570,,,right,red,1.65,320.63032507896423,,,1,,5,2,lightness,readingArea,realistic,75,2023-03-13_15h05.54.393,tripletExp_regina_11082022,2022.2.4,120.22265663068464,
3,13,1,2,0.444444444444444,0.298245614035088,2,0.111111111111111,3.10526315789474,2,0.111111111111111,0.298245614035088,ReadingArea_rsl2-rcl44-esl29-rsm2-rcm11-esm310-rsr2-rcr11-esr29,exr/ReadingArea_rsl2-rcl44-esl29-rsm2-rcm11-esm310-rsr2-rcr11-esr29.exr,ReadingArea_rsl2-rcl44-esl29-rsm2-rcm11-esm310-rsr2-rcr11-esr29.npz,,,,,0,58,58,421,,,left,green,1.61,322.7067949771881,323.067106962204,,1,,5,2,lightness,readingArea,realistic,75,2023-03-13_15h05.54.393,tripletExp_regina_11082022,2022.2.4,120.22265663068464,
1,5,8,2,0.111111111111111,0.298245614035088,2,1.0,0.298245614035088,2,0.25,1.0,ReadingArea_rsl2-rcl11-esl29-rsm2-rcm100-esm29-rsr2-rcr25-esr100,exr/ReadingArea_rsl2-rcl11-esl29-rsm2-rcm100-esm29-rsr2-rcr25-esr100.exr,ReadingArea_rsl2-rcl11-esl29-rsm2-rcm100-esm29-rsr2-rcr25-esr100.npz,,,,,0,59,59,238,,,right,red,2.44,326.54838705062866,326.89241003990173,,1,,5,2,lightness,readingArea,realistic,75,2023-03-13_15h05.54.393,tripletExp_regina_11082022,2022.2.4,120.22265663068464,
4,3,1,2,0.694444444444444,0.298245614035088,2,0.444444444444444,0.298245614035088,2,0.111111111111111,0.298245614035088,ReadingArea_rsl2-rcl69-esl29-rsm2-rcm44-esm29-rsr2-rcr11-esr29,exr/ReadingArea_rsl2-rcl69-esl29-rsm2-rcm44-esm29-rsr2-rcr11-esr29.exr,ReadingArea_rsl2-rcl69-esl29-rsm2-rcm44-esm29-rsr2-rcr11-esr29.npz,,,,,0,60,60,60,,,left,green,0.96,328.6140079498291,328.9521589279175,,1,,5,2,lightness,readingArea,realistic,75,2023-03-13_15h05.54.393,tripletExp_regina_11082022,2022.2.4,120.22265663068464,
10,11,5,2,0.694444444444444,1.0,2,1.0,1.0,2,1.0,0.298245614035088,ReadingArea_rsl2-rcl69-esl100-rsm2-rcm100-esm100-rsr2-rcr100-esr29,exr/ReadingArea_rsl2-rcl69-esl100-rsm2-rcm100-esm100-rsr2-rcr100-esr29.exr,ReadingArea_rsl2-rcl69-esl100-rsm2-rcm100-esm100-rsr2-rcr100-esr29.npz,,,,,0,61,61,514,,,left,green,2.21,332.424350976944,332.76543712615967,,1,,5,2,lightness,readingArea,realistic,75,2023-03-13_15h05.54.393,tripletExp_regina_11082022,2022.2.4,120.22265663068464,
3,6,5,2,0.444444444444444,0.298245614035088,2,0.027777777777778,1.0,2,1.0,0.298245614035088,ReadingArea_rsl2-rcl44-esl29-rsm2-rcm2-esm100-rsr2-rcr100-esr29,exr/ReadingArea_rsl2-rcl44-esl29-rsm2-rcm2-esm100-rsr2-rcr100-esr29.exr,ReadingArea_rsl2-rcl44-esl29-rsm2-rcm2-esm100-rsr2-rcr100-esr29.npz,,,,,0,62,62,274,,,left,green,2.78,336.2323889732361,,,1,,5,2,lightness,readingArea,realistic,75,2023-03-13_15h05.54.393,tripletExp_regina_11082022,2022.2.4,120.22265663068464,
8,10,7,2,0.25,1.0,2,0.694444444444444,1.0,2,0.111111111111111,1.0,ReadingArea_rsl2-rcl25-esl100-rsm2-rcm69-esm100-rsr2-rcr11-esr100,exr/ReadingArea_rsl2-rcl25-esl100-rsm2-rcm69-esm100-rsr2-rcr11-esr100.exr,ReadingArea_rsl2-rcl25-esl100-rsm2-rcm69-esm100-rsr2-rcr11-esr100.npz,,,,,0,63,63,424,,,left,green,1.27,338.308030128479,,,1,,5,2,lightness,readingArea,realistic,75,2023-03-13_15h05.54.393,tripletExp_regina_11082022,2022.2.4,120.22265663068464,
0,1,8,2,0.027777777777778,0.298245614035088,2,0.111111111111111,0.298245614035088,2,0.25,1.0,ReadingArea_rsl2-rcl2-esl29-rsm2-rcm11-esm29-rsr2-rcr25-esr100,exr/ReadingArea_rsl2-rcl2-esl29-rsm2-rcm11-esm29-rsr2-rcr25-esr100.exr,ReadingArea_rsl2-rcl2-esl29-rsm2-rcm11-esm29-rsr2-rcr25-esr100.npz,,,,,0,64,64,107,,,left,green,1.12,340.38260412216187,340.7181439399719,,1,,5,2,lightness,readingArea,realistic,75,2023-03-13_15h05.54.393,tripletExp_regina_11082022,2022.2.4,120.22265663068464,
3,9,10,2,0.444444444444444,0.298245614035088,2,0.444444444444444,1.0,2,0.694444444444444,1.0,ReadingArea_rsl2-rcl44-esl29-rsm2-rcm44-esm100-rsr2-rcr69-esr100,exr/ReadingArea_rsl2-rcl44-esl29-rsm2-rcm44-esm100-rsr2-rcr69-esr100.exr,ReadingArea_rsl2-rcl44-esl29-rsm2-rcm44-esm100-rsr2-rcr69-esr100.npz,,,,,0,65,65,581,,,left,green,2.16,344.1822509765625,344.5343461036682,,1,,5,2,lightness,readingArea,realistic,75,2023-03-13_15h05.54.393,tripletExp_regina_11082022,2022.2.4,120.22265663068464,
5,2,8,2,1.0,0.298245614035088,2,0.25,0.298245614035088,2,0.25,1.0,ReadingArea_rsl2-rcl100-esl29-rsm2-rcm25-esm29-rsr2-rcr25-esr100,exr/ReadingArea_rsl2-rcl100-esl29-rsm2-rcm25-esm29-rsr2-rcr25-esr100.exr,ReadingArea_rsl2-rcl100-esl29-rsm2-rcm25-esm29-rsr2-rcr25-esr100.npz,,,,,0,66,66,538,,,right,red,2.41,348.0122630596161,348.3689351081848,,1,,5,2,lightness,readingArea,realistic,75,2023-03-13_15h05.54.393,tripletExp_regina_11082022,2022.2.4,120.22265663068464,
8,0,4,2,0.25,1.0,2,0.027777777777778,0.298245614035088,2,0.694444444444444,0.298245614035088,ReadingArea_rsl2-rcl25-esl100-rsm2-rcm2-esm29-rsr2-rcr69-esr29,exr/ReadingArea_rsl2-rcl25-esl100-rsm2-rcm2-esm29-rsr2-rcr69-esr29.exr,ReadingArea_rsl2-rcl25-esl100-rsm2-rcm2-esm29-rsr2-rcr69-esr29.npz,,,,,0,67,67,346,,,right,red,2.8,351.8340780735016,352.1748049259186,,1,,5,2,lightness,readingArea,realistic,75,2023-03-13_15h05.54.393,tripletExp_regina_11082022,2022.2.4,120.22265663068464,
3,14,4,2,0.444444444444444,0.298245614035088,2,0.25,3.10526315789474,2,0.694444444444444,0.298245614035088,ReadingArea_rsl2-rcl44-esl29-rsm2-rcm25-esm310-rsr2-rcr69-esr29,exr/ReadingArea_rsl2-rcl44-esl29-rsm2-rcm25-esm310-rsr2-rcr69-esr29.exr,ReadingArea_rsl2-rcl44-esl29-rsm2-rcm25-esm310-rsr2-rcr69-esr29.npz,,,,,0,68,68,537,,,right,red,2.53,355.64850997924805,356.0041000843048,,1,,5,2,lightness,readingArea,realistic,75,2023-03-13_15h05.54.393,tripletExp_regina_11082022,2022.2.4,120.22265663068464,
8,7,13,2,0.25,1.0,2,0.111111111111111,1.0,2,0.111111111111111,3.10526315789474,ReadingArea_rsl2-rcl25-esl100-rsm2-rcm11-esm100-rsr2-rcr11-esr310,exr/ReadingArea_rsl2-rcl25-esl100-rsm2-rcm11-esm100-rsr2-rcr11-esr310.exr,ReadingArea_rsl2-rcl25-esl100-rsm2-rcm11-esm100-rsr2-rcr11-esr310.npz,,,,,0,69,69,512,,,left,green,2.04,359.50546002388,359.86596608161926,,1,,5,2,lightness,readingArea,realistic,75,2023-03-13_15h05.54.393,tripletExp_regina_11082022,2022.2.4,120.22265663068464,
2,9,8,2,0.25,0.298245614035088,2,0.444444444444444,1.0,2,0.25,1.0,ReadingArea_rsl2-rcl25-esl29-rsm2-rcm44-esm100-rsr2-rcr25-esr100,exr/ReadingArea_rsl2-rcl25-esl29-rsm2-rcm44-esm100-rsr2-rcr25-esr100.exr,ReadingArea_rsl2-rcl25-esl29-rsm2-rcm44-esm100-rsr2-rcr25-esr100.npz,,,,,0,70,70,407,,,right,red,0.98,361.57800006866455,,,1,,5,2,lightness,readingArea,realistic,75,2023-03-13_15h05.54.393,tripletExp_regina_11082022,2022.2.4,120.22265663068464,
10,11,13,2,0.694444444444444,1.0,2,1.0,1.0,2,0.111111111111111,3.10526315789474,ReadingArea_rsl2-rcl69-esl100-rsm2-rcm100-esm100-rsr2-rcr11-esr310,exr/ReadingArea_rsl2-rcl69-esl100-rsm2-rcm100-esm100-rsr2-rcr11-esr310.exr,ReadingArea_rsl2-rcl69-esl100-rsm2-rcm100-esm100-rsr2-rcr11-esr310.npz,,,,,0,71,71,79,,,left,green,0.8,363.6379110813141,363.9939079284668,,1,,5,2,lightness,readingArea,realistic,75,2023-03-13_15h05.54.393,tripletExp_regina_11082022,2022.2.4,120.22265663068464,
0,5,12,2,0.027777777777778,0.298245614035088,2,1.0,0.298245614035088,2,0.027777777777778,3.10526315789474,ReadingArea_rsl2-rcl2-esl29-rsm2-rcm100-esm29-rsr2-rcr2-esr310,exr/ReadingArea_rsl2-rcl2-esl29-rsm2-rcm100-esm29-rsr2-rcr2-esr310.exr,ReadingArea_rsl2-rcl2-esl29-rsm2-rcm100-esm29-rsr2-rcr2-esr310.npz,,,,,0,72,72,366,,,right,red,2.49,367.4821190834045,367.8362441062927,,1,,5,2,lightness,readingArea,realistic,75,2023-03-13_15h05.54.393,tripletExp_regina_11082022,2022.2.4,120.22265663068464,
7,10,4,2,0.111111111111111,1.0,2,0.694444444444444,1.0,2,0.694444444444444,0.298245614035088,ReadingArea_rsl2-rcl11-esl100-rsm2-rcm69-esm100-rsr2-rcr69-esr29,exr/ReadingArea_rsl2-rcl11-esl100-rsm2-rcm69-esm100-rsr2-rcr69-esr29.exr,ReadingArea_rsl2-rcl11-esl100-rsm2-rcm69-esm100-rsr2-rcr69-esr29.npz,,,,,0,73,73,46,,,right,red,2.44,371.30762910842896,371.6484849452973,,1,,5,2,lightness,readingArea,realistic,75,2023-03-13_15h05.54.393,tripletExp_regina_11082022,2022.2.4,120.22265663068464,
10,12,9,2,0.694444444444444,1.0,2,0.027777777777778,3.10526315789474,2,0.444444444444444,1.0,ReadingArea_rsl2-rcl69-esl100-rsm2-rcm2-esm310-rsr2-rcr44-esr100,exr/ReadingArea_rsl2-rcl69-esl100-rsm2-rcm2-esm310-rsr2-rcr44-esr100.exr,ReadingArea_rsl2-rcl69-esl100-rsm2-rcm2-esm310-rsr2-rcr44-esr100.npz,,,,,0,74,74,405,,,right,red,2.5,375.1082670688629,375.3122329711914,,1,,5,2,lightness,readingArea,realistic,75,2023-03-13_15h05.54.393,tripletExp_regina_11082022,2022.2.4,120.22265663068464,
8,14,3,2,0.25,1.0,2,0.25,3.10526315789474,2,0.444444444444444,0.298245614035088,ReadingArea_rsl2-rcl25-esl100-rsm2-rcm25-esm310-rsr2-rcr44-esr29,exr/ReadingArea_rsl2-rcl25-esl100-rsm2-rcm25-esm310-rsr2-rcr44-esr29.exr,ReadingArea_rsl2-rcl25-esl100-rsm2-rcm25-esm310-rsr2-rcr44-esr29.npz,,,,,0,75,75,503,,,left,green,1.33,387.39195799827576,387.7529430389404,,2,,5,2,lightness,readingArea,realistic,75,2023-03-13_15h05.54.393,tripletExp_regina_11082022,2022.2.4,120.22265663068464,
2,6,12,2,0.25,0.298245614035088,2,0.027777777777778,1.0,2,0.027777777777778,3.10526315789474,ReadingArea_rsl2-rcl25-esl29-rsm2-rcm2-esm100-rsr2-rcr2-esr310,exr/ReadingArea_rsl2-rcl25-esl29-rsm2-rcm2-esm100-rsr2-rcr2-esr310.exr,ReadingArea_rsl2-rcl25-esl29-rsm2-rcm2-esm100-rsr2-rcr2-esr310.npz,,,,,0,76,76,97,,,right,red,3.48,391.19757103919983,391.5480179786682,,2,,5,2,lightness,readingArea,realistic,75,2023-03-13_15h05.54.393,tripletExp_regina_11082022,2022.2.4,120.22265663068464,
2,10,6,2,0.25,0.298245614035088,2,0.694444444444444,1.0,2,0.027777777777778,1.0,ReadingArea_rsl2-rcl25-esl29-rsm2-rcm69-esm100-rsr2-rcr2-esr100,exr/ReadingArea_rsl2-rcl25-esl29-rsm2-rcm69-esm100-rsr2-rcr2-esr100.exr,ReadingArea_rsl2-rcl25-esl29-rsm2-rcm69-esm100-rsr2-rcr2-esr100.npz,,,,,0,77,77,4,,,left,green,1.14,393.23458099365234,393.6151239871979,,2,,5,2,lightness,readingArea,realistic,75,2023-03-13_15h05.54.393,tripletExp_regina_11082022,2022.2.4,120.22265663068464,
4,11,12,2,0.694444444444444,0.298245614035088,2,1.0,1.0,2,0.027777777777778,3.10526315789474,ReadingArea_rsl2-rcl69-esl29-rsm2-rcm100-esm100-rsr2-rcr2-esr310,exr/ReadingArea_rsl2-rcl69-esl29-rsm2-rcm100-esm100-rsr2-rcr2-esr310.exr,ReadingArea_rsl2-rcl69-esl29-rsm2-rcm100-esm100-rsr2-rcr2-esr310.npz,,,,,0,78,78,109,,,left,green,1.01,395.3280689716339,395.673269033432,,2,,5,2,lightness,readingArea,realistic,75,2023-03-13_15h05.54.393,tripletExp_regina_11082022,2022.2.4,120.22265663068464,
0,5,11,2,0.027777777777778,0.298245614035088,2,1.0,0.298245614035088,2,1.0,1.0,ReadingArea_rsl2-rcl2-esl29-rsm2-rcm100-esm29-rsr2-rcr100-esr100,exr/ReadingArea_rsl2-rcl2-esl29-rsm2-rcm100-esm29-rsr2-rcr100-esr100.exr,ReadingArea_rsl2-rcl2-esl29-rsm2-rcm100-esm29-rsr2-rcr100-esr100.npz,,,,,0,79,79,422,,,right,red,0.91,397.3908989429474,397.7359910011292,,2,,5,2,lightness,readingArea,realistic,75,2023-03-13_15h05.54.393,tripletExp_regina_11082022,2022.2.4,120.22265663068464,
2,13,3,2,0.25,0.298245614035088,2,0.111111111111111,3.10526315789474,2,0.444444444444444,0.298245614035088,ReadingArea_rsl2-rcl25-esl29-rsm2-rcm11-esm310-rsr2-rcr44-esr29,exr/ReadingArea_rsl2-rcl25-esl29-rsm2-rcm11-esm310-rsr2-rcr44-esr29.exr,ReadingArea_rsl2-rcl25-esl29-rsm2-rcm11-esm310-rsr2-rcr44-esr29.npz,,,,,0,80,80,473,,,right,red,2.71,401.1809720993042,401.5427920818329,,2,,5,2,lightness,readingArea,realistic,75,2023-03-13_15h05.54.393,tripletExp_regina_11082022,2022.2.4,120.22265663068464,
5,0,11,2,1.0,0.298245614035088,2,0.027777777777778,0.298245614035088,2,1.0,1.0,ReadingArea_rsl2-rcl100-esl29-rsm2-rcm2-esm29-rsr2-rcr100-esr100,exr/ReadingArea_rsl2-rcl100-esl29-rsm2-rcm2-esm29-rsr2-rcr100-esr100.exr,ReadingArea_rsl2-rcl100-esl29-rsm2-rcm2-esm29-rsr2-rcr100-esr100.npz,,,,,0,81,81,547,,,left,green,2.23,405.0316529273987,405.3822259902954,,2,,5,2,lightness,readingArea,realistic,75,2023-03-13_15h05.54.393,tripletExp_regina_11082022,2022.2.4,120.22265663068464,
6,1,14,2,0.027777777777778,1.0,2,0.111111111111111,0.298245614035088,2,0.25,3.10526315789474,ReadingArea_rsl2-rcl2-esl100-rsm2-rcm11-esm29-rsr2-rcr25-esr310,exr/ReadingArea_rsl2-rcl2-esl100-rsm2-rcm11-esm29-rsr2-rcr25-esr310.exr,ReadingArea_rsl2-rcl2-esl100-rsm2-rcm11-esm29-rsr2-rcr25-esr310.npz,,,,,0,82,82,381,,,left,green,0.79,407.0748600959778,407.4099600315094,,2,,5,2,lightness,readingArea,realistic,75,2023-03-13_15h05.54.393,tripletExp_regina_11082022,2022.2.4,120.22265663068464,
3,10,9,2,0.444444444444444,0.298245614035088,2,0.694444444444444,1.0,2,0.444444444444444,1.0,ReadingArea_rsl2-rcl44-esl29-rsm2-rcm69-esm100-rsr2-rcr44-esr100,exr/ReadingArea_rsl2-rcl44-esl29-rsm2-rcm69-esm100-rsr2-rcr44-esr100.exr,ReadingArea_rsl2-rcl44-esl29-rsm2-rcm69-esm100-rsr2-rcr44-esr100.npz,,,,,0,83,83,222,,,right,red,0.96,409.0979619026184,409.49936389923096,,2,,5,2,lightness,readingArea,realistic,75,2023-03-13_15h05.54.393,tripletExp_regina_11082022,2022.2.4,120.22265663068464,
8,2,0,2,0.25,1.0,2,0.25,0.298245614035088,2,0.027777777777778,0.298245614035088,ReadingArea_rsl2-rcl25-esl100-rsm2-rcm25-esm29-rsr2-rcr2-esr29,exr/ReadingArea_rsl2-rcl25-esl100-rsm2-rcm25-esm29-rsr2-rcr2-esr29.exr,ReadingArea_rsl2-rcl25-esl100-rsm2-rcm25-esm29-rsr2-rcr2-esr29.npz,,,,,0,84,84,574,,,left,green,0.86,411.2019290924072,411.5285210609436,,2,,5,2,lightness,readingArea,realistic,75,2023-03-13_15h05.54.393,tripletExp_regina_11082022,2022.2.4,120.22265663068464,
14,5,9,2,0.25,3.10526315789474,2,1.0,0.298245614035088,2,0.444444444444444,1.0,ReadingArea_rsl2-rcl25-esl310-rsm2-rcm100-esm29-rsr2-rcr44-esr100,exr/ReadingArea_rsl2-rcl25-esl310-rsm2-rcm100-esm29-rsr2-rcr44-esr100.exr,ReadingArea_rsl2-rcl25-esl310-rsm2-rcm100-esm29-rsr2-rcr44-esr100.npz,,,,,0,85,85,482,,,right,red,1.03,413.2194209098816,,,2,,5,2,lightness,readingArea,realistic,75,2023-03-13_15h05.54.393,tripletExp_regina_11082022,2022.2.4,120.22265663068464,
2,14,8,2,0.25,0.298245614035088,2,0.25,3.10526315789474,2,0.25,1.0,ReadingArea_rsl2-rcl25-esl29-rsm2-rcm25-esm310-rsr2-rcr25-esr100,exr/ReadingArea_rsl2-rcl25-esl29-rsm2-rcm25-esm310-rsr2-rcr25-esr100.exr,ReadingArea_rsl2-rcl25-esl29-rsm2-rcm25-esm310-rsr2-rcr25-esr100.npz,,,,,0,86,86,255,,,right,red,2.23,417.05973410606384,417.418093919754,,2,,5,2,lightness,readingArea,realistic,75,2023-03-13_15h05.54.393,tripletExp_regina_11082022,2022.2.4,120.22265663068464,
5,14,4,2,1.0,0.298245614035088,2,0.25,3.10526315789474,2,0.694444444444444,0.298245614035088,ReadingArea_rsl2-rcl100-esl29-rsm2-rcm25-esm310-rsr2-rcr69-esr29,exr/ReadingArea_rsl2-rcl100-esl29-rsm2-rcm25-esm310-rsr2-rcr69-esr29.exr,ReadingArea_rsl2-rcl100-esl29-rsm2-rcm25-esm310-rsr2-rcr69-esr29.npz,,,,,0,87,87,69,,,left,green,0.92,419.13439297676086,419.51415491104126,,2,,5,2,lightness,readingArea,realistic,75,2023-03-13_15h05.54.393,tripletExp_regina_11082022,2022.2.4,120.22265663068464,
6,1,2,2,0.027777777777778,1.0,2,0.111111111111111,0.298245614035088,2,0.25,0.298245614035088,ReadingArea_rsl2-rcl2-esl100-rsm2-rcm11-esm29-rsr2-rcr25-esr29,exr/ReadingArea_rsl2-rcl2-esl100-rsm2-rcm11-esm29-rsr2-rcr25-esr29.exr,ReadingArea_rsl2-rcl2-esl100-rsm2-rcm11-esm29-rsr2-rcr25-esr29.npz,,,,,0,88,88,68,,,left,green,2.32,422.9951550960541,423.3474690914154,,2,,5,2,lightness,readingArea,realistic,75,2023-03-13_15h05.54.393,tripletExp_regina_11082022,2022.2.4,120.22265663068464,
13,3,7,2,0.111111111111111,3.10526315789474,2,0.444444444444444,0.298245614035088,2,0.111111111111111,1.0,ReadingArea_rsl2-rcl11-esl310-rsm2-rcm44-esm29-rsr2-rcr11-esr100,exr/ReadingArea_rsl2-rcl11-esl310-rsm2-rcm44-esm29-rsr2-rcr11-esr100.exr,ReadingArea_rsl2-rcl11-esl310-rsm2-rcm44-esm29-rsr2-rcr11-esr100.npz,,,,,0,89,89,497,,,right,red,2.72,426.81387400627136,427.1727950572968,,2,,5,2,lightness,readingArea,realistic,75,2023-03-13_15h05.54.393,tripletExp_regina_11082022,2022.2.4,120.22265663068464,
8,10,6,2,0.25,1.0,2,0.694444444444444,1.0,2,0.027777777777778,1.0,ReadingArea_rsl2-rcl25-esl100-rsm2-rcm69-esm100-rsr2-rcr2-esr100,exr/ReadingArea_rsl2-rcl25-esl100-rsm2-rcm69-esm100-rsr2-rcr2-esr100.exr,ReadingArea_rsl2-rcl25-esl100-rsm2-rcm69-esm100-rsr2-rcr2-esr100.npz,,,,,0,90,90,129,,,left,green,0.91,428.8758900165558,429.2157220840454,,2,,5,2,lightness,readingArea,realistic,75,2023-03-13_15h05.54.393,tripletExp_regina_11082022,2022.2.4,120.22265663068464,
4,12,7,2,0.694444444444444,0.298245614035088,2,0.027777777777778,3.10526315789474,2,0.111111111111111,1.0,ReadingArea_rsl2-rcl69-esl29-rsm2-rcm2-esm310-rsr2-rcr11-esr100,exr/ReadingArea_rsl2-rcl69-esl29-rsm2-rcm2-esm310-rsr2-rcr11-esr100.exr,ReadingArea_rsl2-rcl69-esl29-rsm2-rcm2-esm310-rsr2-rcr11-esr100.npz,,,,,0,91,91,112,,,right,red,2.28,432.7199549674988,433.0777299404144,,2,,5,2,lightness,readingArea,realistic,75,2023-03-13_15h05.54.393,tripletExp_regina_11082022,2022.2.4,120.22265663068464,
6,0,14,2,0.027777777777778,1.0,2,0.027777777777778,0.298245614035088,2,0.25,3.10526315789474,ReadingArea_rsl2-rcl2-esl100-rsm2-rcm2-esm29-rsr2-rcr25-esr310,exr/ReadingArea_rsl2-rcl2-esl100-rsm2-rcm2-esm29-rsr2-rcr25-esr310.exr,ReadingArea_rsl2-rcl2-esl100-rsm2-rcm2-esm29-rsr2-rcr25-esr310.npz,,,,,0,92,92,169,,,left,green,1.26,434.7903730869293,435.153263092041,,2,,5,2,lightness,readingArea,realistic,75,2023-03-13_15h05.54.393,tripletExp_regina_11082022,2022.2.4,120.22265663068464,
13,10,11,2,0.111111111111111,3.10526315789474,2,0.694444444444444,1.0,2,1.0,1.0,ReadingArea_rsl2-rcl11-esl310-rsm2-rcm69-esm100-rsr2-rcr100-esr100,exr/ReadingArea_rsl2-rcl11-esl310-rsm2-rcm69-esm100-rsr2-rcr100-esr100.exr,ReadingArea_rsl2-rcl11-esl310-rsm2-rcm69-esm100-rsr2-rcr100-esr100.npz,,,,,0,93,93,320,,,left,green,1.26,436.8480288982392,,,2,,5,2,lightness,readingArea,realistic,75,2023-03-13_15h05.54.393,tripletExp_regina_11082022,2022.2.4,120.22265663068464,
5,11,8,2,1.0,0.298245614035088,2,1.0,1.0,2,0.25,1.0,ReadingArea_rsl2-rcl100-esl29-rsm2-rcm100-esm100-rsr2-rcr25-esr100,exr/ReadingArea_rsl2-rcl100-esl29-rsm2-rcm100-esm100-rsr2-rcr25-esr100.exr,ReadingArea_rsl2-rcl100-esl29-rsm2-rcm100-esm100-rsr2-rcr25-esr100.npz,,,,,0,94,94,548,,,left,green,2.23,440.7361779212952,441.1005940437317,,2,,5,2,lightness,readingArea,realistic,75,2023-03-13_15h05.54.393,tripletExp_regina_11082022,2022.2.4,120.22265663068464,
9,7,10,2,0.444444444444444,1.0,2,0.111111111111111,1.0,2,0.694444444444444,1.0,ReadingArea_rsl2-rcl44-esl100-rsm2-rcm11-esm100-rsr2-rcr69-esr100,exr/ReadingArea_rsl2-rcl44-esl100-rsm2-rcm11-esm100-rsr2-rcr69-esr100.exr,ReadingArea_rsl2-rcl44-esl100-rsm2-rcm11-esm100-rsr2-rcr69-esr100.npz,,,,,0,95,95,508,,,left,green,2.24,444.5779480934143,444.9158389568329,,2,,5,2,lightness,readingArea,realistic,75,2023-03-13_15h05.54.393,tripletExp_regina_11082022,2022.2.4,120.22265663068464,
11,4,0,2,1.0,1.0,2,0.694444444444444,0.298245614035088,2,0.027777777777778,0.298245614035088,ReadingArea_rsl2-rcl100-esl100-rsm2-rcm69-esm29-rsr2-rcr2-esr29,exr/ReadingArea_rsl2-rcl100-esl100-rsm2-rcm69-esm29-rsr2-rcr2-esr29.exr,ReadingArea_rsl2-rcl100-esl100-rsm2-rcm69-esm29-rsr2-rcr2-esr29.npz,,,,,0,96,96,219,,,left,green,0.79,446.6031129360199,446.9610550403595,,2,,5,2,lightness,readingArea,realistic,75,2023-03-13_15h05.54.393,tripletExp_regina_11082022,2022.2.4,120.22265663068464,
1,10,11,2,0.111111111111111,0.298245614035088,2,0.694444444444444,1.0,2,1.0,1.0,ReadingArea_rsl2-rcl11-esl29-rsm2-rcm69-esm100-rsr2-rcr100-esr100,exr/ReadingArea_rsl2-rcl11-esl29-rsm2-rcm69-esm100-rsr2-rcr100-esr100.exr,ReadingArea_rsl2-rcl11-esl29-rsm2-rcm69-esm100-rsr2-rcr100-esr100.npz,,,,,0,97,97,483,,,right,red,0.97,448.6611080169678,449.0219910144806,,2,,5,2,lightness,readingArea,realistic,75,2023-03-13_15h05.54.393,tripletExp_regina_11082022,2022.2.4,120.22265663068464,
2,5,0,2,0.25,0.298245614035088,2,1.0,0.298245614035088,2,0.027777777777778,0.298245614035088,ReadingArea_rsl2-rcl25-esl29-rsm2-rcm100-esm29-rsr2-rcr2-esr29,exr/ReadingArea_rsl2-rcl25-esl29-rsm2-rcm100-esm29-rsr2-rcr2-esr29.exr,ReadingArea_rsl2-rcl25-esl29-rsm2-rcm100-esm29-rsr2-rcr2-esr29.npz,,,,,0,98,98,414,,,left,green,0.73,450.7227690219879,451.0843029022217,,2,,5,2,lightness,readingArea,realistic,75,2023-03-13_15h05.54.393,tripletExp_regina_11082022,2022.2.4,120.22265663068464,
0,7,13,2,0.027777777777778,0.298245614035088,2,0.111111111111111,1.0,2,0.111111111111111,3.10526315789474,ReadingArea_rsl2-rcl2-esl29-rsm2-rcm11-esm100-rsr2-rcr11-esr310,exr/ReadingArea_rsl2-rcl2-esl29-rsm2-rcm11-esm100-rsr2-rcr11-esr310.exr,ReadingArea_rsl2-rcl2-esl29-rsm2-rcm11-esm100-rsr2-rcr11-esr310.npz,,,,,0,99,99,159,,,right,red,2.52,454.56516790390015,454.9214761257172,,2,,5,2,lightness,readingArea,realistic,75,2023-03-13_15h05.54.393,tripletExp_regina_11082022,2022.2.4,120.22265663068464,
14,10,5,2,0.25,3.10526315789474,2,0.694444444444444,1.0,2,1.0,0.298245614035088,ReadingArea_rsl2-rcl25-esl310-rsm2-rcm69-esm100-rsr2-rcr100-esr29,exr/ReadingArea_rsl2-rcl25-esl310-rsm2-rcm69-esm100-rsr2-rcr100-esr29.exr,ReadingArea_rsl2-rcl25-esl310-rsm2-rcm69-esm100-rsr2-rcr100-esr29.npz,,,,,0,100,100,96,,,left,green,1.04,456.6431241035461,,,2,,5,2,lightness,readingArea,realistic,75,2023-03-13_15h05.54.393,tripletExp_regina_11082022,2022.2.4,120.22265663068464,
9,4,11,2,0.444444444444444,1.0,2,0.694444444444444,0.298245614035088,2,1.0,1.0,ReadingArea_rsl2-rcl44-esl100-rsm2-rcm69-esm29-rsr2-rcr100-esr100,exr/ReadingArea_rsl2-rcl44-esl100-rsm2-rcm69-esm29-rsr2-rcr100-esr100.exr,ReadingArea_rsl2-rcl44-esl100-rsm2-rcm69-esm29-rsr2-rcr100-esr100.npz,,,,,0,101,101,133,,,left,green,1.16,458.6933228969574,,,2,,5,2,lightness,readingArea,realistic,75,2023-03-13_15h05.54.393,tripletExp_regina_11082022,2022.2.4,120.22265663068464,
7,5,11,2,0.111111111111111,1.0,2,1.0,0.298245614035088,2,1.0,1.0,ReadingArea_rsl2-rcl11-esl100-rsm2-rcm100-esm29-rsr2-rcr100-esr100,exr/ReadingArea_rsl2-rcl11-esl100-rsm2-rcm100-esm29-rsr2-rcr100-esr100.exr,ReadingArea_rsl2-rcl11-esl100-rsm2-rcm100-esm29-rsr2-rcr100-esr100.npz,,,,,0,102,102,10,,,left,green,1.06,460.7400810718536,461.0973770618439,,2,,5,2,lightness,readingArea,realistic,75,2023-03-13_15h05.54.393,tripletExp_regina_11082022,2022.2.4,120.22265663068464,
5,3,4,2,1.0,0.298245614035088,2,0.444444444444444,0.298245614035088,2,0.694444444444444,0.298245614035088,ReadingArea_rsl2-rcl100-esl29-rsm2-rcm44-esm29-rsr2-rcr69-esr29,exr/ReadingArea_rsl2-rcl100-esl29-rsm2-rcm44-esm29-rsr2-rcr69-esr29.exr,ReadingArea_rsl2-rcl100-esl29-rsm2-rcm44-esm29-rsr2-rcr69-esr29.npz,,,,,0,103,103,201,,,right,red,2.32,464.5879509449005,464.9349060058594,,2,,5,2,lightness,readingArea,realistic,75,2023-03-13_15h05.54.393,tripletExp_regina_11082022,2022.2.4,120.22265663068464,
10,0,8,2,0.694444444444444,1.0,2,0.027777777777778,0.298245614035088,2,0.25,1.0,ReadingArea_rsl2-rcl69-esl100-rsm2-rcm2-esm29-rsr2-rcr25-esr100,exr/ReadingArea_rsl2-rcl69-esl100-rsm2-rcm2-esm29-rsr2-rcr25-esr100.exr,ReadingArea_rsl2-rcl69-esl100-rsm2-rcm2-esm29-rsr2-rcr25-esr100.npz,,,,,0,104,104,552,,,right,red,0.86,466.6467781066895,467.0051980018616,,2,,5,2,lightness,readingArea,realistic,75,2023-03-13_15h05.54.393,tripletExp_regina_11082022,2022.2.4,120.22265663068464,
14,11,0,2,0.25,3.10526315789474,2,1.0,1.0,2,0.027777777777778,0.298245614035088,ReadingArea_rsl2-rcl25-esl310-rsm2-rcm100-esm100-rsr2-rcr2-esr29,exr/ReadingArea_rsl2-rcl25-esl310-rsm2-rcm100-esm100-rsr2-rcr2-esr29.exr,ReadingArea_rsl2-rcl25-esl310-rsm2-rcm100-esm100-rsr2-rcr2-esr29.npz,,,,,0,105,105,227,,,left,green,0.79,468.7129549980164,469.0724589824677,,2,,5,2,lightness,readingArea,realistic,75,2023-03-13_15h05.54.393,tripletExp_regina_11082022,2022.2.4,120.22265663068464,
8,11,1,2,0.25,1.0,2,1.0,1.0,2,0.111111111111111,0.298245614035088,ReadingArea_rsl2-rcl25-esl100-rsm2-rcm100-esm100-rsr2-rcr11-esr29,exr/ReadingArea_rsl2-rcl25-esl100-rsm2-rcm100-esm100-rsr2-rcr11-esr29.exr,ReadingArea_rsl2-rcl25-esl100-rsm2-rcm100-esm100-rsr2-rcr11-esr29.npz,,,,,0,106,106,132,,,left,green,1.19,470.7848889827728,471.1839690208435,,2,,5,2,lightness,readingArea,realistic,75,2023-03-13_15h05.54.393,tripletExp_regina_11082022,2022.2.4,120.22265663068464,
13,0,12,2,0.111111111111111,3.10526315789474,2,0.027777777777778,0.298245614035088,2,0.027777777777778,3.10526315789474,ReadingArea_rsl2-rcl11-esl310-rsm2-rcm2-esm29-rsr2-rcr2-esr310,exr/ReadingArea_rsl2-rcl11-esl310-rsm2-rcm2-esm29-rsr2-rcr2-esr310.exr,ReadingArea_rsl2-rcl11-esl310-rsm2-rcm2-esm29-rsr2-rcr2-esr310.npz,,,,,0,107,107,56,,,right,red,0.89,472.8735370635986,473.232549905777,,2,,5,2,lightness,readingArea,realistic,75,2023-03-13_15h05.54.393,tripletExp_regina_11082022,2022.2.4,120.22265663068464,
2,3,4,2,0.25,0.298245614035088,2,0.444444444444444,0.298245614035088,2,0.694444444444444,0.298245614035088,ReadingArea_rsl2-rcl25-esl29-rsm2-rcm44-esm29-rsr2-rcr69-esr29,exr/ReadingArea_rsl2-rcl25-esl29-rsm2-rcm44-esm29-rsr2-rcr69-esr29.exr,ReadingArea_rsl2-rcl25-esl29-rsm2-rcm44-esm29-rsr2-rcr69-esr29.npz,,,,,0,108,108,61,,,left,green,1.21,474.9527759552002,475.29147005081177,,2,,5,2,lightness,readingArea,realistic,75,2023-03-13_15h05.54.393,tripletExp_regina_11082022,2022.2.4,120.22265663068464,
13,8,0,2,0.111111111111111,3.10526315789474,2,0.25,1.0,2,0.027777777777778,0.298245614035088,ReadingArea_rsl2-rcl11-esl310-rsm2-rcm25-esm100-rsr2-rcr2-esr29,exr/ReadingArea_rsl2-rcl11-esl310-rsm2-rcm25-esm100-rsr2-rcr2-esr29.exr,ReadingArea_rsl2-rcl11-esl310-rsm2-rcm25-esm100-rsr2-rcr2-esr29.npz,,,,,0,109,109,429,,,left,green,1.41,476.97811794281006,477.3313889503479,,2,,5,2,lightness,readingArea,realistic,75,2023-03-13_15h05.54.393,tripletExp_regina_11082022,2022.2.4,120.22265663068464,
7,4,1,2,0.111111111111111,1.0,2,0.694444444444444,0.298245614035088,2,0.111111111111111,0.298245614035088,ReadingArea_rsl2-rcl11-esl100-rsm2-rcm69-esm29-rsr2-rcr11-esr29,exr/ReadingArea_rsl2-rcl11-esl100-rsm2-rcm69-esm29-rsr2-rcr11-esr29.exr,ReadingArea_rsl2-rcl11-esl100-rsm2-rcm69-esm29-rsr2-rcr11-esr29.npz,,,,,0,110,110,369,,,left,green,1.4,479.02924489974976,479.38317704200745,,2,,5,2,lightness,readingArea,realistic,75,2023-03-13_15h05.54.393,tripletExp_regina_11082022,2022.2.4,120.22265663068464,
3,8,7,2,0.444444444444444,0.298245614035088,2,0.25,1.0,2,0.111111111111111,1.0,ReadingArea_rsl2-rcl44-esl29-rsm2-rcm25-esm100-rsr2-rcr11-esr100,exr/ReadingArea_rsl2-rcl44-esl29-rsm2-rcm25-esm100-rsr2-rcr11-esr100.exr,ReadingArea_rsl2-rcl44-esl29-rsm2-rcm25-esm100-rsr2-rcr11-esr100.npz,,,,,0,111,111,484,,,left,green,2.89,482.88631105422974,483.2749390602112,,2,,5,2,lightness,readingArea,realistic,75,2023-03-13_15h05.54.393,tripletExp_regina_11082022,2022.2.4,120.22265663068464,
2,11,8,2,0.25,0.298245614035088,2,1.0,1.0,2,0.25,1.0,ReadingArea_rsl2-rcl25-esl29-rsm2-rcm100-esm100-rsr2-rcr25-esr100,exr/ReadingArea_rsl2-rcl25-esl29-rsm2-rcm100-esm100-rsr2-rcr25-esr100.exr,ReadingArea_rsl2-rcl25-esl29-rsm2-rcm100-esm100-rsr2-rcr25-esr100.npz,,,,,0,112,112,364,,,right,red,1.01,484.9770700931549,485.3190491199493,,2,,5,2,lightness,readingArea,realistic,75,2023-03-13_15h05.54.393,tripletExp_regina_11082022,2022.2.4,120.22265663068464,
12,6,14,2,0.027777777777778,3.10526315789474,2,0.027777777777778,1.0,2,0.25,3.10526315789474,ReadingArea_rsl2-rcl2-esl310-rsm2-rcm2-esm100-rsr2-rcr25-esr310,exr/ReadingArea_rsl2-rcl2-esl310-rsm2-rcm2-esm100-rsr2-rcr25-esr310.exr,ReadingArea_rsl2-rcl2-esl310-rsm2-rcm2-esm100-rsr2-rcr25-esr310.npz,,,,,0,113,113,218,,,left,green,1.02,487.0231559276581,487.3888220787048,,2,,5,2,lightness,readingArea,realistic,75,2023-03-13_15h05.54.393,tripletExp_regina_11082022,2022.2.4,120.22265663068464,
4,5,8,2,0.694444444444444,0.298245614035088,2,1.0,0.298245614035088,2,0.25,1.0,ReadingArea_rsl2-rcl69-esl29-rsm2-rcm100-esm29-rsr2-rcr25-esr100,exr/ReadingArea_rsl2-rcl69-esl29-rsm2-rcm100-esm29-rsr2-rcr25-esr100.exr,ReadingArea_rsl2-rcl69-esl29-rsm2-rcm100-esm29-rsr2-rcr25-esr100.npz,,,,,0,114,114,54,,,left,green,1.36,489.10793900489807,489.465735912323,,2,,5,2,lightness,readingArea,realistic,75,2023-03-13_15h05.54.393,tripletExp_regina_11082022,2022.2.4,120.22265663068464,
6,4,13,2,0.027777777777778,1.0,2,0.694444444444444,0.298245614035088,2,0.111111111111111,3.10526315789474,ReadingArea_rsl2-rcl2-esl100-rsm2-rcm69-esm29-rsr2-rcr11-esr310,exr/ReadingArea_rsl2-rcl2-esl100-rsm2-rcm69-esm29-rsr2-rcr11-esr310.exr,ReadingArea_rsl2-rcl2-esl100-rsm2-rcm69-esm29-rsr2-rcr11-esr310.npz,,,,,0,115,115,202,,,right,red,1.08,491.172532081604,491.5291750431061,,2,,5,2,lightness,readingArea,realistic,75,2023-03-13_15h05.54.393,tripletExp_regina_11082022,2022.2.4,120.22265663068464,
0,11,9,2,0.027777777777778,0.298245614035088,2,1.0,1.0,2,0.444444444444444,1.0,ReadingArea_rsl2-rcl2-esl29-rsm2-rcm100-esm100-rsr2-rcr44-esr100,exr/ReadingArea_rsl2-rcl2-esl29-rsm2-rcm100-esm100-rsr2-rcr44-esr100.exr,ReadingArea_rsl2-rcl2-esl29-rsm2-rcm100-esm100-rsr2-rcr44-esr100.npz,,,,,0,116,116,32,,,right,red,1.21,493.2427909374237,493.5900161266327,,2,,5,2,lightness,readingArea,realistic,75,2023-03-13_15h05.54.393,tripletExp_regina_11082022,2022.2.4,120.22265663068464,
13,4,0,2,0.111111111111111,3.10526315789474,2,0.694444444444444,0.298245614035088,2,0.027777777777778,0.298245614035088,ReadingArea_rsl2-rcl11-esl310-rsm2-rcm69-esm29-rsr2-rcr2-esr29,exr/ReadingArea_rsl2-rcl11-esl310-rsm2-rcm69-esm29-rsr2-rcr2-esr29.exr,ReadingArea_rsl2-rcl11-esl310-rsm2-rcm69-esm29-rsr2-rcr2-esr29.npz,,,,,0,117,117,269,,,left,green,0.89,495.2823059558869,,,2,,5,2,lightness,readingArea,realistic,75,2023-03-13_15h05.54.393,tripletExp_regina_11082022,2022.2.4,120.22265663068464,
10,6,3,2,0.694444444444444,1.0,2,0.027777777777778,1.0,2,0.444444444444444,0.298245614035088,ReadingArea_rsl2-rcl69-esl100-rsm2-rcm2-esm100-rsr2-rcr44-esr29,exr/ReadingArea_rsl2-rcl69-esl100-rsm2-rcm2-esm100-rsr2-rcr44-esr29.exr,ReadingArea_rsl2-rcl69-esl100-rsm2-rcm2-esm100-rsr2-rcr44-esr29.npz,,,,,0,118,118,0,,,right,red,2.41,499.1093740463257,499.4711570739746,,2,,5,2,lightness,readingArea,realistic,75,2023-03-13_15h05.54.393,tripletExp_regina_11082022,2022.2.4,120.22265663068464,
13,6,4,2,0.111111111111111,3.10526315789474,2,0.027777777777778,1.0,2,0.694444444444444,0.298245614035088,ReadingArea_rsl2-rcl11-esl310-rsm2-rcm2-esm100-rsr2-rcr69-esr29,exr/ReadingArea_rsl2-rcl11-esl310-rsm2-rcm2-esm100-rsr2-rcr69-esr29.exr,ReadingArea_rsl2-rcl11-esl310-rsm2-rcm2-esm100-rsr2-rcr69-esr29.npz,,,,,0,119,119,328,,,right,red,2.24,502.9618821144104,503.3204169273377,,2,,5,2,lightness,readingArea,realistic,75,2023-03-13_15h05.54.393,tripletExp_regina_11082022,2022.2.4,120.22265663068464,
8,6,11,2,0.25,1.0,2,0.027777777777778,1.0,2,1.0,1.0,ReadingArea_rsl2-rcl25-esl100-rsm2-rcm2-esm100-rsr2-rcr100-esr100,exr/ReadingArea_rsl2-rcl25-esl100-rsm2-rcm2-esm100-rsr2-rcr100-esr100.exr,ReadingArea_rsl2-rcl25-esl100-rsm2-rcm2-esm100-rsr2-rcr100-esr100.npz,,,,,0,120,120,236,,,left,green,1.04,505.008868932724,,,2,,5,2,lightness,readingArea,realistic,75,2023-03-13_15h05.54.393,tripletExp_regina_11082022,2022.2.4,120.22265663068464,
14,6,13,2,0.25,3.10526315789474,2,0.027777777777778,1.0,2,0.111111111111111,3.10526315789474,ReadingArea_rsl2-rcl25-esl310-rsm2-rcm2-esm100-rsr2-rcr11-esr310,exr/ReadingArea_rsl2-rcl25-esl310-rsm2-rcm2-esm100-rsr2-rcr11-esr310.exr,ReadingArea_rsl2-rcl25-esl310-rsm2-rcm2-esm100-rsr2-rcr11-esr310.npz,,,,,0,121,121,91,,,right,red,1.21,507.0572259426117,507.3888809680939,,2,,5,2,lightness,readingArea,realistic,75,2023-03-13_15h05.54.393,tripletExp_regina_11082022,2022.2.4,120.22265663068464,
10,9,6,2,0.694444444444444,1.0,2,0.444444444444444,1.0,2,0.027777777777778,1.0,ReadingArea_rsl2-rcl69-esl100-rsm2-rcm44-esm100-rsr2-rcr2-esr100,exr/ReadingArea_rsl2-rcl69-esl100-rsm2-rcm44-esm100-rsr2-rcr2-esr100.exr,ReadingArea_rsl2-rcl69-esl100-rsm2-rcm44-esm100-rsr2-rcr2-esr100.npz,,,,,0,122,122,35,,,left,green,0.69,509.0860729217529,509.45392298698425,,2,,5,2,lightness,readingArea,realistic,75,2023-03-13_15h05.54.393,tripletExp_regina_11082022,2022.2.4,120.22265663068464,
6,3,13,2,0.027777777777778,1.0,2,0.444444444444444,0.298245614035088,2,0.111111111111111,3.10526315789474,ReadingArea_rsl2-rcl2-esl100-rsm2-rcm44-esm29-rsr2-rcr11-esr310,exr/ReadingArea_rsl2-rcl2-esl100-rsm2-rcm44-esm29-rsr2-rcr11-esr310.exr,ReadingArea_rsl2-rcl2-esl100-rsm2-rcm44-esm29-rsr2-rcr11-esr310.npz,,,,,0,123,123,228,,,right,red,1.14,511.1676208972931,511.5123660564423,,2,,5,2,lightness,readingArea,realistic,75,2023-03-13_15h05.54.393,tripletExp_regina_11082022,2022.2.4,120.22265663068464,
10,12,11,2,0.694444444444444,1.0,2,0.027777777777778,3.10526315789474,2,1.0,1.0,ReadingArea_rsl2-rcl69-esl100-rsm2-rcm2-esm310-rsr2-rcr100-esr100,exr/ReadingArea_rsl2-rcl69-esl100-rsm2-rcm2-esm310-rsr2-rcr100-esr100.exr,ReadingArea_rsl2-rcl69-esl100-rsm2-rcm2-esm310-rsr2-rcr100-esr100.npz,,,,,0,124,124,317,,,left,green,1.37,513.2333569526672,513.5899579524994,,2,,5,2,lightness,readingArea,realistic,75,2023-03-13_15h05.54.393,tripletExp_regina_11082022,2022.2.4,120.22265663068464,
1,14,6,2,0.111111111111111,0.298245614035088,2,0.25,3.10526315789474,2,0.027777777777778,1.0,ReadingArea_rsl2-rcl11-esl29-rsm2-rcm25-esm310-rsr2-rcr2-esr100,exr/ReadingArea_rsl2-rcl11-esl29-rsm2-rcm25-esm310-rsr2-rcr2-esr100.exr,ReadingArea_rsl2-rcl11-esl29-rsm2-rcm25-esm310-rsr2-rcr2-esr100.npz,,,,,0,125,125,475,,,left,green,1.14,515.2931909561157,515.6578969955444,,2,,5,2,lightness,readingArea,realistic,75,2023-03-13_15h05.54.393,tripletExp_regina_11082022,2022.2.4,120.22265663068464,
1,14,5,2,0.111111111111111,0.298245614035088,2,0.25,3.10526315789474,2,1.0,0.298245614035088,ReadingArea_rsl2-rcl11-esl29-rsm2-rcm25-esm310-rsr2-rcr100-esr29,exr/ReadingArea_rsl2-rcl11-esl29-rsm2-rcm25-esm310-rsr2-rcr100-esr29.exr,ReadingArea_rsl2-rcl11-esl29-rsm2-rcm25-esm310-rsr2-rcr100-esr29.npz,,,,,0,126,126,509,,,right,red,0.93,517.3698461055756,517.7117691040039,,2,,5,2,lightness,readingArea,realistic,75,2023-03-13_15h05.54.393,tripletExp_regina_11082022,2022.2.4,120.22265663068464,
2,1,12,2,0.25,0.298245614035088,2,0.111111111111111,0.298245614035088,2,0.027777777777778,3.10526315789474,ReadingArea_rsl2-rcl25-esl29-rsm2-rcm11-esm29-rsr2-rcr2-esr310,exr/ReadingArea_rsl2-rcl25-esl29-rsm2-rcm11-esm29-rsr2-rcr2-esr310.exr,ReadingArea_rsl2-rcl25-esl29-rsm2-rcm11-esm29-rsr2-rcr2-esr310.npz,,,,,0,127,127,12,,,left,green,1.01,519.4129509925842,519.76731300354,,2,,5,2,lightness,readingArea,realistic,75,2023-03-13_15h05.54.393,tripletExp_regina_11082022,2022.2.4,120.22265663068464,
10,3,1,2,0.694444444444444,1.0,2,0.444444444444444,0.298245614035088,2,0.111111111111111,0.298245614035088,ReadingArea_rsl2-rcl69-esl100-rsm2-rcm44-esm29-rsr2-rcr11-esr29,exr/ReadingArea_rsl2-rcl69-esl100-rsm2-rcm44-esm29-rsr2-rcr11-esr29.exr,ReadingArea_rsl2-rcl69-esl100-rsm2-rcm44-esm29-rsr2-rcr11-esr29.npz,,,,,0,128,128,420,,,left,green,2.83,523.2486460208893,523.5838859081268,,2,,5,2,lightness,readingArea,realistic,75,2023-03-13_15h05.54.393,tripletExp_regina_11082022,2022.2.4,120.22265663068464,
14,12,5,2,0.25,3.10526315789474,2,0.027777777777778,3.10526315789474,2,1.0,0.298245614035088,ReadingArea_rsl2-rcl25-esl310-rsm2-rcm2-esm310-rsr2-rcr100-esr29,exr/ReadingArea_rsl2-rcl25-esl310-rsm2-rcm2-esm310-rsr2-rcr100-esr29.exr,ReadingArea_rsl2-rcl25-esl310-rsm2-rcm2-esm310-rsr2-rcr100-esr29.npz,,,,,0,129,129,335,,,right,red,2.17,527.0566561222076,527.4201741218567,,2,,5,2,lightness,readingArea,realistic,75,2023-03-13_15h05.54.393,tripletExp_regina_11082022,2022.2.4,120.22265663068464,
5,8,3,2,1.0,0.298245614035088,2,0.25,1.0,2,0.444444444444444,0.298245614035088,ReadingArea_rsl2-rcl100-esl29-rsm2-rcm25-esm100-rsr2-rcr44-esr29,exr/ReadingArea_rsl2-rcl100-esl29-rsm2-rcm25-esm100-rsr2-rcr44-esr29.exr,ReadingArea_rsl2-rcl100-esl29-rsm2-rcm25-esm100-rsr2-rcr44-esr29.npz,,,,,0,130,130,556,,,left,green,2.87,530.9103589057922,531.272213935852,,2,,5,2,lightness,readingArea,realistic,75,2023-03-13_15h05.54.393,tripletExp_regina_11082022,2022.2.4,120.22265663068464,
14,9,0,2,0.25,3.10526315789474,2,0.444444444444444,1.0,2,0.027777777777778,0.298245614035088,ReadingArea_rsl2-rcl25-esl310-rsm2-rcm44-esm100-rsr2-rcr2-esr29,exr/ReadingArea_rsl2-rcl25-esl310-rsm2-rcm44-esm100-rsr2-rcr2-esr29.exr,ReadingArea_rsl2-rcl25-esl310-rsm2-rcm44-esm100-rsr2-rcr2-esr29.npz,,,,,0,131,131,313,,,left,green,1.22,532.9670851230621,533.3315670490265,,2,,5,2,lightness,readingArea,realistic,75,2023-03-13_15h05.54.393,tripletExp_regina_11082022,2022.2.4,120.22265663068464,
4,3,9,2,0.694444444444444,0.298245614035088,2,0.444444444444444,0.298245614035088,2,0.444444444444444,1.0,ReadingArea_rsl2-rcl69-esl29-rsm2-rcm44-esm29-rsr2-rcr44-esr100,exr/ReadingArea_rsl2-rcl69-esl29-rsm2-rcm44-esm29-rsr2-rcr44-esr100.exr,ReadingArea_rsl2-rcl69-esl29-rsm2-rcm44-esm29-rsr2-rcr44-esr100.npz,,,,,0,132,132,451,,,left,green,1.14,535.020956993103,535.3766250610352,,2,,5,2,lightness,readingArea,realistic,75,2023-03-13_15h05.54.393,tripletExp_regina_11082022,2022.2.4,120.22265663068464,
14,2,1,2,0.25,3.10526315789474,2,0.25,0.298245614035088,2,0.111111111111111,0.298245614035088,ReadingArea_rsl2-rcl25-esl310-rsm2-rcm25-esm29-rsr2-rcr11-esr29,exr/ReadingArea_rsl2-rcl25-esl310-rsm2-rcm25-esm29-rsr2-rcr11-esr29.exr,ReadingArea_rsl2-rcl25-esl310-rsm2-rcm25-esm29-rsr2-rcr11-esr29.npz,,,,,0,133,133,321,,,right,red,1.2,537.0955328941345,537.4600899219513,,2,,5,2,lightness,readingArea,realistic,75,2023-03-13_15h05.54.393,tripletExp_regina_11082022,2022.2.4,120.22265663068464,
11,13,8,2,1.0,1.0,2,0.111111111111111,3.10526315789474,2,0.25,1.0,ReadingArea_rsl2-rcl100-esl100-rsm2-rcm11-esm310-rsr2-rcr25-esr100,exr/ReadingArea_rsl2-rcl100-esl100-rsm2-rcm11-esm310-rsr2-rcr25-esr100.exr,ReadingArea_rsl2-rcl100-esl100-rsm2-rcm11-esm310-rsr2-rcr25-esr100.npz,,,,,0,134,134,198,,,right,red,1.29,539.1514439582825,539.4865479469299,,2,,5,2,lightness,readingArea,realistic,75,2023-03-13_15h05.54.393,tripletExp_regina_11082022,2022.2.4,120.22265663068464,
11,0,6,2,1.0,1.0,2,0.027777777777778,0.298245614035088,2,0.027777777777778,1.0,ReadingArea_rsl2-rcl100-esl100-rsm2-rcm2-esm29-rsr2-rcr2-esr100,exr/ReadingArea_rsl2-rcl100-esl100-rsm2-rcm2-esm29-rsr2-rcr2-esr100.exr,ReadingArea_rsl2-rcl100-esl100-rsm2-rcm2-esm29-rsr2-rcr2-esr100.npz,,,,,0,135,135,586,,,right,red,1.02,541.1949460506439,541.5307810306549,,2,,5,2,lightness,readingArea,realistic,75,2023-03-13_15h05.54.393,tripletExp_regina_11082022,2022.2.4,120.22265663068464,
1,12,10,2,0.111111111111111,0.298245614035088,2,0.027777777777778,3.10526315789474,2,0.694444444444444,1.0,ReadingArea_rsl2-rcl11-esl29-rsm2-rcm2-esm310-rsr2-rcr69-esr100,exr/ReadingArea_rsl2-rcl11-esl29-rsm2-rcm2-esm310-rsr2-rcr69-esr100.exr,ReadingArea_rsl2-rcl11-esl29-rsm2-rcm2-esm310-rsr2-rcr69-esr100.npz,,,,,0,136,136,567,,,left,green,0.97,543.2271320819855,543.5864489078522,,2,,5,2,lightness,readingArea,realistic,75,2023-03-13_15h05.54.393,tripletExp_regina_11082022,2022.2.4,120.22265663068464,
6,4,0,2,0.027777777777778,1.0,2,0.694444444444444,0.298245614035088,2,0.027777777777778,0.298245614035088,ReadingArea_rsl2-rcl2-esl100-rsm2-rcm69-esm29-rsr2-rcr2-esr29,exr/ReadingArea_rsl2-rcl2-esl100-rsm2-rcm69-esm29-rsr2-rcr2-esr29.exr,ReadingArea_rsl2-rcl2-esl100-rsm2-rcm69-esm29-rsr2-rcr2-esr29.npz,,,,,0,137,137,360,,,left,green,1.34,545.290323972702,,,2,,5,2,lightness,readingArea,realistic,75,2023-03-13_15h05.54.393,tripletExp_regina_11082022,2022.2.4,120.22265663068464,
12,6,7,2,0.027777777777778,3.10526315789474,2,0.027777777777778,1.0,2,0.111111111111111,1.0,ReadingArea_rsl2-rcl2-esl310-rsm2-rcm2-esm100-rsr2-rcr11-esr100,exr/ReadingArea_rsl2-rcl2-esl310-rsm2-rcm2-esm100-rsr2-rcr11-esr100.exr,ReadingArea_rsl2-rcl2-esl310-rsm2-rcm2-esm100-rsr2-rcr11-esr100.npz,,,,,0,138,138,308,,,right,red,2.88,549.1270151138306,549.491231918335,,2,,5,2,lightness,readingArea,realistic,75,2023-03-13_15h05.54.393,tripletExp_regina_11082022,2022.2.4,120.22265663068464,
7,8,14,2,0.111111111111111,1.0,2,0.25,1.0,2,0.25,3.10526315789474,ReadingArea_rsl2-rcl11-esl100-rsm2-rcm25-esm100-rsr2-rcr25-esr310,exr/ReadingArea_rsl2-rcl11-esl100-rsm2-rcm25-esm100-rsr2-rcr25-esr310.exr,ReadingArea_rsl2-rcl11-esl100-rsm2-rcm25-esm100-rsr2-rcr25-esr310.npz,,,,,0,139,139,300,,,left,green,0.93,551.1792531013489,551.5186259746552,,2,,5,2,lightness,readingArea,realistic,75,2023-03-13_15h05.54.393,tripletExp_regina_11082022,2022.2.4,120.22265663068464,
2,4,14,2,0.25,0.298245614035088,2,0.694444444444444,0.298245614035088,2,0.25,3.10526315789474,ReadingArea_rsl2-rcl25-esl29-rsm2-rcm69-esm29-rsr2-rcr25-esr310,exr/ReadingArea_rsl2-rcl25-esl29-rsm2-rcm69-esm29-rsr2-rcr25-esr310.exr,ReadingArea_rsl2-rcl25-esl29-rsm2-rcm69-esm29-rsr2-rcr25-esr310.npz,,,,,0,140,140,356,,,left,green,0.91,553.2346980571747,553.58069896698,,2,,5,2,lightness,readingArea,realistic,75,2023-03-13_15h05.54.393,tripletExp_regina_11082022,2022.2.4,120.22265663068464,
7,8,11,2,0.111111111111111,1.0,2,0.25,1.0,2,1.0,1.0,ReadingArea_rsl2-rcl11-esl100-rsm2-rcm25-esm100-rsr2-rcr100-esr100,exr/ReadingArea_rsl2-rcl11-esl100-rsm2-rcm25-esm100-rsr2-rcr100-esr100.exr,ReadingArea_rsl2-rcl11-esl100-rsm2-rcm25-esm100-rsr2-rcr100-esr100.npz,,,,,0,141,141,363,,,left,green,0.77,555.2767961025238,555.6640388965607,,2,,5,2,lightness,readingArea,realistic,75,2023-03-13_15h05.54.393,tripletExp_regina_11082022,2022.2.4,120.22265663068464,
6,5,11,2,0.027777777777778,1.0,2,1.0,0.298245614035088,2,1.0,1.0,ReadingArea_rsl2-rcl2-esl100-rsm2-rcm100-esm29-rsr2-rcr100-esr100,exr/ReadingArea_rsl2-rcl2-esl100-rsm2-rcm100-esm29-rsr2-rcr100-esr100.exr,ReadingArea_rsl2-rcl2-esl100-rsm2-rcm100-esm29-rsr2-rcr100-esr100.npz,,,,,0,142,142,289,,,right,red,2.58,559.1499090194702,559.5047221183777,,2,,5,2,lightness,readingArea,realistic,75,2023-03-13_15h05.54.393,tripletExp_regina_11082022,2022.2.4,120.22265663068464,
10,1,0,2,0.694444444444444,1.0,2,0.111111111111111,0.298245614035088,2,0.027777777777778,0.298245614035088,ReadingArea_rsl2-rcl69-esl100-rsm2-rcm11-esm29-rsr2-rcr2-esr29,exr/ReadingArea_rsl2-rcl69-esl100-rsm2-rcm11-esm29-rsr2-rcr2-esr29.exr,ReadingArea_rsl2-rcl69-esl100-rsm2-rcm11-esm29-rsr2-rcr2-esr29.npz,,,,,0,143,143,276,,,right,red,2.14,562.965903043747,563.3271191120148,,2,,5,2,lightness,readingArea,realistic,75,2023-03-13_15h05.54.393,tripletExp_regina_11082022,2022.2.4,120.22265663068464,
11,5,3,2,1.0,1.0,2,1.0,0.298245614035088,2,0.444444444444444,0.298245614035088,ReadingArea_rsl2-rcl100-esl100-rsm2-rcm100-esm29-rsr2-rcr44-esr29,exr/ReadingArea_rsl2-rcl100-esl100-rsm2-rcm100-esm29-rsr2-rcr44-esr29.exr,ReadingArea_rsl2-rcl100-esl100-rsm2-rcm100-esm29-rsr2-rcr44-esr29.npz,,,,,0,144,144,172,,,left,green,0.99,565.0208079814911,565.4129679203033,,2,,5,2,lightness,readingArea,realistic,75,2023-03-13_15h05.54.393,tripletExp_regina_11082022,2022.2.4,120.22265663068464,
7,9,5,2,0.111111111111111,1.0,2,0.444444444444444,1.0,2,1.0,0.298245614035088,ReadingArea_rsl2-rcl11-esl100-rsm2-rcm44-esm100-rsr2-rcr100-esr29,exr/ReadingArea_rsl2-rcl11-esl100-rsm2-rcm44-esm100-rsr2-rcr100-esr29.exr,ReadingArea_rsl2-rcl11-esl100-rsm2-rcm44-esm100-rsr2-rcr100-esr29.npz,,,,,0,145,145,291,,,right,red,3.03,568.8886680603027,569.2493300437927,,2,,5,2,lightness,readingArea,realistic,75,2023-03-13_15h05.54.393,tripletExp_regina_11082022,2022.2.4,120.22265663068464,
8,13,2,2,0.25,1.0,2,0.111111111111111,3.10526315789474,2,0.25,0.298245614035088,ReadingArea_rsl2-rcl25-esl100-rsm2-rcm11-esm310-rsr2-rcr25-esr29,exr/ReadingArea_rsl2-rcl25-esl100-rsm2-rcm11-esm310-rsr2-rcr25-esr29.exr,ReadingArea_rsl2-rcl25-esl100-rsm2-rcm11-esm310-rsr2-rcr25-esr29.npz,,,,,0,146,146,376,,,left,green,1.04,570.9584810733795,571.3199319839478,,2,,5,2,lightness,readingArea,realistic,75,2023-03-13_15h05.54.393,tripletExp_regina_11082022,2022.2.4,120.22265663068464,
0,5,2,2,0.027777777777778,0.298245614035088,2,1.0,0.298245614035088,2,0.25,0.298245614035088,ReadingArea_rsl2-rcl2-esl29-rsm2-rcm100-esm29-rsr2-rcr25-esr29,exr/ReadingArea_rsl2-rcl2-esl29-rsm2-rcm100-esm29-rsr2-rcr25-esr29.exr,ReadingArea_rsl2-rcl2-esl29-rsm2-rcm100-esm29-rsr2-rcr25-esr29.npz,,,,,0,147,147,25,,,right,red,1.23,573.0440909862518,573.4292900562286,,2,,5,2,lightness,readingArea,realistic,75,2023-03-13_15h05.54.393,tripletExp_regina_11082022,2022.2.4,120.22265663068464,
3,2,11,2,0.444444444444444,0.298245614035088,2,0.25,0.298245614035088,2,1.0,1.0,ReadingArea_rsl2-rcl44-esl29-rsm2-rcm25-esm29-rsr2-rcr100-esr100,exr/ReadingArea_rsl2-rcl44-esl29-rsm2-rcm25-esm29-rsr2-rcr100-esr100.exr,ReadingArea_rsl2-rcl44-esl29-rsm2-rcm25-esm29-rsr2-rcr100-esr100.npz,,,,,0,148,148,257,,,left,green,1.01,575.1266860961914,575.4904379844666,,2,,5,2,lightness,readingArea,realistic,75,2023-03-13_15h05.54.393,tripletExp_regina_11082022,2022.2.4,120.22265663068464,
6,4,2,2,0.027777777777778,1.0,2,0.694444444444444,0.298245614035088,2,0.25,0.298245614035088,ReadingArea_rsl2-rcl2-esl100-rsm2-rcm69-esm29-rsr2-rcr25-esr29,exr/ReadingArea_rsl2-rcl2-esl100-rsm2-rcm69-esm29-rsr2-rcr25-esr29.exr,ReadingArea_rsl2-rcl2-esl100-rsm2-rcm69-esm29-rsr2-rcr25-esr29.npz,,,,,0,149,149,134,,,right,red,1.11,577.205020904541,577.410581111908,,2,,5,2,lightness,readingArea,realistic,75,2023-03-13_15h05.54.393,tripletExp_regina_11082022,2022.2.4,120.22265663068464,
11,0,12,2,1.0,1.0,2,0.027777777777778,0.298245614035088,2,0.027777777777778,3.10526315789474,ReadingArea_rsl2-rcl100-esl100-rsm2-rcm2-esm29-rsr2-rcr2-esr310,exr/ReadingArea_rsl2-rcl100-esl100-rsm2-rcm2-esm29-rsr2-rcr2-esr310.exr,ReadingArea_rsl2-rcl100-esl100-rsm2-rcm2-esm29-rsr2-rcr2-esr310.npz,,,,,0,150,150,166,,,right,red,2.42,583.8302209377289,584.2012059688568,,3,,5,2,lightness,readingArea,realistic,75,2023-03-13_15h05.54.393,tripletExp_regina_11082022,2022.2.4,120.22265663068464,
2,1,10,2,0.25,0.298245614035088,2,0.111111111111111,0.298245614035088,2,0.694444444444444,1.0,ReadingArea_rsl2-rcl25-esl29-rsm2-rcm11-esm29-rsr2-rcr69-esr100,exr/ReadingArea_rsl2-rcl25-esl29-rsm2-rcm11-esm29-rsr2-rcr69-esr100.exr,ReadingArea_rsl2-rcl25-esl29-rsm2-rcm11-esm29-rsr2-rcr69-esr100.npz,,,,,0,151,151,585,,,left,green,0.93,585.8929300308228,586.2525589466095,,3,,5,2,lightness,readingArea,realistic,75,2023-03-13_15h05.54.393,tripletExp_regina_11082022,2022.2.4,120.22265663068464,
8,3,9,2,0.25,1.0,2,0.444444444444444,0.298245614035088,2,0.444444444444444,1.0,ReadingArea_rsl2-rcl25-esl100-rsm2-rcm44-esm29-rsr2-rcr44-esr100,exr/ReadingArea_rsl2-rcl25-esl100-rsm2-rcm44-esm29-rsr2-rcr44-esr100.exr,ReadingArea_rsl2-rcl25-esl100-rsm2-rcm44-esm29-rsr2-rcr44-esr100.npz,,,,,0,152,152,15,,,left,green,1.34,587.951896905899,588.2984519004822,,3,,5,2,lightness,readingArea,realistic,75,2023-03-13_15h05.54.393,tripletExp_regina_11082022,2022.2.4,120.22265663068464,
10,7,13,2,0.694444444444444,1.0,2,0.111111111111111,1.0,2,0.111111111111111,3.10526315789474,ReadingArea_rsl2-rcl69-esl100-rsm2-rcm11-esm100-rsr2-rcr11-esr310,exr/ReadingArea_rsl2-rcl69-esl100-rsm2-rcm11-esm100-rsr2-rcr11-esr310.exr,ReadingArea_rsl2-rcl69-esl100-rsm2-rcm11-esm100-rsr2-rcr11-esr310.npz,,,,,0,153,153,379,,,right,red,1.4,590.0096390247345,590.3758389949799,,3,,5,2,lightness,readingArea,realistic,75,2023-03-13_15h05.54.393,tripletExp_regina_11082022,2022.2.4,120.22265663068464,
12,5,2,2,0.027777777777778,3.10526315789474,2,1.0,0.298245614035088,2,0.25,0.298245614035088,ReadingArea_rsl2-rcl2-esl310-rsm2-rcm100-esm29-rsr2-rcr25-esr29,exr/ReadingArea_rsl2-rcl2-esl310-rsm2-rcm100-esm29-rsr2-rcr25-esr29.exr,ReadingArea_rsl2-rcl2-esl310-rsm2-rcm100-esm29-rsr2-rcr25-esr29.npz,,,,,0,154,154,415,,,,red,1.4,595.6679379940033,596.036906003952,,3,595.2814668178559,5,2,lightness,readingArea,realistic,75,2023-03-13_15h05.54.393,tripletExp_regina_11082022,2022.2.4,120.22265663068464,
5,2,0,2,1.0,0.298245614035088,2,0.25,0.298245614035088,2,0.027777777777778,0.298245614035088,ReadingArea_rsl2-rcl100-esl29-rsm2-rcm25-esm29-rsr2-rcr2-esr29,exr/ReadingArea_rsl2-rcl100-esl29-rsm2-rcm25-esm29-rsr2-rcr2-esr29.exr,ReadingArea_rsl2-rcl100-esl29-rsm2-rcm25-esm29-rsr2-rcr2-esr29.npz,,,,,0,155,155,476,,,left,green,2.67,599.5082631111145,599.8765790462494,,3,,5,2,lightness,readingArea,realistic,75,2023-03-13_15h05.54.393,tripletExp_regina_11082022,2022.2.4,120.22265663068464,
2,12,6,2,0.25,0.298245614035088,2,0.027777777777778,3.10526315789474,2,0.027777777777778,1.0,ReadingArea_rsl2-rcl25-esl29-rsm2-rcm2-esm310-rsr2-rcr2-esr100,exr/ReadingArea_rsl2-rcl25-esl29-rsm2-rcm2-esm310-rsr2-rcr2-esr100.exr,ReadingArea_rsl2-rcl25-esl29-rsm2-rcm2-esm310-rsr2-rcr2-esr100.npz,,,,,0,156,156,400,,,left,green,0.93,601.5627319812775,601.9240419864655,,3,,5,2,lightness,readingArea,realistic,75,2023-03-13_15h05.54.393,tripletExp_regina_11082022,2022.2.4,120.22265663068464,
9,13,6,2,0.444444444444444,1.0,2,0.111111111111111,3.10526315789474,2,0.027777777777778,1.0,ReadingArea_rsl2-rcl44-esl100-rsm2-rcm11-esm310-rsr2-rcr2-esr100,exr/ReadingArea_rsl2-rcl44-esl100-rsm2-rcm11-esm310-rsr2-rcr2-esr100.exr,ReadingArea_rsl2-rcl44-esl100-rsm2-rcm11-esm310-rsr2-rcr2-esr100.npz,,,,,0,157,157,13,,,left,green,1.14,603.6221239566803,603.9783620834351,,3,,5,2,lightness,readingArea,realistic,75,2023-03-13_15h05.54.393,tripletExp_regina_11082022,2022.2.4,120.22265663068464,
11,8,7,2,1.0,1.0,2,0.25,1.0,2,0.111111111111111,1.0,ReadingArea_rsl2-rcl100-esl100-rsm2-rcm25-esm100-rsr2-rcr11-esr100,exr/ReadingArea_rsl2-rcl100-esl100-rsm2-rcm25-esm100-rsr2-rcr11-esr100.exr,ReadingArea_rsl2-rcl100-esl100-rsm2-rcm25-esm100-rsr2-rcr11-esr100.npz,,,,,0,158,158,105,,,right,red,1.36,605.6672389507294,606.0211939811707,,3,,5,2,lightness,readingArea,realistic,75,2023-03-13_15h05.54.393,tripletExp_regina_11082022,2022.2.4,120.22265663068464,
4,10,11,2,0.694444444444444,0.298245614035088,2,0.694444444444444,1.0,2,1.0,1.0,ReadingArea_rsl2-rcl69-esl29-rsm2-rcm69-esm100-rsr2-rcr100-esr100,exr/ReadingArea_rsl2-rcl69-esl29-rsm2-rcm69-esm100-rsr2-rcr100-esr100.exr,ReadingArea_rsl2-rcl69-esl29-rsm2-rcm69-esm100-rsr2-rcr100-esr100.npz,,,,,0,159,159,180,,,right,red,2.34,609.4939460754395,609.8562459945679,,3,,5,2,lightness,readingArea,realistic,75,2023-03-13_15h05.54.393,tripletExp_regina_11082022,2022.2.4,120.22265663068464,
9,3,0,2,0.444444444444444,1.0,2,0.444444444444444,0.298245614035088,2,0.027777777777778,0.298245614035088,ReadingArea_rsl2-rcl44-esl100-rsm2-rcm44-esm29-rsr2-rcr2-esr29,exr/ReadingArea_rsl2-rcl44-esl100-rsm2-rcm44-esm29-rsr2-rcr2-esr29.exr,ReadingArea_rsl2-rcl44-esl100-rsm2-rcm44-esm29-rsr2-rcr2-esr29.npz,,,,,0,160,160,120,,,left,green,0.83,611.5722970962524,611.9334049224854,,3,,5,2,lightness,readingArea,realistic,75,2023-03-13_15h05.54.393,tripletExp_regina_11082022,2022.2.4,120.22265663068464,
5,10,2,2,1.0,0.298245614035088,2,0.694444444444444,1.0,2,0.25,0.298245614035088,ReadingArea_rsl2-rcl100-esl29-rsm2-rcm69-esm100-rsr2-rcr25-esr29,exr/ReadingArea_rsl2-rcl100-esl29-rsm2-rcm69-esm100-rsr2-rcr25-esr29.exr,ReadingArea_rsl2-rcl100-esl29-rsm2-rcm69-esm100-rsr2-rcr25-esr29.npz,,,,,0,161,161,489,,,left,green,1.21,613.6443209648132,614.1128931045532,,3,,5,2,lightness,readingArea,realistic,75,2023-03-13_15h05.54.393,tripletExp_regina_11082022,2022.2.4,120.22265663068464,
1,3,12,2,0.111111111111111,0.298245614035088,2,0.444444444444444,0.298245614035088,2,0.027777777777778,3.10526315789474,ReadingArea_rsl2-rcl11-esl29-rsm2-rcm44-esm29-rsr2-rcr2-esr310,exr/ReadingArea_rsl2-rcl11-esl29-rsm2-rcm44-esm29-rsr2-rcr2-esr310.exr,ReadingArea_rsl2-rcl11-esl29-rsm2-rcm44-esm29-rsr2-rcr2-esr310.npz,,,,,0,162,162,323,,,right,red,1.08,615.8192899227142,616.1900501251221,,3,,5,2,lightness,readingArea,realistic,75,2023-03-13_15h05.54.393,tripletExp_regina_11082022,2022.2.4,120.22265663068464,
7,0,3,2,0.111111111111111,1.0,2,0.027777777777778,0.298245614035088,2,0.444444444444444,0.298245614035088,ReadingArea_rsl2-rcl11-esl100-rsm2-rcm2-esm29-rsr2-rcr44-esr29,exr/ReadingArea_rsl2-rcl11-esl100-rsm2-rcm2-esm29-rsr2-rcr44-esr29.exr,ReadingArea_rsl2-rcl11-esl100-rsm2-rcm2-esm29-rsr2-rcr44-esr29.npz,,,,,0,163,163,237,,,left,green,1.56,617.8962750434875,618.2659859657288,,3,,5,2,lightness,readingArea,realistic,75,2023-03-13_15h05.54.393,tripletExp_regina_11082022,2022.2.4,120.22265663068464,
7,8,3,2,0.111111111111111,1.0,2,0.25,1.0,2,0.444444444444444,0.298245614035088,ReadingArea_rsl2-rcl11-esl100-rsm2-rcm25-esm100-rsr2-rcr44-esr29,exr/ReadingArea_rsl2-rcl11-esl100-rsm2-rcm25-esm100-rsr2-rcr44-esr29.exr,ReadingArea_rsl2-rcl11-esl100-rsm2-rcm25-esm100-rsr2-rcr44-esr29.npz,,,,,0,164,164,459,,,left,green,3.31,621.7492461204529,622.1058690547943,,3,,5,2,lightness,readingArea,realistic,75,2023-03-13_15h05.54.393,tripletExp_regina_11082022,2022.2.4,120.22265663068464,
14,8,9,2,0.25,3.10526315789474,2,0.25,1.0,2,0.444444444444444,1.0,ReadingArea_rsl2-rcl25-esl310-rsm2-rcm25-esm100-rsr2-rcr44-esr100,exr/ReadingArea_rsl2-rcl25-esl310-rsm2-rcm25-esm100-rsr2-rcr44-esr100.exr,ReadingArea_rsl2-rcl25-esl310-rsm2-rcm25-esm100-rsr2-rcr44-esr100.npz,,,,,0,165,165,518,,,right,red,1.56,623.8213920593262,624.1749830245972,,3,,5,2,lightness,readingArea,realistic,75,2023-03-13_15h05.54.393,tripletExp_regina_11082022,2022.2.4,120.22265663068464,
4,2,0,2,0.694444444444444,0.298245614035088,2,0.25,0.298245614035088,2,0.027777777777778,0.298245614035088,ReadingArea_rsl2-rcl69-esl29-rsm2-rcm25-esm29-rsr2-rcr2-esr29,exr/ReadingArea_rsl2-rcl69-esl29-rsm2-rcm25-esm29-rsr2-rcr2-esr29.exr,ReadingArea_rsl2-rcl69-esl29-rsm2-rcm25-esm29-rsr2-rcr2-esr29.npz,,,,,0,166,166,71,,,left,green,0.93,625.8867979049683,626.2435040473938,,3,,5,2,lightness,readingArea,realistic,75,2023-03-13_15h05.54.393,tripletExp_regina_11082022,2022.2.4,120.22265663068464,
10,7,8,2,0.694444444444444,1.0,2,0.111111111111111,1.0,2,0.25,1.0,ReadingArea_rsl2-rcl69-esl100-rsm2-rcm11-esm100-rsr2-rcr25-esr100,exr/ReadingArea_rsl2-rcl69-esl100-rsm2-rcm11-esm100-rsr2-rcr25-esr100.exr,ReadingArea_rsl2-rcl69-esl100-rsm2-rcm11-esm100-rsr2-rcr25-esr100.npz,,,,,0,167,167,57,,,right,red,1.33,627.9435141086578,628.2924599647522,,3,,5,2,lightness,readingArea,realistic,75,2023-03-13_15h05.54.393,tripletExp_regina_11082022,2022.2.4,120.22265663068464,
3,10,4,2,0.444444444444444,0.298245614035088,2,0.694444444444444,1.0,2,0.694444444444444,0.298245614035088,ReadingArea_rsl2-rcl44-esl29-rsm2-rcm69-esm100-rsr2-rcr69-esr29,exr/ReadingArea_rsl2-rcl44-esl29-rsm2-rcm69-esm100-rsr2-rcr69-esr29.exr,ReadingArea_rsl2-rcl44-esl29-rsm2-rcm69-esm100-rsr2-rcr69-esr29.npz,,,,,0,168,168,435,,,right,red,1.28,630.0055129528046,630.356467962265,,3,,5,2,lightness,readingArea,realistic,75,2023-03-13_15h05.54.393,tripletExp_regina_11082022,2022.2.4,120.22265663068464,
4,7,1,2,0.694444444444444,0.298245614035088,2,0.111111111111111,1.0,2,0.111111111111111,0.298245614035088,ReadingArea_rsl2-rcl69-esl29-rsm2-rcm11-esm100-rsr2-rcr11-esr29,exr/ReadingArea_rsl2-rcl69-esl29-rsm2-rcm11-esm100-rsr2-rcr11-esr29.exr,ReadingArea_rsl2-rcl69-esl29-rsm2-rcm11-esm100-rsr2-rcr11-esr29.npz,,,,,0,169,169,33,,,left,green,1.2,632.0658628940582,632.4324049949646,,3,,5,2,lightness,readingArea,realistic,75,2023-03-13_15h05.54.393,tripletExp_regina_11082022,2022.2.4,120.22265663068464,
6,12,8,2,0.027777777777778,1.0,2,0.027777777777778,3.10526315789474,2,0.25,1.0,ReadingArea_rsl2-rcl2-esl100-rsm2-rcm2-esm310-rsr2-rcr25-esr100,exr/ReadingArea_rsl2-rcl2-esl100-rsm2-rcm2-esm310-rsr2-rcr25-esr100.exr,ReadingArea_rsl2-rcl2-esl100-rsm2-rcm2-esm310-rsr2-rcr25-esr100.npz,,,,,0,170,170,186,,,left,green,1.06,634.1331300735474,634.4965670108795,,3,,5,2,lightness,readingArea,realistic,75,2023-03-13_15h05.54.393,tripletExp_regina_11082022,2022.2.4,120.22265663068464,
12,11,13,2,0.027777777777778,3.10526315789474,2,1.0,1.0,2,0.111111111111111,3.10526315789474,ReadingArea_rsl2-rcl2-esl310-rsm2-rcm100-esm100-rsr2-rcr11-esr310,exr/ReadingArea_rsl2-rcl2-esl310-rsm2-rcm100-esm100-rsr2-rcr11-esr310.exr,ReadingArea_rsl2-rcl2-esl310-rsm2-rcm100-esm100-rsr2-rcr11-esr310.npz,,,,,0,171,171,151,,,right,red,2.12,637.9450778961182,638.302619934082,,3,,5,2,lightness,readingArea,realistic,75,2023-03-13_15h05.54.393,tripletExp_regina_11082022,2022.2.4,120.22265663068464,
1,11,14,2,0.111111111111111,0.298245614035088,2,1.0,1.0,2,0.25,3.10526315789474,ReadingArea_rsl2-rcl11-esl29-rsm2-rcm100-esm100-rsr2-rcr25-esr310,exr/ReadingArea_rsl2-rcl11-esl29-rsm2-rcm100-esm100-rsr2-rcr25-esr310.exr,ReadingArea_rsl2-rcl11-esl29-rsm2-rcm100-esm100-rsr2-rcr25-esr310.npz,,,,,0,172,172,399,,,right,red,1.08,639.9914100170135,640.357824087143,,3,,5,2,lightness,readingArea,realistic,75,2023-03-13_15h05.54.393,tripletExp_regina_11082022,2022.2.4,120.22265663068464,
9,13,0,2,0.444444444444444,1.0,2,0.111111111111111,3.10526315789474,2,0.027777777777778,0.298245614035088,ReadingArea_rsl2-rcl44-esl100-rsm2-rcm11-esm310-rsr2-rcr2-esr29,exr/ReadingArea_rsl2-rcl44-esl100-rsm2-rcm11-esm310-rsr2-rcr2-esr29.exr,ReadingArea_rsl2-rcl44-esl100-rsm2-rcm11-esm310-rsr2-rcr2-esr29.npz,,,,,0,173,173,205,,,left,green,1.01,642.0467269420624,,,3,,5,2,lightness,readingArea,realistic,75,2023-03-13_15h05.54.393,tripletExp_regina_11082022,2022.2.4,120.22265663068464,
5,2,10,2,1.0,0.298245614035088,2,0.25,0.298245614035088,2,0.694444444444444,1.0,ReadingArea_rsl2-rcl100-esl29-rsm2-rcm25-esm29-rsr2-rcr69-esr100,exr/ReadingArea_rsl2-rcl100-esl29-rsm2-rcm25-esm29-rsr2-rcr69-esr100.exr,ReadingArea_rsl2-rcl100-esl29-rsm2-rcm25-esm29-rsr2-rcr69-esr100.npz,,,,,0,174,174,595,,,left,green,1.01,644.1324698925018,644.5316169261932,,3,,5,2,lightness,readingArea,realistic,75,2023-03-13_15h05.54.393,tripletExp_regina_11082022,2022.2.4,120.22265663068464,
0,10,12,2,0.027777777777778,0.298245614035088,2,0.694444444444444,1.0,2,0.027777777777778,3.10526315789474,ReadingArea_rsl2-rcl2-esl29-rsm2-rcm69-esm100-rsr2-rcr2-esr310,exr/ReadingArea_rsl2-rcl2-esl29-rsm2-rcm69-esm100-rsr2-rcr2-esr310.exr,ReadingArea_rsl2-rcl2-esl29-rsm2-rcm69-esm100-rsr2-rcr2-esr310.npz,,,,,0,175,175,531,,,right,red,1.25,646.2427980899811,646.6066241264343,,3,,5,2,lightness,readingArea,realistic,75,2023-03-13_15h05.54.393,tripletExp_regina_11082022,2022.2.4,120.22265663068464,
2,6,0,2,0.25,0.298245614035088,2,0.027777777777778,1.0,2,0.027777777777778,0.298245614035088,ReadingArea_rsl2-rcl25-esl29-rsm2-rcm2-esm100-rsr2-rcr2-esr29,exr/ReadingArea_rsl2-rcl25-esl29-rsm2-rcm2-esm100-rsr2-rcr2-esr29.exr,ReadingArea_rsl2-rcl25-esl29-rsm2-rcm2-esm100-rsr2-rcr2-esr29.npz,,,,,0,176,176,525,,,left,green,2.48,650.0807700157166,650.4405210018158,,3,,5,2,lightness,readingArea,realistic,75,2023-03-13_15h05.54.393,tripletExp_regina_11082022,2022.2.4,120.22265663068464,
7,4,2,2,0.111111111111111,1.0,2,0.694444444444444,0.298245614035088,2,0.25,0.298245614035088,ReadingArea_rsl2-rcl11-esl100-rsm2-rcm69-esm29-rsr2-rcr25-esr29,exr/ReadingArea_rsl2-rcl11-esl100-rsm2-rcm69-esm29-rsr2-rcr25-esr29.exr,ReadingArea_rsl2-rcl11-esl100-rsm2-rcm69-esm29-rsr2-rcr25-esr29.npz,,,,,0,177,177,146,,,left,green,2.9,653.9090609550476,654.280678987503,,3,,5,2,lightness,readingArea,realistic,75,2023-03-13_15h05.54.393,tripletExp_regina_11082022,2022.2.4,120.22265663068464,
12,4,9,2,0.027777777777778,3.10526315789474,2,0.694444444444444,0.298245614035088,2,0.444444444444444,1.0,ReadingArea_rsl2-rcl2-esl310-rsm2-rcm69-esm29-rsr2-rcr44-esr100,exr/ReadingArea_rsl2-rcl2-esl310-rsm2-rcm69-esm29-rsr2-rcr44-esr100.exr,ReadingArea_rsl2-rcl2-esl310-rsm2-rcm69-esm29-rsr2-rcr44-esr100.npz,,,,,0,178,178,380,,,right,red,1.25,655.9998009204865,656.3745379447937,,3,,5,2,lightness,readingArea,realistic,75,2023-03-13_15h05.54.393,tripletExp_regina_11082022,2022.2.4,120.22265663068464,
2,14,9,2,0.25,0.298245614035088,2,0.25,3.10526315789474,2,0.444444444444444,1.0,ReadingArea_rsl2-rcl25-esl29-rsm2-rcm25-esm310-rsr2-rcr44-esr100,exr/ReadingArea_rsl2-rcl25-esl29-rsm2-rcm25-esm310-rsr2-rcr44-esr100.exr,ReadingArea_rsl2-rcl25-esl29-rsm2-rcm25-esm310-rsr2-rcr44-esr100.npz,,,,,0,179,179,51,,,right,red,1.05,658.087012052536,658.4674649238586,,3,,5,2,lightness,readingArea,realistic,75,2023-03-13_15h05.54.393,tripletExp_regina_11082022,2022.2.4,120.22265663068464,
9,11,2,2,0.444444444444444,1.0,2,1.0,1.0,2,0.25,0.298245614035088,ReadingArea_rsl2-rcl44-esl100-rsm2-rcm100-esm100-rsr2-rcr25-esr29,exr/ReadingArea_rsl2-rcl44-esl100-rsm2-rcm100-esm100-rsr2-rcr25-esr29.exr,ReadingArea_rsl2-rcl44-esl100-rsm2-rcm100-esm100-rsr2-rcr25-esr29.npz,,,,,0,180,180,329,,,left,green,0.77,660.1643691062927,660.5087180137634,,3,,5,2,lightness,readingArea,realistic,75,2023-03-13_15h05.54.393,tripletExp_regina_11082022,2022.2.4,120.22265663068464,
14,3,6,2,0.25,3.10526315789474,2,0.444444444444444,0.298245614035088,2,0.027777777777778,1.0,ReadingArea_rsl2-rcl25-esl310-rsm2-rcm44-esm29-rsr2-rcr2-esr100,exr/ReadingArea_rsl2-rcl25-esl310-rsm2-rcm44-esm29-rsr2-rcr2-esr100.exr,ReadingArea_rsl2-rcl25-esl310-rsm2-rcm44-esm29-rsr2-rcr2-esr100.npz,,,,,0,181,181,244,,,left,green,1.13,662.226450920105,662.5979990959167,,3,,5,2,lightness,readingArea,realistic,75,2023-03-13_15h05.54.393,tripletExp_regina_11082022,2022.2.4,120.22265663068464,
5,4,10,2,1.0,0.298245614035088,2,0.694444444444444,0.298245614035088,2,0.694444444444444,1.0,ReadingArea_rsl2-rcl100-esl29-rsm2-rcm69-esm29-rsr2-rcr69-esr100,exr/ReadingArea_rsl2-rcl100-esl29-rsm2-rcm69-esm29-rsr2-rcr69-esr100.exr,ReadingArea_rsl2-rcl100-esl29-rsm2-rcm69-esm29-rsr2-rcr69-esr100.npz,,,,,0,182,182,536,,,left,green,0.82,664.2928249835968,664.6581649780273,,3,,5,2,lightness,readingArea,realistic,75,2023-03-13_15h05.54.393,tripletExp_regina_11082022,2022.2.4,120.22265663068464,
14,13,2,2,0.25,3.10526315789474,2,0.111111111111111,3.10526315789474,2,0.25,0.298245614035088,ReadingArea_rsl2-rcl25-esl310-rsm2-rcm11-esm310-rsr2-rcr25-esr29,exr/ReadingArea_rsl2-rcl25-esl310-rsm2-rcm11-esm310-rsr2-rcr25-esr29.exr,ReadingArea_rsl2-rcl25-esl310-rsm2-rcm11-esm310-rsr2-rcr25-esr29.npz,,,,,0,183,183,377,,,left,green,1.0,666.3528161048889,666.7236320972443,,3,,5,2,lightness,readingArea,realistic,75,2023-03-13_15h05.54.393,tripletExp_regina_11082022,2022.2.4,120.22265663068464,
13,6,2,2,0.111111111111111,3.10526315789474,2,0.027777777777778,1.0,2,0.25,0.298245614035088,ReadingArea_rsl2-rcl11-esl310-rsm2-rcm2-esm100-rsr2-rcr25-esr29,exr/ReadingArea_rsl2-rcl11-esl310-rsm2-rcm2-esm100-rsr2-rcr25-esr29.exr,ReadingArea_rsl2-rcl11-esl310-rsm2-rcm2-esm100-rsr2-rcr25-esr29.npz,,,,,0,184,184,115,,,right,red,1.25,668.4116020202637,668.8281619548798,,3,,5,2,lightness,readingArea,realistic,75,2023-03-13_15h05.54.393,tripletExp_regina_11082022,2022.2.4,120.22265663068464,
5,2,14,2,1.0,0.298245614035088,2,0.25,0.298245614035088,2,0.25,3.10526315789474,ReadingArea_rsl2-rcl100-esl29-rsm2-rcm25-esm29-rsr2-rcr25-esr310,exr/ReadingArea_rsl2-rcl100-esl29-rsm2-rcm25-esm29-rsr2-rcr25-esr310.exr,ReadingArea_rsl2-rcl100-esl29-rsm2-rcm25-esm29-rsr2-rcr25-esr310.npz,,,,,0,185,185,462,,,left,green,1.0,670.5227189064026,670.8870029449463,,3,,5,2,lightness,readingArea,realistic,75,2023-03-13_15h05.54.393,tripletExp_regina_11082022,2022.2.4,120.22265663068464,
7,2,6,2,0.111111111111111,1.0,2,0.25,0.298245614035088,2,0.027777777777778,1.0,ReadingArea_rsl2-rcl11-esl100-rsm2-rcm25-esm29-rsr2-rcr2-esr100,exr/ReadingArea_rsl2-rcl11-esl100-rsm2-rcm25-esm29-rsr2-rcr2-esr100.exr,ReadingArea_rsl2-rcl11-esl100-rsm2-rcm25-esm29-rsr2-rcr2-esr100.npz,,,,,0,186,186,506,,,left,green,1.02,672.5989670753479,672.9644770622253,,3,,5,2,lightness,readingArea,realistic,75,2023-03-13_15h05.54.393,tripletExp_regina_11082022,2022.2.4,120.22265663068464,
7,12,0,2,0.111111111111111,1.0,2,0.027777777777778,3.10526315789474,2,0.027777777777778,0.298245614035088,ReadingArea_rsl2-rcl11-esl100-rsm2-rcm2-esm310-rsr2-rcr2-esr29,exr/ReadingArea_rsl2-rcl11-esl100-rsm2-rcm2-esm310-rsr2-rcr2-esr29.exr,ReadingArea_rsl2-rcl11-esl100-rsm2-rcm2-esm310-rsr2-rcr2-esr29.npz,,,,,0,187,187,425,,,left,green,0.92,674.6934659481049,675.0580699443817,,3,,5,2,lightness,readingArea,realistic,75,2023-03-13_15h05.54.393,tripletExp_regina_11082022,2022.2.4,120.22265663068464,
13,6,8,2,0.111111111111111,3.10526315789474,2,0.027777777777778,1.0,2,0.25,1.0,ReadingArea_rsl2-rcl11-esl310-rsm2-rcm2-esm100-rsr2-rcr25-esr100,exr/ReadingArea_rsl2-rcl11-esl310-rsm2-rcm2-esm100-rsr2-rcr25-esr100.exr,ReadingArea_rsl2-rcl11-esl310-rsm2-rcm2-esm100-rsr2-rcr25-esr100.npz,,,,,0,188,188,340,,,left,green,1.41,676.7809190750122,677.1448678970337,,3,,5,2,lightness,readingArea,realistic,75,2023-03-13_15h05.54.393,tripletExp_regina_11082022,2022.2.4,120.22265663068464,
13,3,14,2,0.111111111111111,3.10526315789474,2,0.444444444444444,0.298245614035088,2,0.25,3.10526315789474,ReadingArea_rsl2-rcl11-esl310-rsm2-rcm44-esm29-rsr2-rcr25-esr310,exr/ReadingArea_rsl2-rcl11-esl310-rsm2-rcm44-esm29-rsr2-rcr25-esr310.exr,ReadingArea_rsl2-rcl11-esl310-rsm2-rcm44-esm29-rsr2-rcr25-esr310.npz,,,,,0,189,189,38,,,left,green,0.99,678.860239982605,679.2235040664673,,3,,5,2,lightness,readingArea,realistic,75,2023-03-13_15h05.54.393,tripletExp_regina_11082022,2022.2.4,120.22265663068464,
3,6,13,2,0.444444444444444,0.298245614035088,2,0.027777777777778,1.0,2,0.111111111111111,3.10526315789474,ReadingArea_rsl2-rcl44-esl29-rsm2-rcm2-esm100-rsr2-rcr11-esr310,exr/ReadingArea_rsl2-rcl44-esl29-rsm2-rcm2-esm100-rsr2-rcr11-esr310.exr,ReadingArea_rsl2-rcl44-esl29-rsm2-rcm2-esm100-rsr2-rcr11-esr310.npz,,,,,0,190,190,449,,,left,green,0.95,680.923898935318,681.2716839313507,,3,,5,2,lightness,readingArea,realistic,75,2023-03-13_15h05.54.393,tripletExp_regina_11082022,2022.2.4,120.22265663068464,
1,9,7,2,0.111111111111111,0.298245614035088,2,0.444444444444444,1.0,2,0.111111111111111,1.0,ReadingArea_rsl2-rcl11-esl29-rsm2-rcm44-esm100-rsr2-rcr11-esr100,exr/ReadingArea_rsl2-rcl11-esl29-rsm2-rcm44-esm100-rsr2-rcr11-esr100.exr,ReadingArea_rsl2-rcl11-esl29-rsm2-rcm44-esm100-rsr2-rcr11-esr100.npz,,,,,0,191,191,397,,,right,red,1.51,682.9820780754089,683.3329830169678,,3,,5,2,lightness,readingArea,realistic,75,2023-03-13_15h05.54.393,tripletExp_regina_11082022,2022.2.4,120.22265663068464,
4,7,5,2,0.694444444444444,0.298245614035088,2,0.111111111111111,1.0,2,1.0,0.298245614035088,ReadingArea_rsl2-rcl69-esl29-rsm2-rcm11-esm100-rsr2-rcr100-esr29,exr/ReadingArea_rsl2-rcl69-esl29-rsm2-rcm11-esm100-rsr2-rcr100-esr29.exr,ReadingArea_rsl2-rcl69-esl29-rsm2-rcm11-esm100-rsr2-rcr100-esr29.npz,,,,,0,192,192,195,,,left,green,1.07,685.0425601005554,685.4048120975494,,3,,5,2,lightness,readingArea,realistic,75,2023-03-13_15h05.54.393,tripletExp_regina_11082022,2022.2.4,120.22265663068464,
3,13,6,2,0.444444444444444,0.298245614035088,2,0.111111111111111,3.10526315789474,2,0.027777777777778,1.0,ReadingArea_rsl2-rcl44-esl29-rsm2-rcm11-esm310-rsr2-rcr2-esr100,exr/ReadingArea_rsl2-rcl44-esl29-rsm2-rcm11-esm310-rsr2-rcr2-esr100.exr,ReadingArea_rsl2-rcl44-esl29-rsm2-rcm11-esm310-rsr2-rcr2-esr100.npz,,,,,0,193,193,199,,,left,green,1.03,687.1176550388336,687.4828400611877,,3,,5,2,lightness,readingArea,realistic,75,2023-03-13_15h05.54.393,tripletExp_regina_11082022,2022.2.4,120.22265663068464,
1,0,4,2,0.111111111111111,0.298245614035088,2,0.027777777777778,0.298245614035088,2,0.694444444444444,0.298245614035088,ReadingArea_rsl2-rcl11-esl29-rsm2-rcm2-esm29-rsr2-rcr69-esr29,exr/ReadingArea_rsl2-rcl11-esl29-rsm2-rcm2-esm29-rsr2-rcr69-esr29.exr,ReadingArea_rsl2-rcl11-esl29-rsm2-rcm2-esm29-rsr2-rcr69-esr29.npz,,,,,0,194,194,494,,,left,green,0.79,689.1925029754639,689.5497651100159,,3,,5,2,lightness,readingArea,realistic,75,2023-03-13_15h05.54.393,tripletExp_regina_11082022,2022.2.4,120.22265663068464,
4,0,1,2,0.694444444444444,0.298245614035088,2,0.027777777777778,0.298245614035088,2,0.111111111111111,0.298245614035088,ReadingArea_rsl2-rcl69-esl29-rsm2-rcm2-esm29-rsr2-rcr11-esr29,exr/ReadingArea_rsl2-rcl69-esl29-rsm2-rcm2-esm29-rsr2-rcr11-esr29.exr,ReadingArea_rsl2-rcl69-esl29-rsm2-rcm2-esm29-rsr2-rcr11-esr29.npz,,,,,0,195,195,173,,,right,red,0.81,691.2698729038239,691.6378140449524,,3,,5,2,lightness,readingArea,realistic,75,2023-03-13_15h05.54.393,tripletExp_regina_11082022,2022.2.4,120.22265663068464,
8,12,3,2,0.25,1.0,2,0.027777777777778,3.10526315789474,2,0.444444444444444,0.298245614035088,ReadingArea_rsl2-rcl25-esl100-rsm2-rcm2-esm310-rsr2-rcr44-esr29,exr/ReadingArea_rsl2-rcl25-esl100-rsm2-rcm2-esm310-rsr2-rcr44-esr29.exr,ReadingArea_rsl2-rcl25-esl100-rsm2-rcm2-esm310-rsr2-rcr44-esr29.npz,,,,,0,196,196,6,,,right,red,1.15,693.3505859375,693.6939480304718,,3,,5,2,lightness,readingArea,realistic,75,2023-03-13_15h05.54.393,tripletExp_regina_11082022,2022.2.4,120.22265663068464,
13,0,10,2,0.111111111111111,3.10526315789474,2,0.027777777777778,0.298245614035088,2,0.694444444444444,1.0,ReadingArea_rsl2-rcl11-esl310-rsm2-rcm2-esm29-rsr2-rcr69-esr100,exr/ReadingArea_rsl2-rcl11-esl310-rsm2-rcm2-esm29-rsr2-rcr69-esr100.exr,ReadingArea_rsl2-rcl11-esl310-rsm2-rcm2-esm29-rsr2-rcr69-esr100.npz,,,,,0,197,197,505,,,left,green,1.12,695.4169099330902,695.7865300178528,,3,,5,2,lightness,readingArea,realistic,75,2023-03-13_15h05.54.393,tripletExp_regina_11082022,2022.2.4,120.22265663068464,
12,9,2,2,0.027777777777778,3.10526315789474,2,0.444444444444444,1.0,2,0.25,0.298245614035088,ReadingArea_rsl2-rcl2-esl310-rsm2-rcm44-esm100-rsr2-rcr25-esr29,exr/ReadingArea_rsl2-rcl2-esl310-rsm2-rcm44-esm100-rsr2-rcr25-esr29.exr,ReadingArea_rsl2-rcl2-esl310-rsm2-rcm44-esm100-rsr2-rcr25-esr29.npz,,,,,0,198,198,226,,,right,red,1.13,697.5017828941345,697.874186038971,,3,,5,2,lightness,readingArea,realistic,75,2023-03-13_15h05.54.393,tripletExp_regina_11082022,2022.2.4,120.22265663068464,
0,12,7,2,0.027777777777778,0.298245614035088,2,0.027777777777778,3.10526315789474,2,0.111111111111111,1.0,ReadingArea_rsl2-rcl2-esl29-rsm2-rcm2-esm310-rsr2-rcr11-esr100,exr/ReadingArea_rsl2-rcl2-esl29-rsm2-rcm2-esm310-rsr2-rcr11-esr100.exr,ReadingArea_rsl2-rcl2-esl29-rsm2-rcm2-esm310-rsr2-rcr11-esr100.npz,,,,,0,199,199,481,,,right,red,0.96,699.5826411247253,699.9473021030426,,3,,5,2,lightness,readingArea,realistic,75,2023-03-13_15h05.54.393,tripletExp_regina_11082022,2022.2.4,120.22265663068464,
6,11,7,2,0.027777777777778,1.0,2,1.0,1.0,2,0.111111111111111,1.0,ReadingArea_rsl2-rcl2-esl100-rsm2-rcm100-esm100-rsr2-rcr11-esr100,exr/ReadingArea_rsl2-rcl2-esl100-rsm2-rcm100-esm100-rsr2-rcr11-esr100.exr,ReadingArea_rsl2-rcl2-esl100-rsm2-rcm100-esm100-rsr2-rcr11-esr100.npz,,,,,0,200,200,571,,,right,red,0.98,701.6449959278107,701.991984128952,,3,,5,2,lightness,readingArea,realistic,75,2023-03-13_15h05.54.393,tripletExp_regina_11082022,2022.2.4,120.22265663068464,
8,12,13,2,0.25,1.0,2,0.027777777777778,3.10526315789474,2,0.111111111111111,3.10526315789474,ReadingArea_rsl2-rcl25-esl100-rsm2-rcm2-esm310-rsr2-rcr11-esr310,exr/ReadingArea_rsl2-rcl25-esl100-rsm2-rcm2-esm310-rsr2-rcr11-esr310.exr,ReadingArea_rsl2-rcl25-esl100-rsm2-rcm2-esm310-rsr2-rcr11-esr310.npz,,,,,0,201,201,275,,,right,red,1.34,703.6942279338837,704.0424180030823,,3,,5,2,lightness,readingArea,realistic,75,2023-03-13_15h05.54.393,tripletExp_regina_11082022,2022.2.4,120.22265663068464,
1,6,11,2,0.111111111111111,0.298245614035088,2,0.027777777777778,1.0,2,1.0,1.0,ReadingArea_rsl2-rcl11-esl29-rsm2-rcm2-esm100-rsr2-rcr100-esr100,exr/ReadingArea_rsl2-rcl11-esl29-rsm2-rcm2-esm100-rsr2-rcr100-esr100.exr,ReadingArea_rsl2-rcl11-esl29-rsm2-rcm2-esm100-rsr2-rcr100-esr100.npz,,,,,0,202,202,39,,,left,green,0.72,705.7313179969788,706.0959620475769,,3,,5,2,lightness,readingArea,realistic,75,2023-03-13_15h05.54.393,tripletExp_regina_11082022,2022.2.4,120.22265663068464,
