index_left,index_middle,index_right,reflectance_surround_left,reflectance_center_left,emission_spot_left,reflectance_surround_middle,reflectance_center_middle,emission_spot_middle,reflectance_surround_right,reflectance_center_right,emission_spot_right,ImageName,ImageExr,ImageNpy,trials_2.thisRepN,trials_2.thisTrialN,trials_2.thisN,trials_2.thisIndex,trials.thisRepN,trials.thisTrialN,trials.thisN,trials.thisIndex,sound_1.started,BB_Trial.resp,BB_Trial.color,BB_Trial.rt,text.started,text.stopped,sound_1.stopped,block,participant,session,L/B,scene,condition,nTrialsPerBlock,date,expName,psychopyVersion,frameRate,Unnamed: 41
6,3,1,0,0.027777777777778,1.0,0,0.444444444444444,0.298245614035088,0,0.111111111111111,0.298245614035088,ReadingArea_rsl0-rcl2-esl100-rsm0-rcm44-esm29-rsr0-rcr11-esr29,exr/ReadingArea_rsl0-rcl2-esl100-rsm0-rcm44-esm29-rsr0-rcr11-esr29.exr,ReadingArea_rsl0-rcl2-esl100-rsm0-rcm44-esm29-rsr0-rcr11-esr29.npz,,,,,0,0,0,430,593.8747147798538,right,red,1.18,624.2281160354614,624.7020819187164,540.2063610553741,1,6,5,lightness,readingArea,realistic,75,2023-03-23_16h21.39.166,tripletExp_regina_11082022,2022.2.4,120.01796991470012,
2,9,8,0,0.25,0.298245614035088,0,0.444444444444444,1.0,0,0.25,1.0,ReadingArea_rsl0-rcl25-esl29-rsm0-rcm44-esm100-rsr0-rcr25-esr100,exr/ReadingArea_rsl0-rcl25-esl29-rsm0-rcm44-esm100-rsr0-rcr25-esr100.exr,ReadingArea_rsl0-rcl25-esl29-rsm0-rcm44-esm100-rsr0-rcr25-esr100.npz,,,,,0,1,1,407,,right,red,1.39,626.4010429382324,626.8478689193726,,1,6,5,lightness,readingArea,realistic,75,2023-03-23_16h21.39.166,tripletExp_regina_11082022,2022.2.4,120.01796991470012,
10,3,1,0,0.694444444444444,1.0,0,0.444444444444444,0.298245614035088,0,0.111111111111111,0.298245614035088,ReadingArea_rsl0-rcl69-esl100-rsm0-rcm44-esm29-rsr0-rcr11-esr29,exr/ReadingArea_rsl0-rcl69-esl100-rsm0-rcm44-esm29-rsr0-rcr11-esr29.exr,ReadingArea_rsl0-rcl69-esl100-rsm0-rcm44-esm29-rsr0-rcr11-esr29.npz,,,,,0,2,2,420,,right,red,2.64,630.3324708938599,630.7868928909302,,1,6,5,lightness,readingArea,realistic,75,2023-03-23_16h21.39.166,tripletExp_regina_11082022,2022.2.4,120.01796991470012,
3,13,12,0,0.444444444444444,0.298245614035088,0,0.111111111111111,3.10526315789474,0,0.027777777777778,3.10526315789474,ReadingArea_rsl0-rcl44-esl29-rsm0-rcm11-esm310-rsr0-rcr2-esr310,exr/ReadingArea_rsl0-rcl44-esl29-rsm0-rcm11-esm310-rsr0-rcr2-esr310.exr,ReadingArea_rsl0-rcl44-esl29-rsm0-rcm11-esm310-rsr0-rcr2-esr310.npz,,,,,0,3,3,34,,left,green,2.66,634.2586929798126,634.7034969329834,,1,6,5,lightness,readingArea,realistic,75,2023-03-23_16h21.39.166,tripletExp_regina_11082022,2022.2.4,120.01796991470012,
1,7,8,0,0.111111111111111,0.298245614035088,0,0.111111111111111,1.0,0,0.25,1.0,ReadingArea_rsl0-rcl11-esl29-rsm0-rcm11-esm100-rsr0-rcr25-esr100,exr/ReadingArea_rsl0-rcl11-esl29-rsm0-rcm11-esm100-rsr0-rcr25-esr100.exr,ReadingArea_rsl0-rcl11-esl29-rsm0-rcm11-esm100-rsr0-rcr25-esr100.npz,,,,,0,4,4,260,,left,green,2.86,638.1910090446472,638.6350688934326,,1,6,5,lightness,readingArea,realistic,75,2023-03-23_16h21.39.166,tripletExp_regina_11082022,2022.2.4,120.01796991470012,
4,2,5,0,0.694444444444444,0.298245614035088,0,0.25,0.298245614035088,0,1.0,0.298245614035088,ReadingArea_rsl0-rcl69-esl29-rsm0-rcm25-esm29-rsr0-rcr100-esr29,exr/ReadingArea_rsl0-rcl69-esl29-rsm0-rcm25-esm29-rsr0-rcr100-esr29.exr,ReadingArea_rsl0-rcl69-esl29-rsm0-rcm25-esm29-rsr0-rcr100-esr29.npz,,,,,0,5,5,101,,left,green,1.88,642.0952179431915,642.5425040721893,,1,6,5,lightness,readingArea,realistic,75,2023-03-23_16h21.39.166,tripletExp_regina_11082022,2022.2.4,120.01796991470012,
12,7,9,0,0.027777777777778,3.10526315789474,0,0.111111111111111,1.0,0,0.444444444444444,1.0,ReadingArea_rsl0-rcl2-esl310-rsm0-rcm11-esm100-rsr0-rcr44-esr100,exr/ReadingArea_rsl0-rcl2-esl310-rsm0-rcm11-esm100-rsr0-rcr44-esr100.exr,ReadingArea_rsl0-rcl2-esl310-rsm0-rcm11-esm100-rsr0-rcr44-esr100.npz,,,,,0,6,6,124,,left,green,1.26,644.2379539012909,644.8658440113068,,1,6,5,lightness,readingArea,realistic,75,2023-03-23_16h21.39.166,tripletExp_regina_11082022,2022.2.4,120.01796991470012,
4,8,7,0,0.694444444444444,0.298245614035088,0,0.25,1.0,0,0.111111111111111,1.0,ReadingArea_rsl0-rcl69-esl29-rsm0-rcm25-esm100-rsr0-rcr11-esr100,exr/ReadingArea_rsl0-rcl69-esl29-rsm0-rcm25-esm100-rsr0-rcr11-esr100.exr,ReadingArea_rsl0-rcl69-esl29-rsm0-rcm25-esm100-rsr0-rcr11-esr100.npz,,,,,0,7,7,461,,left,green,2.8,648.326917886734,648.7668218612671,,1,6,5,lightness,readingArea,realistic,75,2023-03-23_16h21.39.166,tripletExp_regina_11082022,2022.2.4,120.01796991470012,
14,8,1,0,0.25,3.10526315789474,0,0.25,1.0,0,0.111111111111111,0.298245614035088,ReadingArea_rsl0-rcl25-esl310-rsm0-rcm25-esm100-rsr0-rcr11-esr29,exr/ReadingArea_rsl0-rcl25-esl310-rsm0-rcm25-esm100-rsr0-rcr11-esr29.exr,ReadingArea_rsl0-rcl25-esl310-rsm0-rcm25-esm100-rsr0-rcr11-esr29.npz,,,,,0,8,8,141,,right,red,2.44,652.258024930954,652.6978678703308,,1,6,5,lightness,readingArea,realistic,75,2023-03-23_16h21.39.166,tripletExp_regina_11082022,2022.2.4,120.01796991470012,
8,12,4,0,0.25,1.0,0,0.027777777777778,3.10526315789474,0,0.694444444444444,0.298245614035088,ReadingArea_rsl0-rcl25-esl100-rsm0-rcm2-esm310-rsr0-rcr69-esr29,exr/ReadingArea_rsl0-rcl25-esl100-rsm0-rcm2-esm310-rsr0-rcr69-esr29.exr,ReadingArea_rsl0-rcl25-esl100-rsm0-rcm2-esm310-rsr0-rcr69-esr29.npz,,,,,0,9,9,30,,left,green,2.76,656.171422958374,656.619411945343,,1,6,5,lightness,readingArea,realistic,75,2023-03-23_16h21.39.166,tripletExp_regina_11082022,2022.2.4,120.01796991470012,
4,8,3,0,0.694444444444444,0.298245614035088,0,0.25,1.0,0,0.444444444444444,0.298245614035088,ReadingArea_rsl0-rcl69-esl29-rsm0-rcm25-esm100-rsr0-rcr44-esr29,exr/ReadingArea_rsl0-rcl69-esl29-rsm0-rcm25-esm100-rsr0-rcr44-esr29.exr,ReadingArea_rsl0-rcl69-esl29-rsm0-rcm25-esm100-rsr0-rcr44-esr29.npz,,,,,0,10,10,292,,left,green,2.89,660.0751979351044,660.6024360656738,,1,6,5,lightness,readingArea,realistic,75,2023-03-23_16h21.39.166,tripletExp_regina_11082022,2022.2.4,120.01796991470012,
5,3,6,0,1.0,0.298245614035088,0,0.444444444444444,0.298245614035088,0,0.027777777777778,1.0,ReadingArea_rsl0-rcl100-esl29-rsm0-rcm44-esm29-rsr0-rcr2-esr100,exr/ReadingArea_rsl0-rcl100-esl29-rsm0-rcm44-esm29-rsr0-rcr2-esr100.exr,ReadingArea_rsl0-rcl100-esl29-rsm0-rcm44-esm29-rsr0-rcr2-esr100.npz,,,,,0,11,11,316,,left,green,1.53,662.2993669509888,662.7428569793701,,1,6,5,lightness,readingArea,realistic,75,2023-03-23_16h21.39.166,tripletExp_regina_11082022,2022.2.4,120.01796991470012,
6,7,3,0,0.027777777777778,1.0,0,0.111111111111111,1.0,0,0.444444444444444,0.298245614035088,ReadingArea_rsl0-rcl2-esl100-rsm0-rcm11-esm100-rsr0-rcr44-esr29,exr/ReadingArea_rsl0-rcl2-esl100-rsm0-rcm11-esm100-rsr0-rcr44-esr29.exr,ReadingArea_rsl0-rcl2-esl100-rsm0-rcm11-esm100-rsr0-rcr44-esr29.npz,,,,,0,12,12,47,,right,red,1.55,664.4651110172272,664.874587059021,,1,6,5,lightness,readingArea,realistic,75,2023-03-23_16h21.39.166,tripletExp_regina_11082022,2022.2.4,120.01796991470012,
5,4,12,0,1.0,0.298245614035088,0,0.694444444444444,0.298245614035088,0,0.027777777777778,3.10526315789474,ReadingArea_rsl0-rcl100-esl29-rsm0-rcm69-esm29-rsr0-rcr2-esr310,exr/ReadingArea_rsl0-rcl100-esl29-rsm0-rcm69-esm29-rsr0-rcr2-esr310.exr,ReadingArea_rsl0-rcl100-esl29-rsm0-rcm69-esm29-rsr0-rcr2-esr310.npz,,,,,0,13,13,82,,left,green,2.66,668.3560140132904,668.8012890815735,,1,6,5,lightness,readingArea,realistic,75,2023-03-23_16h21.39.166,tripletExp_regina_11082022,2022.2.4,120.01796991470012,
13,14,7,0,0.111111111111111,3.10526315789474,0,0.25,3.10526315789474,0,0.111111111111111,1.0,ReadingArea_rsl0-rcl11-esl310-rsm0-rcm25-esm310-rsr0-rcr11-esr100,exr/ReadingArea_rsl0-rcl11-esl310-rsm0-rcm25-esm310-rsr0-rcr11-esr100.exr,ReadingArea_rsl0-rcl11-esl310-rsm0-rcm25-esm310-rsr0-rcr11-esr100.npz,,,,,0,14,14,324,,left,green,2.54,672.2863519191742,672.7241489887238,,1,6,5,lightness,readingArea,realistic,75,2023-03-23_16h21.39.166,tripletExp_regina_11082022,2022.2.4,120.01796991470012,
0,13,12,0,0.027777777777778,0.298245614035088,0,0.111111111111111,3.10526315789474,0,0.027777777777778,3.10526315789474,ReadingArea_rsl0-rcl2-esl29-rsm0-rcm11-esm310-rsr0-rcr2-esr310,exr/ReadingArea_rsl0-rcl2-esl29-rsm0-rcm11-esm310-rsr0-rcr2-esr310.exr,ReadingArea_rsl0-rcl2-esl29-rsm0-rcm11-esm310-rsr0-rcr2-esr310.npz,,,,,0,15,15,501,,right,red,1.0,674.4149599075317,674.8595509529114,,1,6,5,lightness,readingArea,realistic,75,2023-03-23_16h21.39.166,tripletExp_regina_11082022,2022.2.4,120.01796991470012,
7,5,11,0,0.111111111111111,1.0,0,1.0,0.298245614035088,0,1.0,1.0,ReadingArea_rsl0-rcl11-esl100-rsm0-rcm100-esm29-rsr0-rcr100-esr100,exr/ReadingArea_rsl0-rcl11-esl100-rsm0-rcm100-esm29-rsr0-rcr100-esr100.exr,ReadingArea_rsl0-rcl11-esl100-rsm0-rcm100-esm29-rsr0-rcr100-esr100.npz,,,,,0,16,16,10,,right,red,3.17,678.306501865387,678.7543759346008,,1,6,5,lightness,readingArea,realistic,75,2023-03-23_16h21.39.166,tripletExp_regina_11082022,2022.2.4,120.01796991470012,
1,9,7,0,0.111111111111111,0.298245614035088,0,0.444444444444444,1.0,0,0.111111111111111,1.0,ReadingArea_rsl0-rcl11-esl29-rsm0-rcm44-esm100-rsr0-rcr11-esr100,exr/ReadingArea_rsl0-rcl11-esl29-rsm0-rcm44-esm100-rsr0-rcr11-esr100.exr,ReadingArea_rsl0-rcl11-esl29-rsm0-rcm44-esm100-rsr0-rcr11-esr100.npz,,,,,0,17,17,397,,right,red,2.38,682.2447409629822,682.7036290168762,,1,6,5,lightness,readingArea,realistic,75,2023-03-23_16h21.39.166,tripletExp_regina_11082022,2022.2.4,120.01796991470012,
12,6,8,0,0.027777777777778,3.10526315789474,0,0.027777777777778,1.0,0,0.25,1.0,ReadingArea_rsl0-rcl2-esl310-rsm0-rcm2-esm100-rsr0-rcr25-esr100,exr/ReadingArea_rsl0-rcl2-esl310-rsm0-rcm2-esm100-rsr0-rcr25-esr100.exr,ReadingArea_rsl0-rcl2-esl310-rsm0-rcm2-esm100-rsr0-rcr25-esr100.npz,,,,,0,18,18,540,,left,green,1.15,684.3991210460663,684.9029669761658,,1,6,5,lightness,readingArea,realistic,75,2023-03-23_16h21.39.166,tripletExp_regina_11082022,2022.2.4,120.01796991470012,
11,5,8,0,1.0,1.0,0,1.0,0.298245614035088,0,0.25,1.0,ReadingArea_rsl0-rcl100-esl100-rsm0-rcm100-esm29-rsr0-rcr25-esr100,exr/ReadingArea_rsl0-rcl100-esl100-rsm0-rcm100-esm29-rsr0-rcr25-esr100.exr,ReadingArea_rsl0-rcl100-esl100-rsm0-rcm100-esm29-rsr0-rcr25-esr100.npz,,,,,0,19,19,86,,right,red,1.5,686.617063999176,687.0553469657898,,1,6,5,lightness,readingArea,realistic,75,2023-03-23_16h21.39.166,tripletExp_regina_11082022,2022.2.4,120.01796991470012,
14,4,8,0,0.25,3.10526315789474,0,0.694444444444444,0.298245614035088,0,0.25,1.0,ReadingArea_rsl0-rcl25-esl310-rsm0-rcm69-esm29-rsr0-rcr25-esr100,exr/ReadingArea_rsl0-rcl25-esl310-rsm0-rcm69-esm29-rsr0-rcr25-esr100.exr,ReadingArea_rsl0-rcl25-esl310-rsm0-rcm69-esm29-rsr0-rcr25-esr100.npz,,,,,0,20,20,253,,left,green,2.99,690.5456449985504,691.0631539821625,,1,6,5,lightness,readingArea,realistic,75,2023-03-23_16h21.39.166,tripletExp_regina_11082022,2022.2.4,120.01796991470012,
14,10,13,0,0.25,3.10526315789474,0,0.694444444444444,1.0,0,0.111111111111111,3.10526315789474,ReadingArea_rsl0-rcl25-esl310-rsm0-rcm69-esm100-rsr0-rcr11-esr310,exr/ReadingArea_rsl0-rcl25-esl310-rsm0-rcm69-esm100-rsr0-rcr11-esr310.exr,ReadingArea_rsl0-rcl25-esl310-rsm0-rcm69-esm100-rsr0-rcr11-esr310.npz,,,,,0,21,21,204,,left,green,2.89,694.5303008556366,694.9659249782562,,1,6,5,lightness,readingArea,realistic,75,2023-03-23_16h21.39.166,tripletExp_regina_11082022,2022.2.4,120.01796991470012,
7,9,8,0,0.111111111111111,1.0,0,0.444444444444444,1.0,0,0.25,1.0,ReadingArea_rsl0-rcl11-esl100-rsm0-rcm44-esm100-rsr0-rcr25-esr100,exr/ReadingArea_rsl0-rcl11-esl100-rsm0-rcm44-esm100-rsr0-rcr25-esr100.exr,ReadingArea_rsl0-rcl11-esl100-rsm0-rcm44-esm100-rsr0-rcr25-esr100.npz,,,,,0,22,22,515,,right,red,3.11,698.4501478672028,698.8963930606842,,1,6,5,lightness,readingArea,realistic,75,2023-03-23_16h21.39.166,tripletExp_regina_11082022,2022.2.4,120.01796991470012,
13,7,6,0,0.111111111111111,3.10526315789474,0,0.111111111111111,1.0,0,0.027777777777778,1.0,ReadingArea_rsl0-rcl11-esl310-rsm0-rcm11-esm100-rsr0-rcr2-esr100,exr/ReadingArea_rsl0-rcl11-esl310-rsm0-rcm11-esm100-rsr0-rcr2-esr100.exr,ReadingArea_rsl0-rcl11-esl310-rsm0-rcm11-esm100-rsr0-rcr2-esr100.npz,,,,,0,23,23,283,,right,red,2.82,702.3671140670776,702.8298840522766,,1,6,5,lightness,readingArea,realistic,75,2023-03-23_16h21.39.166,tripletExp_regina_11082022,2022.2.4,120.01796991470012,
5,11,14,0,1.0,0.298245614035088,0,1.0,1.0,0,0.25,3.10526315789474,ReadingArea_rsl0-rcl100-esl29-rsm0-rcm100-esm100-rsr0-rcr25-esr310,exr/ReadingArea_rsl0-rcl100-esl29-rsm0-rcm100-esm100-rsr0-rcr25-esr310.exr,ReadingArea_rsl0-rcl100-esl29-rsm0-rcm100-esm100-rsr0-rcr25-esr310.npz,,,,,0,24,24,258,,right,red,1.48,704.5252048969269,,,1,6,5,lightness,readingArea,realistic,75,2023-03-23_16h21.39.166,tripletExp_regina_11082022,2022.2.4,120.01796991470012,
14,9,0,0,0.25,3.10526315789474,0,0.444444444444444,1.0,0,0.027777777777778,0.298245614035088,ReadingArea_rsl0-rcl25-esl310-rsm0-rcm44-esm100-rsr0-rcr2-esr29,exr/ReadingArea_rsl0-rcl25-esl310-rsm0-rcm44-esm100-rsr0-rcr2-esr29.exr,ReadingArea_rsl0-rcl25-esl310-rsm0-rcm44-esm100-rsr0-rcr2-esr29.npz,,,,,0,25,25,313,,left,green,1.2,706.6838119029999,,,1,6,5,lightness,readingArea,realistic,75,2023-03-23_16h21.39.166,tripletExp_regina_11082022,2022.2.4,120.01796991470012,
13,9,6,0,0.111111111111111,3.10526315789474,0,0.444444444444444,1.0,0,0.027777777777778,1.0,ReadingArea_rsl0-rcl11-esl310-rsm0-rcm44-esm100-rsr0-rcr2-esr100,exr/ReadingArea_rsl0-rcl11-esl310-rsm0-rcm44-esm100-rsr0-rcr2-esr100.exr,ReadingArea_rsl0-rcl11-esl310-rsm0-rcm44-esm100-rsr0-rcr2-esr100.npz,,,,,0,26,26,19,,left,green,1.53,708.8783719539642,709.3264310359955,,1,6,5,lightness,readingArea,realistic,75,2023-03-23_16h21.39.166,tripletExp_regina_11082022,2022.2.4,120.01796991470012,
9,13,0,0,0.444444444444444,1.0,0,0.111111111111111,3.10526315789474,0,0.027777777777778,0.298245614035088,ReadingArea_rsl0-rcl44-esl100-rsm0-rcm11-esm310-rsr0-rcr2-esr29,exr/ReadingArea_rsl0-rcl44-esl100-rsm0-rcm11-esm310-rsr0-rcr2-esr29.exr,ReadingArea_rsl0-rcl44-esl100-rsm0-rcm11-esm310-rsr0-rcr2-esr29.npz,,,,,0,27,27,205,,left,green,2.69,712.8084108829498,713.2722840309143,,1,6,5,lightness,readingArea,realistic,75,2023-03-23_16h21.39.166,tripletExp_regina_11082022,2022.2.4,120.01796991470012,
1,14,0,0,0.111111111111111,0.298245614035088,0,0.25,3.10526315789474,0,0.027777777777778,0.298245614035088,ReadingArea_rsl0-rcl11-esl29-rsm0-rcm25-esm310-rsr0-rcr2-esr29,exr/ReadingArea_rsl0-rcl11-esl29-rsm0-rcm25-esm310-rsr0-rcr2-esr29.exr,ReadingArea_rsl0-rcl11-esl29-rsm0-rcm25-esm310-rsr0-rcr2-esr29.npz,,,,,0,28,28,394,,left,green,2.64,716.7806479930878,717.3088970184326,,1,6,5,lightness,readingArea,realistic,75,2023-03-23_16h21.39.166,tripletExp_regina_11082022,2022.2.4,120.01796991470012,
11,7,10,0,1.0,1.0,0,0.111111111111111,1.0,0,0.694444444444444,1.0,ReadingArea_rsl0-rcl100-esl100-rsm0-rcm11-esm100-rsr0-rcr69-esr100,exr/ReadingArea_rsl0-rcl100-esl100-rsm0-rcm11-esm100-rsr0-rcr69-esr100.exr,ReadingArea_rsl0-rcl100-esl100-rsm0-rcm11-esm100-rsr0-rcr69-esr100.npz,,,,,0,29,29,411,,right,red,2.81,720.761510848999,,,1,6,5,lightness,readingArea,realistic,75,2023-03-23_16h21.39.166,tripletExp_regina_11082022,2022.2.4,120.01796991470012,
7,3,12,0,0.111111111111111,1.0,0,0.444444444444444,0.298245614035088,0,0.027777777777778,3.10526315789474,ReadingArea_rsl0-rcl11-esl100-rsm0-rcm44-esm29-rsr0-rcr2-esr310,exr/ReadingArea_rsl0-rcl11-esl100-rsm0-rcm44-esm29-rsr0-rcr2-esr310.exr,ReadingArea_rsl0-rcl11-esl100-rsm0-rcm44-esm29-rsr0-rcr2-esr310.npz,,,,,0,30,30,443,,left,green,2.83,724.6851010322571,725.1369800567627,,1,6,5,lightness,readingArea,realistic,75,2023-03-23_16h21.39.166,tripletExp_regina_11082022,2022.2.4,120.01796991470012,
11,12,10,0,1.0,1.0,0,0.027777777777778,3.10526315789474,0,0.694444444444444,1.0,ReadingArea_rsl0-rcl100-esl100-rsm0-rcm2-esm310-rsr0-rcr69-esr100,exr/ReadingArea_rsl0-rcl100-esl100-rsm0-rcm2-esm310-rsr0-rcr69-esr100.exr,ReadingArea_rsl0-rcl100-esl100-rsm0-rcm2-esm310-rsr0-rcr69-esr100.npz,,,,,0,31,31,465,,right,red,1.4,726.8570258617401,727.3529748916626,,1,6,5,lightness,readingArea,realistic,75,2023-03-23_16h21.39.166,tripletExp_regina_11082022,2022.2.4,120.01796991470012,
10,12,9,0,0.694444444444444,1.0,0,0.027777777777778,3.10526315789474,0,0.444444444444444,1.0,ReadingArea_rsl0-rcl69-esl100-rsm0-rcm2-esm310-rsr0-rcr44-esr100,exr/ReadingArea_rsl0-rcl69-esl100-rsm0-rcm2-esm310-rsr0-rcr44-esr100.exr,ReadingArea_rsl0-rcl69-esl100-rsm0-rcm2-esm310-rsr0-rcr44-esr100.npz,,,,,0,32,32,405,,right,red,1.58,729.0678820610046,729.5077939033508,,1,6,5,lightness,readingArea,realistic,75,2023-03-23_16h21.39.166,tripletExp_regina_11082022,2022.2.4,120.01796991470012,
10,11,9,0,0.694444444444444,1.0,0,1.0,1.0,0,0.444444444444444,1.0,ReadingArea_rsl0-rcl69-esl100-rsm0-rcm100-esm100-rsr0-rcr44-esr100,exr/ReadingArea_rsl0-rcl69-esl100-rsm0-rcm100-esm100-rsr0-rcr44-esr100.exr,ReadingArea_rsl0-rcl69-esl100-rsm0-rcm100-esm100-rsr0-rcr44-esr100.npz,,,,,0,33,33,492,,left,green,1.38,731.2020189762115,731.6475419998169,,1,6,5,lightness,readingArea,realistic,75,2023-03-23_16h21.39.166,tripletExp_regina_11082022,2022.2.4,120.01796991470012,
11,8,2,0,1.0,1.0,0,0.25,1.0,0,0.25,0.298245614035088,ReadingArea_rsl0-rcl100-esl100-rsm0-rcm25-esm100-rsr0-rcr25-esr29,exr/ReadingArea_rsl0-rcl100-esl100-rsm0-rcm25-esm100-rsr0-rcr25-esr29.exr,ReadingArea_rsl0-rcl100-esl100-rsm0-rcm25-esm100-rsr0-rcr25-esr29.npz,,,,,0,34,34,406,,right,red,1.23,733.345272064209,733.801815032959,,1,6,5,lightness,readingArea,realistic,75,2023-03-23_16h21.39.166,tripletExp_regina_11082022,2022.2.4,120.01796991470012,
8,4,2,0,0.25,1.0,0,0.694444444444444,0.298245614035088,0,0.25,0.298245614035088,ReadingArea_rsl0-rcl25-esl100-rsm0-rcm69-esm29-rsr0-rcr25-esr29,exr/ReadingArea_rsl0-rcl25-esl100-rsm0-rcm69-esm29-rsr0-rcr25-esr29.exr,ReadingArea_rsl0-rcl25-esl100-rsm0-rcm69-esm29-rsr0-rcr25-esr29.npz,,,,,0,35,35,184,,left,green,1.14,735.5032348632812,735.9452049732208,,1,6,5,lightness,readingArea,realistic,75,2023-03-23_16h21.39.166,tripletExp_regina_11082022,2022.2.4,120.01796991470012,
2,13,0,0,0.25,0.298245614035088,0,0.111111111111111,3.10526315789474,0,0.027777777777778,0.298245614035088,ReadingArea_rsl0-rcl25-esl29-rsm0-rcm11-esm310-rsr0-rcr2-esr29,exr/ReadingArea_rsl0-rcl25-esl29-rsm0-rcm11-esm310-rsr0-rcr2-esr29.exr,ReadingArea_rsl0-rcl25-esl29-rsm0-rcm11-esm310-rsr0-rcr2-esr29.npz,,,,,0,36,36,454,,left,green,1.21,737.6552860736847,,,1,6,5,lightness,readingArea,realistic,75,2023-03-23_16h21.39.166,tripletExp_regina_11082022,2022.2.4,120.01796991470012,
7,9,5,0,0.111111111111111,1.0,0,0.444444444444444,1.0,0,1.0,0.298245614035088,ReadingArea_rsl0-rcl11-esl100-rsm0-rcm44-esm100-rsr0-rcr100-esr29,exr/ReadingArea_rsl0-rcl11-esl100-rsm0-rcm44-esm100-rsr0-rcr100-esr29.exr,ReadingArea_rsl0-rcl11-esl100-rsm0-rcm44-esm100-rsr0-rcr100-esr29.npz,,,,,0,37,37,291,,right,red,1.38,739.8164730072021,740.3300189971924,,1,6,5,lightness,readingArea,realistic,75,2023-03-23_16h21.39.166,tripletExp_regina_11082022,2022.2.4,120.01796991470012,
10,7,13,0,0.694444444444444,1.0,0,0.111111111111111,1.0,0,0.111111111111111,3.10526315789474,ReadingArea_rsl0-rcl69-esl100-rsm0-rcm11-esm100-rsr0-rcr11-esr310,exr/ReadingArea_rsl0-rcl69-esl100-rsm0-rcm11-esm100-rsr0-rcr11-esr310.exr,ReadingArea_rsl0-rcl69-esl100-rsm0-rcm11-esm100-rsr0-rcr11-esr310.npz,,,,,0,38,38,379,,right,red,2.54,743.7871649265289,744.3014769554138,,1,6,5,lightness,readingArea,realistic,75,2023-03-23_16h21.39.166,tripletExp_regina_11082022,2022.2.4,120.01796991470012,
6,4,2,0,0.027777777777778,1.0,0,0.694444444444444,0.298245614035088,0,0.25,0.298245614035088,ReadingArea_rsl0-rcl2-esl100-rsm0-rcm69-esm29-rsr0-rcr25-esr29,exr/ReadingArea_rsl0-rcl2-esl100-rsm0-rcm69-esm29-rsr0-rcr25-esr29.exr,ReadingArea_rsl0-rcl2-esl100-rsm0-rcm69-esm29-rsr0-rcr25-esr29.npz,,,,,0,39,39,134,,right,red,1.39,745.9880850315094,746.6010959148407,,1,6,5,lightness,readingArea,realistic,75,2023-03-23_16h21.39.166,tripletExp_regina_11082022,2022.2.4,120.01796991470012,
4,8,11,0,0.694444444444444,0.298245614035088,0,0.25,1.0,0,1.0,1.0,ReadingArea_rsl0-rcl69-esl29-rsm0-rcm25-esm100-rsr0-rcr100-esr100,exr/ReadingArea_rsl0-rcl69-esl29-rsm0-rcm25-esm100-rsr0-rcr100-esr100.exr,ReadingArea_rsl0-rcl69-esl29-rsm0-rcm25-esm100-rsr0-rcr100-esr100.npz,,,,,0,40,40,403,,left,green,1.47,748.2949559688568,748.7572538852692,,1,6,5,lightness,readingArea,realistic,75,2023-03-23_16h21.39.166,tripletExp_regina_11082022,2022.2.4,120.01796991470012,
1,9,11,0,0.111111111111111,0.298245614035088,0,0.444444444444444,1.0,0,1.0,1.0,ReadingArea_rsl0-rcl11-esl29-rsm0-rcm44-esm100-rsr0-rcr100-esr100,exr/ReadingArea_rsl0-rcl11-esl29-rsm0-rcm44-esm100-rsr0-rcr100-esr100.exr,ReadingArea_rsl0-rcl11-esl29-rsm0-rcm44-esm100-rsr0-rcr100-esr100.npz,,,,,0,41,41,215,,right,red,2.6,752.2409820556641,,,1,6,5,lightness,readingArea,realistic,75,2023-03-23_16h21.39.166,tripletExp_regina_11082022,2022.2.4,120.01796991470012,
1,9,8,0,0.111111111111111,0.298245614035088,0,0.444444444444444,1.0,0,0.25,1.0,ReadingArea_rsl0-rcl11-esl29-rsm0-rcm44-esm100-rsr0-rcr25-esr100,exr/ReadingArea_rsl0-rcl11-esl29-rsm0-rcm44-esm100-rsr0-rcr25-esr100.exr,ReadingArea_rsl0-rcl11-esl29-rsm0-rcm44-esm100-rsr0-rcr25-esr100.npz,,,,,0,42,42,268,,right,red,1.38,754.3988580703735,754.8450419902802,,1,6,5,lightness,readingArea,realistic,75,2023-03-23_16h21.39.166,tripletExp_regina_11082022,2022.2.4,120.01796991470012,
5,11,8,0,1.0,0.298245614035088,0,1.0,1.0,0,0.25,1.0,ReadingArea_rsl0-rcl100-esl29-rsm0-rcm100-esm100-rsr0-rcr25-esr100,exr/ReadingArea_rsl0-rcl100-esl29-rsm0-rcm100-esm100-rsr0-rcr25-esr100.exr,ReadingArea_rsl0-rcl100-esl29-rsm0-rcm100-esm100-rsr0-rcr25-esr100.npz,,,,,0,43,43,548,,left,green,1.64,756.5519859790802,757.0029978752136,,1,6,5,lightness,readingArea,realistic,75,2023-03-23_16h21.39.166,tripletExp_regina_11082022,2022.2.4,120.01796991470012,
5,2,10,0,1.0,0.298245614035088,0,0.25,0.298245614035088,0,0.694444444444444,1.0,ReadingArea_rsl0-rcl100-esl29-rsm0-rcm25-esm29-rsr0-rcr69-esr100,exr/ReadingArea_rsl0-rcl100-esl29-rsm0-rcm25-esm29-rsr0-rcr69-esr100.exr,ReadingArea_rsl0-rcl100-esl29-rsm0-rcm25-esm29-rsr0-rcr69-esr100.npz,,,,,0,44,44,595,,left,green,1.58,758.7030639648438,759.1578080654144,,1,6,5,lightness,readingArea,realistic,75,2023-03-23_16h21.39.166,tripletExp_regina_11082022,2022.2.4,120.01796991470012,
6,5,11,0,0.027777777777778,1.0,0,1.0,0.298245614035088,0,1.0,1.0,ReadingArea_rsl0-rcl2-esl100-rsm0-rcm100-esm29-rsr0-rcr100-esr100,exr/ReadingArea_rsl0-rcl2-esl100-rsm0-rcm100-esm29-rsr0-rcr100-esr100.exr,ReadingArea_rsl0-rcl2-esl100-rsm0-rcm100-esm29-rsr0-rcr100-esr100.npz,,,,,0,45,45,289,,right,red,2.99,762.6058559417725,763.0314249992371,,1,6,5,lightness,readingArea,realistic,75,2023-03-23_16h21.39.166,tripletExp_regina_11082022,2022.2.4,120.01796991470012,
12,13,14,0,0.027777777777778,3.10526315789474,0,0.111111111111111,3.10526315789474,0,0.25,3.10526315789474,ReadingArea_rsl0-rcl2-esl310-rsm0-rcm11-esm310-rsr0-rcr25-esr310,exr/ReadingArea_rsl0-rcl2-esl310-rsm0-rcm11-esm310-rsr0-rcr25-esr310.exr,ReadingArea_rsl0-rcl2-esl310-rsm0-rcm11-esm310-rsr0-rcr25-esr310.npz,,,,,0,46,46,208,,left,green,3.24,766.5285658836365,766.9768018722534,,1,6,5,lightness,readingArea,realistic,75,2023-03-23_16h21.39.166,tripletExp_regina_11082022,2022.2.4,120.01796991470012,
12,3,10,0,0.027777777777778,3.10526315789474,0,0.444444444444444,0.298245614035088,0,0.694444444444444,1.0,ReadingArea_rsl0-rcl2-esl310-rsm0-rcm44-esm29-rsr0-rcr69-esr100,exr/ReadingArea_rsl0-rcl2-esl310-rsm0-rcm44-esm29-rsr0-rcr69-esr100.exr,ReadingArea_rsl0-rcl2-esl310-rsm0-rcm44-esm29-rsr0-rcr69-esr100.npz,,,,,0,47,47,437,,left,green,1.84,768.6853120326996,,,1,6,5,lightness,readingArea,realistic,75,2023-03-23_16h21.39.166,tripletExp_regina_11082022,2022.2.4,120.01796991470012,
14,0,5,0,0.25,3.10526315789474,0,0.027777777777778,0.298245614035088,0,1.0,0.298245614035088,ReadingArea_rsl0-rcl25-esl310-rsm0-rcm2-esm29-rsr0-rcr100-esr29,exr/ReadingArea_rsl0-rcl25-esl310-rsm0-rcm2-esm29-rsr0-rcr100-esr29.exr,ReadingArea_rsl0-rcl25-esl310-rsm0-rcm2-esm29-rsr0-rcr100-esr29.npz,,,,,0,48,48,418,,right,red,1.26,770.8610329627991,,,1,6,5,lightness,readingArea,realistic,75,2023-03-23_16h21.39.166,tripletExp_regina_11082022,2022.2.4,120.01796991470012,
4,2,0,0,0.694444444444444,0.298245614035088,0,0.25,0.298245614035088,0,0.027777777777778,0.298245614035088,ReadingArea_rsl0-rcl69-esl29-rsm0-rcm25-esm29-rsr0-rcr2-esr29,exr/ReadingArea_rsl0-rcl69-esl29-rsm0-rcm25-esm29-rsr0-rcr2-esr29.exr,ReadingArea_rsl0-rcl69-esl29-rsm0-rcm25-esm29-rsr0-rcr2-esr29.npz,,,,,0,49,49,71,,right,red,3.2,774.7771239280701,775.2225019931793,,1,6,5,lightness,readingArea,realistic,75,2023-03-23_16h21.39.166,tripletExp_regina_11082022,2022.2.4,120.01796991470012,
4,8,14,0,0.694444444444444,0.298245614035088,0,0.25,1.0,0,0.25,3.10526315789474,ReadingArea_rsl0-rcl69-esl29-rsm0-rcm25-esm100-rsr0-rcr25-esr310,exr/ReadingArea_rsl0-rcl69-esl29-rsm0-rcm25-esm100-rsr0-rcr25-esr310.exr,ReadingArea_rsl0-rcl69-esl29-rsm0-rcm25-esm100-rsr0-rcr25-esr310.npz,,,,,0,50,50,234,,left,green,1.63,776.9138419628143,777.33487200737,,1,6,5,lightness,readingArea,realistic,75,2023-03-23_16h21.39.166,tripletExp_regina_11082022,2022.2.4,120.01796991470012,
13,3,7,0,0.111111111111111,3.10526315789474,0,0.444444444444444,0.298245614035088,0,0.111111111111111,1.0,ReadingArea_rsl0-rcl11-esl310-rsm0-rcm44-esm29-rsr0-rcr11-esr100,exr/ReadingArea_rsl0-rcl11-esl310-rsm0-rcm44-esm29-rsr0-rcr11-esr100.exr,ReadingArea_rsl0-rcl11-esl310-rsm0-rcm44-esm29-rsr0-rcr11-esr100.npz,,,,,0,51,51,497,,right,red,2.66,780.7954289913177,,,1,6,5,lightness,readingArea,realistic,75,2023-03-23_16h21.39.166,tripletExp_regina_11082022,2022.2.4,120.01796991470012,
2,8,7,0,0.25,0.298245614035088,0,0.25,1.0,0,0.111111111111111,1.0,ReadingArea_rsl0-rcl25-esl29-rsm0-rcm25-esm100-rsr0-rcr11-esr100,exr/ReadingArea_rsl0-rcl25-esl29-rsm0-rcm25-esm100-rsr0-rcr11-esr100.exr,ReadingArea_rsl0-rcl25-esl29-rsm0-rcm25-esm100-rsr0-rcr11-esr100.npz,,,,,0,52,52,393,,right,red,1.38,782.9508500099182,783.4046049118042,,1,6,5,lightness,readingArea,realistic,75,2023-03-23_16h21.39.166,tripletExp_regina_11082022,2022.2.4,120.01796991470012,
5,6,0,0,1.0,0.298245614035088,0,0.027777777777778,1.0,0,0.027777777777778,0.298245614035088,ReadingArea_rsl0-rcl100-esl29-rsm0-rcm2-esm100-rsr0-rcr2-esr29,exr/ReadingArea_rsl0-rcl100-esl29-rsm0-rcm2-esm100-rsr0-rcr2-esr29.exr,ReadingArea_rsl0-rcl100-esl29-rsm0-rcm2-esm100-rsr0-rcr2-esr29.npz,,,,,0,53,53,511,,right,red,1.03,785.1193170547485,785.5463349819183,,1,6,5,lightness,readingArea,realistic,75,2023-03-23_16h21.39.166,tripletExp_regina_11082022,2022.2.4,120.01796991470012,
12,6,9,0,0.027777777777778,3.10526315789474,0,0.027777777777778,1.0,0,0.444444444444444,1.0,ReadingArea_rsl0-rcl2-esl310-rsm0-rcm2-esm100-rsr0-rcr44-esr100,exr/ReadingArea_rsl0-rcl2-esl310-rsm0-rcm2-esm100-rsr0-rcr44-esr100.exr,ReadingArea_rsl0-rcl2-esl310-rsm0-rcm2-esm100-rsr0-rcr44-esr100.npz,,,,,0,54,54,177,,left,green,1.03,787.2502179145813,787.6999800205231,,1,6,5,lightness,readingArea,realistic,75,2023-03-23_16h21.39.166,tripletExp_regina_11082022,2022.2.4,120.01796991470012,
13,11,7,0,0.111111111111111,3.10526315789474,0,1.0,1.0,0,0.111111111111111,1.0,ReadingArea_rsl0-rcl11-esl310-rsm0-rcm100-esm100-rsr0-rcr11-esr100,exr/ReadingArea_rsl0-rcl11-esl310-rsm0-rcm100-esm100-rsr0-rcr11-esr100.exr,ReadingArea_rsl0-rcl11-esl310-rsm0-rcm100-esm100-rsr0-rcr11-esr100.npz,,,,,0,55,55,590,,left,green,1.26,789.3928120136261,789.8449409008026,,1,6,5,lightness,readingArea,realistic,75,2023-03-23_16h21.39.166,tripletExp_regina_11082022,2022.2.4,120.01796991470012,
14,13,0,0,0.25,3.10526315789474,0,0.111111111111111,3.10526315789474,0,0.027777777777778,0.298245614035088,ReadingArea_rsl0-rcl25-esl310-rsm0-rcm11-esm310-rsr0-rcr2-esr29,exr/ReadingArea_rsl0-rcl25-esl310-rsm0-rcm11-esm310-rsr0-rcr2-esr29.exr,ReadingArea_rsl0-rcl25-esl310-rsm0-rcm11-esm310-rsr0-rcr2-esr29.npz,,,,,0,56,56,417,,left,green,2.38,793.3275320529938,793.8234629631042,,1,6,5,lightness,readingArea,realistic,75,2023-03-23_16h21.39.166,tripletExp_regina_11082022,2022.2.4,120.01796991470012,
8,13,2,0,0.25,1.0,0,0.111111111111111,3.10526315789474,0,0.25,0.298245614035088,ReadingArea_rsl0-rcl25-esl100-rsm0-rcm11-esm310-rsr0-rcr25-esr29,exr/ReadingArea_rsl0-rcl25-esl100-rsm0-rcm11-esm310-rsr0-rcr25-esr29.exr,ReadingArea_rsl0-rcl25-esl100-rsm0-rcm11-esm310-rsr0-rcr25-esr29.npz,,,,,0,57,57,376,,left,green,1.2,795.5130908489227,795.9627869129181,,1,6,5,lightness,readingArea,realistic,75,2023-03-23_16h21.39.166,tripletExp_regina_11082022,2022.2.4,120.01796991470012,
3,6,5,0,0.444444444444444,0.298245614035088,0,0.027777777777778,1.0,0,1.0,0.298245614035088,ReadingArea_rsl0-rcl44-esl29-rsm0-rcm2-esm100-rsr0-rcr100-esr29,exr/ReadingArea_rsl0-rcl44-esl29-rsm0-rcm2-esm100-rsr0-rcr100-esr29.exr,ReadingArea_rsl0-rcl44-esl29-rsm0-rcm2-esm100-rsr0-rcr100-esr29.npz,,,,,0,58,58,274,,left,green,2.52,799.4366109371185,799.8805019855499,,1,6,5,lightness,readingArea,realistic,75,2023-03-23_16h21.39.166,tripletExp_regina_11082022,2022.2.4,120.01796991470012,
3,4,11,0,0.444444444444444,0.298245614035088,0,0.694444444444444,0.298245614035088,0,1.0,1.0,ReadingArea_rsl0-rcl44-esl29-rsm0-rcm69-esm29-rsr0-rcr100-esr100,exr/ReadingArea_rsl0-rcl44-esl29-rsm0-rcm69-esm29-rsr0-rcr100-esr100.exr,ReadingArea_rsl0-rcl44-esl29-rsm0-rcm69-esm29-rsr0-rcr100-esr100.npz,,,,,0,59,59,207,,left,green,1.17,801.5983600616455,802.0385539531708,,1,6,5,lightness,readingArea,realistic,75,2023-03-23_16h21.39.166,tripletExp_regina_11082022,2022.2.4,120.01796991470012,
14,0,3,0,0.25,3.10526315789474,0,0.027777777777778,0.298245614035088,0,0.444444444444444,0.298245614035088,ReadingArea_rsl0-rcl25-esl310-rsm0-rcm2-esm29-rsr0-rcr44-esr29,exr/ReadingArea_rsl0-rcl25-esl310-rsm0-rcm2-esm29-rsr0-rcr44-esr29.exr,ReadingArea_rsl0-rcl25-esl310-rsm0-rcm2-esm29-rsr0-rcr44-esr29.npz,,,,,0,60,60,75,,right,red,1.65,803.730329990387,804.1928980350494,,1,6,5,lightness,readingArea,realistic,75,2023-03-23_16h21.39.166,tripletExp_regina_11082022,2022.2.4,120.01796991470012,
0,8,14,0,0.027777777777778,0.298245614035088,0,0.25,1.0,0,0.25,3.10526315789474,ReadingArea_rsl0-rcl2-esl29-rsm0-rcm25-esm100-rsr0-rcr25-esr310,exr/ReadingArea_rsl0-rcl2-esl29-rsm0-rcm25-esm100-rsr0-rcr25-esr310.exr,ReadingArea_rsl0-rcl2-esl29-rsm0-rcm25-esm100-rsr0-rcr25-esr310.npz,,,,,0,61,61,114,,right,red,2.16,807.669107913971,808.1291830539703,,1,6,5,lightness,readingArea,realistic,75,2023-03-23_16h21.39.166,tripletExp_regina_11082022,2022.2.4,120.01796991470012,
10,6,3,0,0.694444444444444,1.0,0,0.027777777777778,1.0,0,0.444444444444444,0.298245614035088,ReadingArea_rsl0-rcl69-esl100-rsm0-rcm2-esm100-rsr0-rcr44-esr29,exr/ReadingArea_rsl0-rcl69-esl100-rsm0-rcm2-esm100-rsr0-rcr44-esr29.exr,ReadingArea_rsl0-rcl69-esl100-rsm0-rcm2-esm100-rsr0-rcr44-esr29.npz,,,,,0,62,62,0,,right,red,1.1,809.8249518871307,,,1,6,5,lightness,readingArea,realistic,75,2023-03-23_16h21.39.166,tripletExp_regina_11082022,2022.2.4,120.01796991470012,
11,8,0,0,1.0,1.0,0,0.25,1.0,0,0.027777777777778,0.298245614035088,ReadingArea_rsl0-rcl100-esl100-rsm0-rcm25-esm100-rsr0-rcr2-esr29,exr/ReadingArea_rsl0-rcl100-esl100-rsm0-rcm25-esm100-rsr0-rcr2-esr29.exr,ReadingArea_rsl0-rcl100-esl100-rsm0-rcm25-esm100-rsr0-rcr2-esr29.npz,,,,,0,63,63,81,,left,green,4.7,815.4911818504333,815.9456849098206,,1,6,5,lightness,readingArea,realistic,75,2023-03-23_16h21.39.166,tripletExp_regina_11082022,2022.2.4,120.01796991470012,
0,14,10,0,0.027777777777778,0.298245614035088,0,0.25,3.10526315789474,0,0.694444444444444,1.0,ReadingArea_rsl0-rcl2-esl29-rsm0-rcm25-esm310-rsr0-rcr69-esr100,exr/ReadingArea_rsl0-rcl2-esl29-rsm0-rcm25-esm310-rsr0-rcr69-esr100.exr,ReadingArea_rsl0-rcl2-esl29-rsm0-rcm25-esm310-rsr0-rcr69-esr100.npz,,,,,0,64,64,128,,right,red,1.14,817.6689689159393,818.103374004364,,1,6,5,lightness,readingArea,realistic,75,2023-03-23_16h21.39.166,tripletExp_regina_11082022,2022.2.4,120.01796991470012,
2,5,0,0,0.25,0.298245614035088,0,1.0,0.298245614035088,0,0.027777777777778,0.298245614035088,ReadingArea_rsl0-rcl25-esl29-rsm0-rcm100-esm29-rsr0-rcr2-esr29,exr/ReadingArea_rsl0-rcl25-esl29-rsm0-rcm100-esm29-rsr0-rcr2-esr29.exr,ReadingArea_rsl0-rcl25-esl29-rsm0-rcm100-esm29-rsr0-rcr2-esr29.npz,,,,,0,65,65,414,,left,green,2.84,821.5564448833466,822.0901329517365,,1,6,5,lightness,readingArea,realistic,75,2023-03-23_16h21.39.166,tripletExp_regina_11082022,2022.2.4,120.01796991470012,
12,8,9,0,0.027777777777778,3.10526315789474,0,0.25,1.0,0,0.444444444444444,1.0,ReadingArea_rsl0-rcl2-esl310-rsm0-rcm25-esm100-rsr0-rcr44-esr100,exr/ReadingArea_rsl0-rcl2-esl310-rsm0-rcm25-esm100-rsr0-rcr44-esr100.exr,ReadingArea_rsl0-rcl2-esl310-rsm0-rcm25-esm100-rsr0-rcr44-esr100.npz,,,,,0,66,66,517,,left,green,2.94,825.5777089595795,,,1,6,5,lightness,readingArea,realistic,75,2023-03-23_16h21.39.166,tripletExp_regina_11082022,2022.2.4,120.01796991470012,
1,13,8,0,0.111111111111111,0.298245614035088,0,0.111111111111111,3.10526315789474,0,0.25,1.0,ReadingArea_rsl0-rcl11-esl29-rsm0-rcm11-esm310-rsr0-rcr25-esr100,exr/ReadingArea_rsl0-rcl11-esl29-rsm0-rcm11-esm310-rsr0-rcr25-esr100.exr,ReadingArea_rsl0-rcl11-esl29-rsm0-rcm11-esm310-rsr0-rcr25-esr100.npz,,,,,0,67,67,64,,right,red,2.9,829.5213849544525,829.973895072937,,1,6,5,lightness,readingArea,realistic,75,2023-03-23_16h21.39.166,tripletExp_regina_11082022,2022.2.4,120.01796991470012,
7,12,2,0,0.111111111111111,1.0,0,0.027777777777778,3.10526315789474,0,0.25,0.298245614035088,ReadingArea_rsl0-rcl11-esl100-rsm0-rcm2-esm310-rsr0-rcr25-esr29,exr/ReadingArea_rsl0-rcl11-esl100-rsm0-rcm2-esm310-rsr0-rcr25-esr29.exr,ReadingArea_rsl0-rcl11-esl100-rsm0-rcm2-esm310-rsr0-rcr25-esr29.npz,,,,,0,68,68,72,,left,green,3.22,833.4752750396729,833.9285888671875,,1,6,5,lightness,readingArea,realistic,75,2023-03-23_16h21.39.166,tripletExp_regina_11082022,2022.2.4,120.01796991470012,
12,5,2,0,0.027777777777778,3.10526315789474,0,1.0,0.298245614035088,0,0.25,0.298245614035088,ReadingArea_rsl0-rcl2-esl310-rsm0-rcm100-esm29-rsr0-rcr25-esr29,exr/ReadingArea_rsl0-rcl2-esl310-rsm0-rcm100-esm29-rsr0-rcr25-esr29.exr,ReadingArea_rsl0-rcl2-esl310-rsm0-rcm100-esm29-rsr0-rcr25-esr29.npz,,,,,0,69,69,415,,right,red,2.52,837.4047329425812,,,1,6,5,lightness,readingArea,realistic,75,2023-03-23_16h21.39.166,tripletExp_regina_11082022,2022.2.4,120.01796991470012,
6,12,7,0,0.027777777777778,1.0,0,0.027777777777778,3.10526315789474,0,0.111111111111111,1.0,ReadingArea_rsl0-rcl2-esl100-rsm0-rcm2-esm310-rsr0-rcr11-esr100,exr/ReadingArea_rsl0-rcl2-esl100-rsm0-rcm2-esm310-rsr0-rcr11-esr100.exr,ReadingArea_rsl0-rcl2-esl100-rsm0-rcm2-esm310-rsr0-rcr11-esr100.npz,,,,,0,70,70,157,,left,green,1.35,839.5514400005341,840.0397720336914,,1,6,5,lightness,readingArea,realistic,75,2023-03-23_16h21.39.166,tripletExp_regina_11082022,2022.2.4,120.01796991470012,
5,14,8,0,1.0,0.298245614035088,0,0.25,3.10526315789474,0,0.25,1.0,ReadingArea_rsl0-rcl100-esl29-rsm0-rcm25-esm310-rsr0-rcr25-esr100,exr/ReadingArea_rsl0-rcl100-esl29-rsm0-rcm25-esm310-rsr0-rcr25-esr100.exr,ReadingArea_rsl0-rcl100-esl29-rsm0-rcm25-esm310-rsr0-rcr25-esr100.npz,,,,,0,71,71,14,,left,green,1.39,841.746542930603,,,1,6,5,lightness,readingArea,realistic,75,2023-03-23_16h21.39.166,tripletExp_regina_11082022,2022.2.4,120.01796991470012,
3,2,8,0,0.444444444444444,0.298245614035088,0,0.25,0.298245614035088,0,0.25,1.0,ReadingArea_rsl0-rcl44-esl29-rsm0-rcm25-esm29-rsr0-rcr25-esr100,exr/ReadingArea_rsl0-rcl44-esl29-rsm0-rcm25-esm29-rsr0-rcr25-esr100.exr,ReadingArea_rsl0-rcl44-esl29-rsm0-rcm25-esm29-rsr0-rcr25-esr100.npz,,,,,0,72,72,181,,left,green,3.06,845.6707470417023,846.1016428470612,,1,6,5,lightness,readingArea,realistic,75,2023-03-23_16h21.39.166,tripletExp_regina_11082022,2022.2.4,120.01796991470012,
9,8,7,0,0.444444444444444,1.0,0,0.25,1.0,0,0.111111111111111,1.0,ReadingArea_rsl0-rcl44-esl100-rsm0-rcm25-esm100-rsr0-rcr11-esr100,exr/ReadingArea_rsl0-rcl44-esl100-rsm0-rcm25-esm100-rsr0-rcr11-esr100.exr,ReadingArea_rsl0-rcl44-esl100-rsm0-rcm25-esm100-rsr0-rcr11-esr100.npz,,,,,0,73,73,368,,right,red,2.89,849.5605778694153,850.0210800170898,,1,6,5,lightness,readingArea,realistic,75,2023-03-23_16h21.39.166,tripletExp_regina_11082022,2022.2.4,120.01796991470012,
7,8,12,0,0.111111111111111,1.0,0,0.25,1.0,0,0.027777777777778,3.10526315789474,ReadingArea_rsl0-rcl11-esl100-rsm0-rcm25-esm100-rsr0-rcr2-esr310,exr/ReadingArea_rsl0-rcl11-esl100-rsm0-rcm25-esm100-rsr0-rcr2-esr310.exr,ReadingArea_rsl0-rcl11-esl100-rsm0-rcm25-esm100-rsr0-rcr2-esr310.npz,,,,,0,74,74,271,,left,green,3.0,853.4940948486328,853.6973440647125,,1,6,5,lightness,readingArea,realistic,75,2023-03-23_16h21.39.166,tripletExp_regina_11082022,2022.2.4,120.01796991470012,
6,5,0,0,0.027777777777778,1.0,0,1.0,0.298245614035088,0,0.027777777777778,0.298245614035088,ReadingArea_rsl0-rcl2-esl100-rsm0-rcm100-esm29-rsr0-rcr2-esr29,exr/ReadingArea_rsl0-rcl2-esl100-rsm0-rcm100-esm29-rsr0-rcr2-esr29.exr,ReadingArea_rsl0-rcl2-esl100-rsm0-rcm100-esm29-rsr0-rcr2-esr29.npz,,,,,0,75,75,558,,left,green,1.61,886.0855000019073,886.5210740566254,,2,6,5,lightness,readingArea,realistic,75,2023-03-23_16h21.39.166,tripletExp_regina_11082022,2022.2.4,120.01796991470012,
3,14,4,0,0.444444444444444,0.298245614035088,0,0.25,3.10526315789474,0,0.694444444444444,0.298245614035088,ReadingArea_rsl0-rcl44-esl29-rsm0-rcm25-esm310-rsr0-rcr69-esr29,exr/ReadingArea_rsl0-rcl44-esl29-rsm0-rcm25-esm310-rsr0-rcr69-esr29.exr,ReadingArea_rsl0-rcl44-esl29-rsm0-rcm25-esm310-rsr0-rcr69-esr29.npz,,,,,0,76,76,537,,right,red,1.45,888.2270929813385,888.7752668857574,,2,6,5,lightness,readingArea,realistic,75,2023-03-23_16h21.39.166,tripletExp_regina_11082022,2022.2.4,120.01796991470012,
13,1,3,0,0.111111111111111,3.10526315789474,0,0.111111111111111,0.298245614035088,0,0.444444444444444,0.298245614035088,ReadingArea_rsl0-rcl11-esl310-rsm0-rcm11-esm29-rsr0-rcr44-esr29,exr/ReadingArea_rsl0-rcl11-esl310-rsm0-rcm11-esm29-rsr0-rcr44-esr29.exr,ReadingArea_rsl0-rcl11-esl310-rsm0-rcm11-esm29-rsr0-rcr44-esr29.npz,,,,,0,77,77,588,,right,red,1.41,890.4789588451385,890.9067249298096,,2,6,5,lightness,readingArea,realistic,75,2023-03-23_16h21.39.166,tripletExp_regina_11082022,2022.2.4,120.01796991470012,
12,6,7,0,0.027777777777778,3.10526315789474,0,0.027777777777778,1.0,0,0.111111111111111,1.0,ReadingArea_rsl0-rcl2-esl310-rsm0-rcm2-esm100-rsr0-rcr11-esr100,exr/ReadingArea_rsl0-rcl2-esl310-rsm0-rcm2-esm100-rsr0-rcr11-esr100.exr,ReadingArea_rsl0-rcl2-esl310-rsm0-rcm2-esm100-rsr0-rcr11-esr100.npz,,,,,0,78,78,308,,left,green,1.11,892.6004228591919,893.0364968776703,,2,6,5,lightness,readingArea,realistic,75,2023-03-23_16h21.39.166,tripletExp_regina_11082022,2022.2.4,120.01796991470012,
14,10,9,0,0.25,3.10526315789474,0,0.694444444444444,1.0,0,0.444444444444444,1.0,ReadingArea_rsl0-rcl25-esl310-rsm0-rcm69-esm100-rsr0-rcr44-esr100,exr/ReadingArea_rsl0-rcl25-esl310-rsm0-rcm69-esm100-rsr0-rcr44-esr100.exr,ReadingArea_rsl0-rcl25-esl310-rsm0-rcm69-esm100-rsr0-rcr44-esr100.npz,,,,,0,79,79,402,,left,green,1.03,894.7309370040894,895.1893968582153,,2,6,5,lightness,readingArea,realistic,75,2023-03-23_16h21.39.166,tripletExp_regina_11082022,2022.2.4,120.01796991470012,
3,11,14,0,0.444444444444444,0.298245614035088,0,1.0,1.0,0,0.25,3.10526315789474,ReadingArea_rsl0-rcl44-esl29-rsm0-rcm100-esm100-rsr0-rcr25-esr310,exr/ReadingArea_rsl0-rcl44-esl29-rsm0-rcm100-esm100-rsr0-rcr25-esr310.exr,ReadingArea_rsl0-rcl44-esl29-rsm0-rcm100-esm100-rsr0-rcr25-esr310.npz,,,,,0,80,80,570,,right,red,1.18,896.8867819309235,897.3204848766327,,2,6,5,lightness,readingArea,realistic,75,2023-03-23_16h21.39.166,tripletExp_regina_11082022,2022.2.4,120.01796991470012,
1,13,2,0,0.111111111111111,0.298245614035088,0,0.111111111111111,3.10526315789474,0,0.25,0.298245614035088,ReadingArea_rsl0-rcl11-esl29-rsm0-rcm11-esm310-rsr0-rcr25-esr29,exr/ReadingArea_rsl0-rcl11-esl29-rsm0-rcm11-esm310-rsr0-rcr25-esr29.exr,ReadingArea_rsl0-rcl11-esl29-rsm0-rcm11-esm310-rsr0-rcr25-esr29.npz,,,,,0,81,81,118,,right,red,1.24,899.0249898433685,899.6469390392303,,2,6,5,lightness,readingArea,realistic,75,2023-03-23_16h21.39.166,tripletExp_regina_11082022,2022.2.4,120.01796991470012,
14,13,2,0,0.25,3.10526315789474,0,0.111111111111111,3.10526315789474,0,0.25,0.298245614035088,ReadingArea_rsl0-rcl25-esl310-rsm0-rcm11-esm310-rsr0-rcr25-esr29,exr/ReadingArea_rsl0-rcl25-esl310-rsm0-rcm11-esm310-rsr0-rcr25-esr29.exr,ReadingArea_rsl0-rcl25-esl310-rsm0-rcm11-esm310-rsr0-rcr25-esr29.npz,,,,,0,82,82,377,,right,red,3.07,903.0966918468476,903.5635619163512,,2,6,5,lightness,readingArea,realistic,75,2023-03-23_16h21.39.166,tripletExp_regina_11082022,2022.2.4,120.01796991470012,
3,4,5,0,0.444444444444444,0.298245614035088,0,0.694444444444444,0.298245614035088,0,1.0,0.298245614035088,ReadingArea_rsl0-rcl44-esl29-rsm0-rcm69-esm29-rsr0-rcr100-esr29,exr/ReadingArea_rsl0-rcl44-esl29-rsm0-rcm69-esm29-rsr0-rcr100-esr29.exr,ReadingArea_rsl0-rcl44-esl29-rsm0-rcm69-esm29-rsr0-rcr100-esr29.npz,,,,,0,83,83,233,,left,green,2.7,907.0441770553588,907.4893908500673,,2,6,5,lightness,readingArea,realistic,75,2023-03-23_16h21.39.166,tripletExp_regina_11082022,2022.2.4,120.01796991470012,
8,13,3,0,0.25,1.0,0,0.111111111111111,3.10526315789474,0,0.444444444444444,0.298245614035088,ReadingArea_rsl0-rcl25-esl100-rsm0-rcm11-esm310-rsr0-rcr44-esr29,exr/ReadingArea_rsl0-rcl25-esl100-rsm0-rcm11-esm310-rsr0-rcr44-esr29.exr,ReadingArea_rsl0-rcl25-esl100-rsm0-rcm11-esm310-rsr0-rcr44-esr29.npz,,,,,0,84,84,553,,left,green,2.8,910.956254005432,911.4045190811156,,2,6,5,lightness,readingArea,realistic,75,2023-03-23_16h21.39.166,tripletExp_regina_11082022,2022.2.4,120.01796991470012,
0,9,6,0,0.027777777777778,0.298245614035088,0,0.444444444444444,1.0,0,0.027777777777778,1.0,ReadingArea_rsl0-rcl2-esl29-rsm0-rcm44-esm100-rsr0-rcr2-esr100,exr/ReadingArea_rsl0-rcl2-esl29-rsm0-rcm44-esm100-rsr0-rcr2-esr100.exr,ReadingArea_rsl0-rcl2-esl29-rsm0-rcm44-esm100-rsr0-rcr2-esr100.npz,,,,,0,85,85,365,,right,red,1.28,913.1032269001008,913.7241899967194,,2,6,5,lightness,readingArea,realistic,75,2023-03-23_16h21.39.166,tripletExp_regina_11082022,2022.2.4,120.01796991470012,
8,2,0,0,0.25,1.0,0,0.25,0.298245614035088,0,0.027777777777778,0.298245614035088,ReadingArea_rsl0-rcl25-esl100-rsm0-rcm25-esm29-rsr0-rcr2-esr29,exr/ReadingArea_rsl0-rcl25-esl100-rsm0-rcm25-esm29-rsr0-rcr2-esr29.exr,ReadingArea_rsl0-rcl25-esl100-rsm0-rcm25-esm29-rsr0-rcr2-esr29.npz,,,,,0,86,86,574,,right,red,2.94,917.2151670455931,917.671417951584,,2,6,5,lightness,readingArea,realistic,75,2023-03-23_16h21.39.166,tripletExp_regina_11082022,2022.2.4,120.01796991470012,
9,3,14,0,0.444444444444444,1.0,0,0.444444444444444,0.298245614035088,0,0.25,3.10526315789474,ReadingArea_rsl0-rcl44-esl100-rsm0-rcm44-esm29-rsr0-rcr25-esr310,exr/ReadingArea_rsl0-rcl44-esl100-rsm0-rcm44-esm29-rsr0-rcr25-esr310.exr,ReadingArea_rsl0-rcl44-esl100-rsm0-rcm44-esm29-rsr0-rcr25-esr310.npz,,,,,0,87,87,17,,left,green,2.72,921.1142499446868,921.569750070572,,2,6,5,lightness,readingArea,realistic,75,2023-03-23_16h21.39.166,tripletExp_regina_11082022,2022.2.4,120.01796991470012,
10,5,4,0,0.694444444444444,1.0,0,1.0,0.298245614035088,0,0.694444444444444,0.298245614035088,ReadingArea_rsl0-rcl69-esl100-rsm0-rcm100-esm29-rsr0-rcr69-esr29,exr/ReadingArea_rsl0-rcl69-esl100-rsm0-rcm100-esm29-rsr0-rcr69-esr29.exr,ReadingArea_rsl0-rcl69-esl100-rsm0-rcm100-esm29-rsr0-rcr69-esr29.npz,,,,,0,88,88,455,,right,red,1.12,923.2672228813173,923.7239110469818,,2,6,5,lightness,readingArea,realistic,75,2023-03-23_16h21.39.166,tripletExp_regina_11082022,2022.2.4,120.01796991470012,
6,11,3,0,0.027777777777778,1.0,0,1.0,1.0,0,0.444444444444444,0.298245614035088,ReadingArea_rsl0-rcl2-esl100-rsm0-rcm100-esm100-rsr0-rcr44-esr29,exr/ReadingArea_rsl0-rcl2-esl100-rsm0-rcm100-esm100-rsr0-rcr44-esr29.exr,ReadingArea_rsl0-rcl2-esl100-rsm0-rcm100-esm100-rsr0-rcr44-esr29.npz,,,,,0,89,89,11,,right,red,2.59,927.1907849311827,927.63476395607,,2,6,5,lightness,readingArea,realistic,75,2023-03-23_16h21.39.166,tripletExp_regina_11082022,2022.2.4,120.01796991470012,
0,10,14,0,0.027777777777778,0.298245614035088,0,0.694444444444444,1.0,0,0.25,3.10526315789474,ReadingArea_rsl0-rcl2-esl29-rsm0-rcm69-esm100-rsr0-rcr25-esr310,exr/ReadingArea_rsl0-rcl2-esl29-rsm0-rcm69-esm100-rsr0-rcr25-esr310.exr,ReadingArea_rsl0-rcl2-esl29-rsm0-rcm69-esm100-rsr0-rcr25-esr310.npz,,,,,0,90,90,31,,right,red,3.94,932.8738088607788,933.327924966812,,2,6,5,lightness,readingArea,realistic,75,2023-03-23_16h21.39.166,tripletExp_regina_11082022,2022.2.4,120.01796991470012,
7,8,14,0,0.111111111111111,1.0,0,0.25,1.0,0,0.25,3.10526315789474,ReadingArea_rsl0-rcl11-esl100-rsm0-rcm25-esm100-rsr0-rcr25-esr310,exr/ReadingArea_rsl0-rcl11-esl100-rsm0-rcm25-esm100-rsr0-rcr25-esr310.exr,ReadingArea_rsl0-rcl11-esl100-rsm0-rcm25-esm100-rsr0-rcr25-esr310.npz,,,,,0,91,91,300,,left,green,2.47,936.804398059845,937.2691009044648,,2,6,5,lightness,readingArea,realistic,75,2023-03-23_16h21.39.166,tripletExp_regina_11082022,2022.2.4,120.01796991470012,
2,9,11,0,0.25,0.298245614035088,0,0.444444444444444,1.0,0,1.0,1.0,ReadingArea_rsl0-rcl25-esl29-rsm0-rcm44-esm100-rsr0-rcr100-esr100,exr/ReadingArea_rsl0-rcl25-esl29-rsm0-rcm44-esm100-rsr0-rcr100-esr100.exr,ReadingArea_rsl0-rcl25-esl29-rsm0-rcm44-esm100-rsr0-rcr100-esr100.npz,,,,,0,92,92,164,,left,green,1.3,938.979148864746,,,2,6,5,lightness,readingArea,realistic,75,2023-03-23_16h21.39.166,tripletExp_regina_11082022,2022.2.4,120.01796991470012,
5,7,14,0,1.0,0.298245614035088,0,0.111111111111111,1.0,0,0.25,3.10526315789474,ReadingArea_rsl0-rcl100-esl29-rsm0-rcm11-esm100-rsr0-rcr25-esr310,exr/ReadingArea_rsl0-rcl100-esl29-rsm0-rcm11-esm100-rsr0-rcr25-esr310.exr,ReadingArea_rsl0-rcl100-esl29-rsm0-rcm11-esm100-rsr0-rcr25-esr310.npz,,,,,0,93,93,210,,left,green,2.78,942.9093308448792,943.3670070171356,,2,6,5,lightness,readingArea,realistic,75,2023-03-23_16h21.39.166,tripletExp_regina_11082022,2022.2.4,120.01796991470012,
4,12,6,0,0.694444444444444,0.298245614035088,0,0.027777777777778,3.10526315789474,0,0.027777777777778,1.0,ReadingArea_rsl0-rcl69-esl29-rsm0-rcm2-esm310-rsr0-rcr2-esr100,exr/ReadingArea_rsl0-rcl69-esl29-rsm0-rcm2-esm310-rsr0-rcr2-esr100.exr,ReadingArea_rsl0-rcl69-esl29-rsm0-rcm2-esm310-rsr0-rcr2-esr100.npz,,,,,0,94,94,99,,right,red,1.22,945.0579319000244,945.5205290317537,,2,6,5,lightness,readingArea,realistic,75,2023-03-23_16h21.39.166,tripletExp_regina_11082022,2022.2.4,120.01796991470012,
14,0,9,0,0.25,3.10526315789474,0,0.027777777777778,0.298245614035088,0,0.444444444444444,1.0,ReadingArea_rsl0-rcl25-esl310-rsm0-rcm2-esm29-rsr0-rcr44-esr100,exr/ReadingArea_rsl0-rcl25-esl310-rsm0-rcm2-esm29-rsr0-rcr44-esr100.exr,ReadingArea_rsl0-rcl25-esl310-rsm0-rcm2-esm29-rsr0-rcr44-esr100.npz,,,,,0,95,95,90,,right,red,1.46,947.2254128456116,947.6844980716704,,2,6,5,lightness,readingArea,realistic,75,2023-03-23_16h21.39.166,tripletExp_regina_11082022,2022.2.4,120.01796991470012,
0,5,2,0,0.027777777777778,0.298245614035088,0,1.0,0.298245614035088,0,0.25,0.298245614035088,ReadingArea_rsl0-rcl2-esl29-rsm0-rcm100-esm29-rsr0-rcr25-esr29,exr/ReadingArea_rsl0-rcl2-esl29-rsm0-rcm100-esm29-rsr0-rcr25-esr29.exr,ReadingArea_rsl0-rcl2-esl29-rsm0-rcm100-esm29-rsr0-rcr25-esr29.npz,,,,,0,96,96,25,,right,red,2.57,951.1546199321748,951.6077299118042,,2,6,5,lightness,readingArea,realistic,75,2023-03-23_16h21.39.166,tripletExp_regina_11082022,2022.2.4,120.01796991470012,
4,7,5,0,0.694444444444444,0.298245614035088,0,0.111111111111111,1.0,0,1.0,0.298245614035088,ReadingArea_rsl0-rcl69-esl29-rsm0-rcm11-esm100-rsr0-rcr100-esr29,exr/ReadingArea_rsl0-rcl69-esl29-rsm0-rcm11-esm100-rsr0-rcr100-esr29.exr,ReadingArea_rsl0-rcl69-esl29-rsm0-rcm11-esm100-rsr0-rcr100-esr29.npz,,,,,0,97,97,195,,left,green,2.85,955.0653009414672,955.4967339038848,,2,6,5,lightness,readingArea,realistic,75,2023-03-23_16h21.39.166,tripletExp_regina_11082022,2022.2.4,120.01796991470012,
14,7,13,0,0.25,3.10526315789474,0,0.111111111111111,1.0,0,0.111111111111111,3.10526315789474,ReadingArea_rsl0-rcl25-esl310-rsm0-rcm11-esm100-rsr0-rcr11-esr310,exr/ReadingArea_rsl0-rcl25-esl310-rsm0-rcm11-esm100-rsr0-rcr11-esr310.exr,ReadingArea_rsl0-rcl25-esl310-rsm0-rcm11-esm100-rsr0-rcr11-esr310.npz,,,,,0,98,98,358,,right,red,2.96,958.9655089378356,,,2,6,5,lightness,readingArea,realistic,75,2023-03-23_16h21.39.166,tripletExp_regina_11082022,2022.2.4,120.01796991470012,
12,14,4,0,0.027777777777778,3.10526315789474,0,0.25,3.10526315789474,0,0.694444444444444,0.298245614035088,ReadingArea_rsl0-rcl2-esl310-rsm0-rcm25-esm310-rsr0-rcr69-esr29,exr/ReadingArea_rsl0-rcl2-esl310-rsm0-rcm25-esm310-rsr0-rcr69-esr29.exr,ReadingArea_rsl0-rcl2-esl310-rsm0-rcm25-esm310-rsr0-rcr69-esr29.npz,,,,,0,99,99,315,,right,red,2.86,962.8999619483948,963.3601758480072,,2,6,5,lightness,readingArea,realistic,75,2023-03-23_16h21.39.166,tripletExp_regina_11082022,2022.2.4,120.01796991470012,
6,0,14,0,0.027777777777778,1.0,0,0.027777777777778,0.298245614035088,0,0.25,3.10526315789474,ReadingArea_rsl0-rcl2-esl100-rsm0-rcm2-esm29-rsr0-rcr25-esr310,exr/ReadingArea_rsl0-rcl2-esl100-rsm0-rcm2-esm29-rsr0-rcr25-esr310.exr,ReadingArea_rsl0-rcl2-esl100-rsm0-rcm2-esm29-rsr0-rcr25-esr310.npz,,,,,0,100,100,169,,left,green,1.26,965.0580730438232,,,2,6,5,lightness,readingArea,realistic,75,2023-03-23_16h21.39.166,tripletExp_regina_11082022,2022.2.4,120.01796991470012,
12,7,1,0,0.027777777777778,3.10526315789474,0,0.111111111111111,1.0,0,0.111111111111111,0.298245614035088,ReadingArea_rsl0-rcl2-esl310-rsm0-rcm11-esm100-rsr0-rcr11-esr29,exr/ReadingArea_rsl0-rcl2-esl310-rsm0-rcm11-esm100-rsr0-rcr11-esr29.exr,ReadingArea_rsl0-rcl2-esl310-rsm0-rcm11-esm100-rsr0-rcr11-esr29.npz,,,,,0,101,101,264,,left,green,3.0,968.9901039600372,969.455544948578,,2,6,5,lightness,readingArea,realistic,75,2023-03-23_16h21.39.166,tripletExp_regina_11082022,2022.2.4,120.01796991470012,
0,5,12,0,0.027777777777778,0.298245614035088,0,1.0,0.298245614035088,0,0.027777777777778,3.10526315789474,ReadingArea_rsl0-rcl2-esl29-rsm0-rcm100-esm29-rsr0-rcr2-esr310,exr/ReadingArea_rsl0-rcl2-esl29-rsm0-rcm100-esm29-rsr0-rcr2-esr310.exr,ReadingArea_rsl0-rcl2-esl29-rsm0-rcm100-esm29-rsr0-rcr2-esr310.npz,,,,,0,102,102,366,,right,red,1.19,971.1728899478912,971.6257259845734,,2,6,5,lightness,readingArea,realistic,75,2023-03-23_16h21.39.166,tripletExp_regina_11082022,2022.2.4,120.01796991470012,
0,11,9,0,0.027777777777778,0.298245614035088,0,1.0,1.0,0,0.444444444444444,1.0,ReadingArea_rsl0-rcl2-esl29-rsm0-rcm100-esm100-rsr0-rcr44-esr100,exr/ReadingArea_rsl0-rcl2-esl29-rsm0-rcm100-esm100-rsr0-rcr44-esr100.exr,ReadingArea_rsl0-rcl2-esl29-rsm0-rcm100-esm100-rsr0-rcr44-esr100.npz,,,,,0,103,103,32,,right,red,1.01,973.3368530273438,973.7932078838348,,2,6,5,lightness,readingArea,realistic,75,2023-03-23_16h21.39.166,tripletExp_regina_11082022,2022.2.4,120.01796991470012,
7,14,3,0,0.111111111111111,1.0,0,0.25,3.10526315789474,0,0.444444444444444,0.298245614035088,ReadingArea_rsl0-rcl11-esl100-rsm0-rcm25-esm310-rsr0-rcr44-esr29,exr/ReadingArea_rsl0-rcl11-esl100-rsm0-rcm25-esm310-rsr0-rcr44-esr29.exr,ReadingArea_rsl0-rcl11-esl100-rsm0-rcm25-esm310-rsr0-rcr44-esr29.npz,,,,,0,104,104,103,,right,red,1.32,975.51385307312,975.9436330795288,,2,6,5,lightness,readingArea,realistic,75,2023-03-23_16h21.39.166,tripletExp_regina_11082022,2022.2.4,120.01796991470012,
6,1,2,0,0.027777777777778,1.0,0,0.111111111111111,0.298245614035088,0,0.25,0.298245614035088,ReadingArea_rsl0-rcl2-esl100-rsm0-rcm11-esm29-rsr0-rcr25-esr29,exr/ReadingArea_rsl0-rcl2-esl100-rsm0-rcm11-esm29-rsr0-rcr25-esr29.exr,ReadingArea_rsl0-rcl2-esl100-rsm0-rcm11-esm29-rsr0-rcr25-esr29.npz,,,,,0,105,105,68,,right,red,3.01,979.4459040164948,979.9059360027312,,2,6,5,lightness,readingArea,realistic,75,2023-03-23_16h21.39.166,tripletExp_regina_11082022,2022.2.4,120.01796991470012,
14,2,8,0,0.25,3.10526315789474,0,0.25,0.298245614035088,0,0.25,1.0,ReadingArea_rsl0-rcl25-esl310-rsm0-rcm25-esm29-rsr0-rcr25-esr100,exr/ReadingArea_rsl0-rcl25-esl310-rsm0-rcm25-esm29-rsr0-rcr25-esr100.exr,ReadingArea_rsl0-rcl25-esl310-rsm0-rcm25-esm29-rsr0-rcr25-esr100.npz,,,,,0,106,106,212,,right,red,2.8,983.3925709724426,983.8598990440368,,2,6,5,lightness,readingArea,realistic,75,2023-03-23_16h21.39.166,tripletExp_regina_11082022,2022.2.4,120.01796991470012,
2,14,8,0,0.25,0.298245614035088,0,0.25,3.10526315789474,0,0.25,1.0,ReadingArea_rsl0-rcl25-esl29-rsm0-rcm25-esm310-rsr0-rcr25-esr100,exr/ReadingArea_rsl0-rcl25-esl29-rsm0-rcm25-esm310-rsr0-rcr25-esr100.exr,ReadingArea_rsl0-rcl25-esl29-rsm0-rcm25-esm310-rsr0-rcr25-esr100.npz,,,,,0,107,107,255,,right,red,1.16,985.5499119758606,985.9824669361116,,2,6,5,lightness,readingArea,realistic,75,2023-03-23_16h21.39.166,tripletExp_regina_11082022,2022.2.4,120.01796991470012,
13,4,0,0,0.111111111111111,3.10526315789474,0,0.694444444444444,0.298245614035088,0,0.027777777777778,0.298245614035088,ReadingArea_rsl0-rcl11-esl310-rsm0-rcm69-esm29-rsr0-rcr2-esr29,exr/ReadingArea_rsl0-rcl11-esl310-rsm0-rcm69-esm29-rsr0-rcr2-esr29.exr,ReadingArea_rsl0-rcl11-esl310-rsm0-rcm69-esm29-rsr0-rcr2-esr29.npz,,,,,0,108,108,269,,left,green,1.18,987.6754050254822,988.2243239879608,,2,6,5,lightness,readingArea,realistic,75,2023-03-23_16h21.39.166,tripletExp_regina_11082022,2022.2.4,120.01796991470012,
11,12,1,0,1.0,1.0,0,0.027777777777778,3.10526315789474,0,0.111111111111111,0.298245614035088,ReadingArea_rsl0-rcl100-esl100-rsm0-rcm2-esm310-rsr0-rcr11-esr29,exr/ReadingArea_rsl0-rcl100-esl100-rsm0-rcm2-esm310-rsr0-rcr11-esr29.exr,ReadingArea_rsl0-rcl100-esl100-rsm0-rcm2-esm310-rsr0-rcr11-esr29.npz,,,,,0,109,109,140,,right,red,1.08,989.9261479377748,990.3631348609924,,2,6,5,lightness,readingArea,realistic,75,2023-03-23_16h21.39.166,tripletExp_regina_11082022,2022.2.4,120.01796991470012,
6,11,1,0,0.027777777777778,1.0,0,1.0,1.0,0,0.111111111111111,0.298245614035088,ReadingArea_rsl0-rcl2-esl100-rsm0-rcm100-esm100-rsr0-rcr11-esr29,exr/ReadingArea_rsl0-rcl2-esl100-rsm0-rcm100-esm100-rsr0-rcr11-esr29.exr,ReadingArea_rsl0-rcl2-esl100-rsm0-rcm100-esm100-rsr0-rcr11-esr29.npz,,,,,0,110,110,436,,right,red,2.6,993.8344378471376,994.286448955536,,2,6,5,lightness,readingArea,realistic,75,2023-03-23_16h21.39.166,tripletExp_regina_11082022,2022.2.4,120.01796991470012,
10,12,11,0,0.694444444444444,1.0,0,0.027777777777778,3.10526315789474,0,1.0,1.0,ReadingArea_rsl0-rcl69-esl100-rsm0-rcm2-esm310-rsr0-rcr100-esr100,exr/ReadingArea_rsl0-rcl69-esl100-rsm0-rcm2-esm310-rsr0-rcr100-esr100.exr,ReadingArea_rsl0-rcl69-esl100-rsm0-rcm2-esm310-rsr0-rcr100-esr100.npz,,,,,0,111,111,317,,left,green,1.35,996.01518201828,996.449089050293,,2,6,5,lightness,readingArea,realistic,75,2023-03-23_16h21.39.166,tripletExp_regina_11082022,2022.2.4,120.01796991470012,
1,8,12,0,0.111111111111111,0.298245614035088,0,0.25,1.0,0,0.027777777777778,3.10526315789474,ReadingArea_rsl0-rcl11-esl29-rsm0-rcm25-esm100-rsr0-rcr2-esr310,exr/ReadingArea_rsl0-rcl11-esl29-rsm0-rcm25-esm100-rsr0-rcr2-esr310.exr,ReadingArea_rsl0-rcl11-esl29-rsm0-rcm25-esm100-rsr0-rcr2-esr310.npz,,,,,0,112,112,156,,right,red,1.27,998.1714019775392,,,2,6,5,lightness,readingArea,realistic,75,2023-03-23_16h21.39.166,tripletExp_regina_11082022,2022.2.4,120.01796991470012,
8,4,1,0,0.25,1.0,0,0.694444444444444,0.298245614035088,0,0.111111111111111,0.298245614035088,ReadingArea_rsl0-rcl25-esl100-rsm0-rcm69-esm29-rsr0-rcr11-esr29,exr/ReadingArea_rsl0-rcl25-esl100-rsm0-rcm69-esm29-rsr0-rcr11-esr29.exr,ReadingArea_rsl0-rcl25-esl100-rsm0-rcm69-esm29-rsr0-rcr11-esr29.npz,,,,,0,113,113,286,,left,green,1.11,1000.3537490367888,1000.8002009391784,,2,6,5,lightness,readingArea,realistic,75,2023-03-23_16h21.39.166,tripletExp_regina_11082022,2022.2.4,120.01796991470012,
12,10,6,0,0.027777777777778,3.10526315789474,0,0.694444444444444,1.0,0,0.027777777777778,1.0,ReadingArea_rsl0-rcl2-esl310-rsm0-rcm69-esm100-rsr0-rcr2-esr100,exr/ReadingArea_rsl0-rcl2-esl310-rsm0-rcm69-esm100-rsr0-rcr2-esr100.exr,ReadingArea_rsl0-rcl2-esl310-rsm0-rcm69-esm100-rsr0-rcr2-esr100.npz,,,,,0,114,114,273,,left,green,1.21,1002.5051908493042,,,2,6,5,lightness,readingArea,realistic,75,2023-03-23_16h21.39.166,tripletExp_regina_11082022,2022.2.4,120.01796991470012,
10,9,6,0,0.694444444444444,1.0,0,0.444444444444444,1.0,0,0.027777777777778,1.0,ReadingArea_rsl0-rcl69-esl100-rsm0-rcm44-esm100-rsr0-rcr2-esr100,exr/ReadingArea_rsl0-rcl69-esl100-rsm0-rcm44-esm100-rsr0-rcr2-esr100.exr,ReadingArea_rsl0-rcl69-esl100-rsm0-rcm44-esm100-rsr0-rcr2-esr100.npz,,,,,0,115,115,35,,left,green,1.26,1004.6651940345764,1005.1249129772186,,2,6,5,lightness,readingArea,realistic,75,2023-03-23_16h21.39.166,tripletExp_regina_11082022,2022.2.4,120.01796991470012,
9,4,11,0,0.444444444444444,1.0,0,0.694444444444444,0.298245614035088,0,1.0,1.0,ReadingArea_rsl0-rcl44-esl100-rsm0-rcm69-esm29-rsr0-rcr100-esr100,exr/ReadingArea_rsl0-rcl44-esl100-rsm0-rcm69-esm29-rsr0-rcr100-esr100.exr,ReadingArea_rsl0-rcl44-esl100-rsm0-rcm69-esm29-rsr0-rcr100-esr100.npz,,,,,0,116,116,133,,left,green,1.2,1006.82266497612,,,2,6,5,lightness,readingArea,realistic,75,2023-03-23_16h21.39.166,tripletExp_regina_11082022,2022.2.4,120.01796991470012,
2,14,1,0,0.25,0.298245614035088,0,0.25,3.10526315789474,0,0.111111111111111,0.298245614035088,ReadingArea_rsl0-rcl25-esl29-rsm0-rcm25-esm310-rsr0-rcr11-esr29,exr/ReadingArea_rsl0-rcl25-esl29-rsm0-rcm25-esm310-rsr0-rcr11-esr29.exr,ReadingArea_rsl0-rcl25-esl29-rsm0-rcm25-esm310-rsr0-rcr11-esr29.npz,,,,,0,117,117,579,,left,green,1.32,1008.9925379753112,1009.457321882248,,2,6,5,lightness,readingArea,realistic,75,2023-03-23_16h21.39.166,tripletExp_regina_11082022,2022.2.4,120.01796991470012,
7,10,13,0,0.111111111111111,1.0,0,0.694444444444444,1.0,0,0.111111111111111,3.10526315789474,ReadingArea_rsl0-rcl11-esl100-rsm0-rcm69-esm100-rsr0-rcr11-esr310,exr/ReadingArea_rsl0-rcl11-esl100-rsm0-rcm69-esm100-rsr0-rcr11-esr310.exr,ReadingArea_rsl0-rcl11-esl100-rsm0-rcm69-esm100-rsr0-rcr11-esr310.npz,,,,,0,118,118,446,,right,red,1.41,1011.177232980728,1011.6049230098724,,2,6,5,lightness,readingArea,realistic,75,2023-03-23_16h21.39.166,tripletExp_regina_11082022,2022.2.4,120.01796991470012,
12,11,13,0,0.027777777777778,3.10526315789474,0,1.0,1.0,0,0.111111111111111,3.10526315789474,ReadingArea_rsl0-rcl2-esl310-rsm0-rcm100-esm100-rsr0-rcr11-esr310,exr/ReadingArea_rsl0-rcl2-esl310-rsm0-rcm100-esm100-rsr0-rcr11-esr310.exr,ReadingArea_rsl0-rcl2-esl310-rsm0-rcm100-esm100-rsr0-rcr11-esr310.npz,,,,,0,119,119,151,,right,red,2.27,1015.0830979347228,1015.5447249412535,,2,6,5,lightness,readingArea,realistic,75,2023-03-23_16h21.39.166,tripletExp_regina_11082022,2022.2.4,120.01796991470012,
6,2,5,0,0.027777777777778,1.0,0,0.25,0.298245614035088,0,1.0,0.298245614035088,ReadingArea_rsl0-rcl2-esl100-rsm0-rcm25-esm29-rsr0-rcr100-esr29,exr/ReadingArea_rsl0-rcl2-esl100-rsm0-rcm25-esm29-rsr0-rcr100-esr29.exr,ReadingArea_rsl0-rcl2-esl100-rsm0-rcm25-esm29-rsr0-rcr100-esr29.npz,,,,,0,120,120,504,,left,green,1.45,1017.2354340553284,1017.67959690094,,2,6,5,lightness,readingArea,realistic,75,2023-03-23_16h21.39.166,tripletExp_regina_11082022,2022.2.4,120.01796991470012,
5,14,3,0,1.0,0.298245614035088,0,0.25,3.10526315789474,0,0.444444444444444,0.298245614035088,ReadingArea_rsl0-rcl100-esl29-rsm0-rcm25-esm310-rsr0-rcr44-esr29,exr/ReadingArea_rsl0-rcl100-esl29-rsm0-rcm25-esm310-rsr0-rcr44-esr29.exr,ReadingArea_rsl0-rcl100-esl29-rsm0-rcm25-esm310-rsr0-rcr44-esr29.npz,,,,,0,121,121,93,,left,green,2.72,1021.1417088508606,,,2,6,5,lightness,readingArea,realistic,75,2023-03-23_16h21.39.166,tripletExp_regina_11082022,2022.2.4,120.01796991470012,
8,12,13,0,0.25,1.0,0,0.027777777777778,3.10526315789474,0,0.111111111111111,3.10526315789474,ReadingArea_rsl0-rcl25-esl100-rsm0-rcm2-esm310-rsr0-rcr11-esr310,exr/ReadingArea_rsl0-rcl25-esl100-rsm0-rcm2-esm310-rsr0-rcr11-esr310.exr,ReadingArea_rsl0-rcl25-esl100-rsm0-rcm2-esm310-rsr0-rcr11-esr310.npz,,,,,0,122,122,275,,left,green,2.24,1025.0577840805054,1025.53581905365,,2,6,5,lightness,readingArea,realistic,75,2023-03-23_16h21.39.166,tripletExp_regina_11082022,2022.2.4,120.01796991470012,
0,5,7,0,0.027777777777778,0.298245614035088,0,1.0,0.298245614035088,0,0.111111111111111,1.0,ReadingArea_rsl0-rcl2-esl29-rsm0-rcm100-esm29-rsr0-rcr11-esr100,exr/ReadingArea_rsl0-rcl2-esl29-rsm0-rcm100-esm29-rsr0-rcr11-esr100.exr,ReadingArea_rsl0-rcl2-esl29-rsm0-rcm100-esm29-rsr0-rcr11-esr100.npz,,,,,0,123,123,217,,right,red,1.13,1027.2420020103457,1027.6832070350647,,2,6,5,lightness,readingArea,realistic,75,2023-03-23_16h21.39.166,tripletExp_regina_11082022,2022.2.4,120.01796991470012,
4,1,3,0,0.694444444444444,0.298245614035088,0,0.111111111111111,0.298245614035088,0,0.444444444444444,0.298245614035088,ReadingArea_rsl0-rcl69-esl29-rsm0-rcm11-esm29-rsr0-rcr44-esr29,exr/ReadingArea_rsl0-rcl69-esl29-rsm0-rcm11-esm29-rsr0-rcr44-esr29.exr,ReadingArea_rsl0-rcl69-esl29-rsm0-rcm11-esm29-rsr0-rcr44-esr29.npz,,,,,0,124,124,70,,right,red,2.66,1031.185749053955,1031.6536309719086,,2,6,5,lightness,readingArea,realistic,75,2023-03-23_16h21.39.166,tripletExp_regina_11082022,2022.2.4,120.01796991470012,
3,7,8,0,0.444444444444444,0.298245614035088,0,0.111111111111111,1.0,0,0.25,1.0,ReadingArea_rsl0-rcl44-esl29-rsm0-rcm11-esm100-rsr0-rcr25-esr100,exr/ReadingArea_rsl0-rcl44-esl29-rsm0-rcm11-esm100-rsr0-rcr25-esr100.exr,ReadingArea_rsl0-rcl44-esl29-rsm0-rcm11-esm100-rsr0-rcr25-esr100.npz,,,,,0,125,125,246,,left,green,1.94,1035.1212120056152,1035.5755999088287,,2,6,5,lightness,readingArea,realistic,75,2023-03-23_16h21.39.166,tripletExp_regina_11082022,2022.2.4,120.01796991470012,
1,14,8,0,0.111111111111111,0.298245614035088,0,0.25,3.10526315789474,0,0.25,1.0,ReadingArea_rsl0-rcl11-esl29-rsm0-rcm25-esm310-rsr0-rcr25-esr100,exr/ReadingArea_rsl0-rcl11-esl29-rsm0-rcm25-esm310-rsr0-rcr25-esr100.exr,ReadingArea_rsl0-rcl11-esl29-rsm0-rcm25-esm310-rsr0-rcr25-esr100.npz,,,,,0,126,126,108,,right,red,2.57,1039.0571539402008,1039.519327878952,,2,6,5,lightness,readingArea,realistic,75,2023-03-23_16h21.39.166,tripletExp_regina_11082022,2022.2.4,120.01796991470012,
10,0,8,0,0.694444444444444,1.0,0,0.027777777777778,0.298245614035088,0,0.25,1.0,ReadingArea_rsl0-rcl69-esl100-rsm0-rcm2-esm29-rsr0-rcr25-esr100,exr/ReadingArea_rsl0-rcl69-esl100-rsm0-rcm2-esm29-rsr0-rcr25-esr100.exr,ReadingArea_rsl0-rcl69-esl100-rsm0-rcm2-esm29-rsr0-rcr25-esr100.npz,,,,,0,127,127,552,,right,red,2.67,1042.975331068039,1043.4080798625946,,2,6,5,lightness,readingArea,realistic,75,2023-03-23_16h21.39.166,tripletExp_regina_11082022,2022.2.4,120.01796991470012,
11,6,8,0,1.0,1.0,0,0.027777777777778,1.0,0,0.25,1.0,ReadingArea_rsl0-rcl100-esl100-rsm0-rcm2-esm100-rsr0-rcr25-esr100,exr/ReadingArea_rsl0-rcl100-esl100-rsm0-rcm2-esm100-rsr0-rcr25-esr100.exr,ReadingArea_rsl0-rcl100-esl100-rsm0-rcm2-esm100-rsr0-rcr25-esr100.npz,,,,,0,128,128,599,,right,red,2.28,1046.878798007965,,,2,6,5,lightness,readingArea,realistic,75,2023-03-23_16h21.39.166,tripletExp_regina_11082022,2022.2.4,120.01796991470012,
2,5,14,0,0.25,0.298245614035088,0,1.0,0.298245614035088,0,0.25,3.10526315789474,ReadingArea_rsl0-rcl25-esl29-rsm0-rcm100-esm29-rsr0-rcr25-esr310,exr/ReadingArea_rsl0-rcl25-esl29-rsm0-rcm100-esm29-rsr0-rcr25-esr310.exr,ReadingArea_rsl0-rcl25-esl29-rsm0-rcm100-esm29-rsr0-rcr25-esr310.npz,,,,,0,129,129,390,,right,red,1.27,1049.0277950763702,1049.4752659797668,,2,6,5,lightness,readingArea,realistic,75,2023-03-23_16h21.39.166,tripletExp_regina_11082022,2022.2.4,120.01796991470012,
0,9,11,0,0.027777777777778,0.298245614035088,0,0.444444444444444,1.0,0,1.0,1.0,ReadingArea_rsl0-rcl2-esl29-rsm0-rcm44-esm100-rsr0-rcr100-esr100,exr/ReadingArea_rsl0-rcl2-esl29-rsm0-rcm44-esm100-rsr0-rcr100-esr100.exr,ReadingArea_rsl0-rcl2-esl29-rsm0-rcm44-esm100-rsr0-rcr100-esr100.npz,,,,,0,130,130,448,,right,red,1.35,1051.1721019744873,1051.6390109062197,,2,6,5,lightness,readingArea,realistic,75,2023-03-23_16h21.39.166,tripletExp_regina_11082022,2022.2.4,120.01796991470012,
4,5,8,0,0.694444444444444,0.298245614035088,0,1.0,0.298245614035088,0,0.25,1.0,ReadingArea_rsl0-rcl69-esl29-rsm0-rcm100-esm29-rsr0-rcr25-esr100,exr/ReadingArea_rsl0-rcl69-esl29-rsm0-rcm100-esm29-rsr0-rcr25-esr100.exr,ReadingArea_rsl0-rcl69-esl29-rsm0-rcm100-esm29-rsr0-rcr25-esr100.npz,,,,,0,131,131,54,,left,green,3.22,1055.1148579120636,1055.5707869529724,,2,6,5,lightness,readingArea,realistic,75,2023-03-23_16h21.39.166,tripletExp_regina_11082022,2022.2.4,120.01796991470012,
11,8,10,0,1.0,1.0,0,0.25,1.0,0,0.694444444444444,1.0,ReadingArea_rsl0-rcl100-esl100-rsm0-rcm25-esm100-rsr0-rcr69-esr100,exr/ReadingArea_rsl0-rcl100-esl100-rsm0-rcm25-esm100-rsr0-rcr69-esr100.exr,ReadingArea_rsl0-rcl100-esl100-rsm0-rcm25-esm100-rsr0-rcr69-esr100.npz,,,,,0,132,132,67,,right,red,1.38,1057.2613830566406,1057.7007150650024,,2,6,5,lightness,readingArea,realistic,75,2023-03-23_16h21.39.166,tripletExp_regina_11082022,2022.2.4,120.01796991470012,
13,6,1,0,0.111111111111111,3.10526315789474,0,0.027777777777778,1.0,0,0.111111111111111,0.298245614035088,ReadingArea_rsl0-rcl11-esl310-rsm0-rcm2-esm100-rsr0-rcr11-esr29,exr/ReadingArea_rsl0-rcl11-esl310-rsm0-rcm2-esm100-rsr0-rcr11-esr29.exr,ReadingArea_rsl0-rcl11-esl310-rsm0-rcm2-esm100-rsr0-rcr11-esr29.npz,,,,,0,133,133,486,,right,red,1.27,1059.4000098705292,1059.8286049365995,,2,6,5,lightness,readingArea,realistic,75,2023-03-23_16h21.39.166,tripletExp_regina_11082022,2022.2.4,120.01796991470012,
10,0,14,0,0.694444444444444,1.0,0,0.027777777777778,0.298245614035088,0,0.25,3.10526315789474,ReadingArea_rsl0-rcl69-esl100-rsm0-rcm2-esm29-rsr0-rcr25-esr310,exr/ReadingArea_rsl0-rcl69-esl100-rsm0-rcm2-esm29-rsr0-rcr25-esr310.exr,ReadingArea_rsl0-rcl69-esl100-rsm0-rcm2-esm29-rsr0-rcr25-esr310.npz,,,,,0,134,134,95,,right,red,2.17,1063.2886929512024,1063.7511229515076,,2,6,5,lightness,readingArea,realistic,75,2023-03-23_16h21.39.166,tripletExp_regina_11082022,2022.2.4,120.01796991470012,
1,8,5,0,0.111111111111111,0.298245614035088,0,0.25,1.0,0,1.0,0.298245614035088,ReadingArea_rsl0-rcl11-esl29-rsm0-rcm25-esm100-rsr0-rcr100-esr29,exr/ReadingArea_rsl0-rcl11-esl29-rsm0-rcm25-esm100-rsr0-rcr100-esr29.exr,ReadingArea_rsl0-rcl11-esl29-rsm0-rcm25-esm100-rsr0-rcr100-esr29.npz,,,,,0,135,135,445,,right,red,1.05,1065.456804037094,,,2,6,5,lightness,readingArea,realistic,75,2023-03-23_16h21.39.166,tripletExp_regina_11082022,2022.2.4,120.01796991470012,
2,1,10,0,0.25,0.298245614035088,0,0.111111111111111,0.298245614035088,0,0.694444444444444,1.0,ReadingArea_rsl0-rcl25-esl29-rsm0-rcm11-esm29-rsr0-rcr69-esr100,exr/ReadingArea_rsl0-rcl25-esl29-rsm0-rcm11-esm29-rsr0-rcr69-esr100.exr,ReadingArea_rsl0-rcl25-esl29-rsm0-rcm11-esm29-rsr0-rcr69-esr100.npz,,,,,0,136,136,585,,left,green,0.99,1067.606791973114,1068.0429480075836,,2,6,5,lightness,readingArea,realistic,75,2023-03-23_16h21.39.166,tripletExp_regina_11082022,2022.2.4,120.01796991470012,
4,11,12,0,0.694444444444444,0.298245614035088,0,1.0,1.0,0,0.027777777777778,3.10526315789474,ReadingArea_rsl0-rcl69-esl29-rsm0-rcm100-esm100-rsr0-rcr2-esr310,exr/ReadingArea_rsl0-rcl69-esl29-rsm0-rcm100-esm100-rsr0-rcr2-esr310.exr,ReadingArea_rsl0-rcl69-esl29-rsm0-rcm100-esm100-rsr0-rcr2-esr310.npz,,,,,0,137,137,109,,left,green,1.39,1069.7367589473724,1070.1809709072113,,2,6,5,lightness,readingArea,realistic,75,2023-03-23_16h21.39.166,tripletExp_regina_11082022,2022.2.4,120.01796991470012,
6,12,3,0,0.027777777777778,1.0,0,0.027777777777778,3.10526315789474,0,0.444444444444444,0.298245614035088,ReadingArea_rsl0-rcl2-esl100-rsm0-rcm2-esm310-rsr0-rcr44-esr29,exr/ReadingArea_rsl0-rcl2-esl100-rsm0-rcm2-esm310-rsr0-rcr44-esr29.exr,ReadingArea_rsl0-rcl2-esl100-rsm0-rcm2-esm310-rsr0-rcr44-esr29.npz,,,,,0,138,138,284,,left,green,2.6,1073.6721949577332,1074.1114978790283,,2,6,5,lightness,readingArea,realistic,75,2023-03-23_16h21.39.166,tripletExp_regina_11082022,2022.2.4,120.01796991470012,
11,7,9,0,1.0,1.0,0,0.111111111111111,1.0,0,0.444444444444444,1.0,ReadingArea_rsl0-rcl100-esl100-rsm0-rcm11-esm100-rsr0-rcr44-esr100,exr/ReadingArea_rsl0-rcl100-esl100-rsm0-rcm11-esm100-rsr0-rcr44-esr100.exr,ReadingArea_rsl0-rcl100-esl100-rsm0-rcm11-esm100-rsr0-rcr44-esr100.npz,,,,,0,139,139,521,,right,red,1.15,1075.8213119506836,1076.320114850998,,2,6,5,lightness,readingArea,realistic,75,2023-03-23_16h21.39.166,tripletExp_regina_11082022,2022.2.4,120.01796991470012,
5,2,14,0,1.0,0.298245614035088,0,0.25,0.298245614035088,0,0.25,3.10526315789474,ReadingArea_rsl0-rcl100-esl29-rsm0-rcm25-esm29-rsr0-rcr25-esr310,exr/ReadingArea_rsl0-rcl100-esl29-rsm0-rcm25-esm29-rsr0-rcr25-esr310.exr,ReadingArea_rsl0-rcl100-esl29-rsm0-rcm25-esm29-rsr0-rcr25-esr310.npz,,,,,0,140,140,462,,left,green,1.4,1078.0399949550629,1078.503566980362,,2,6,5,lightness,readingArea,realistic,75,2023-03-23_16h21.39.166,tripletExp_regina_11082022,2022.2.4,120.01796991470012,
12,6,14,0,0.027777777777778,3.10526315789474,0,0.027777777777778,1.0,0,0.25,3.10526315789474,ReadingArea_rsl0-rcl2-esl310-rsm0-rcm2-esm100-rsr0-rcr25-esr310,exr/ReadingArea_rsl0-rcl2-esl310-rsm0-rcm2-esm100-rsr0-rcr25-esr310.exr,ReadingArea_rsl0-rcl2-esl310-rsm0-rcm2-esm100-rsr0-rcr25-esr310.npz,,,,,0,141,141,218,,left,green,1.5,1080.2006180286407,,,2,6,5,lightness,readingArea,realistic,75,2023-03-23_16h21.39.166,tripletExp_regina_11082022,2022.2.4,120.01796991470012,
2,6,13,0,0.25,0.298245614035088,0,0.027777777777778,1.0,0,0.111111111111111,3.10526315789474,ReadingArea_rsl0-rcl25-esl29-rsm0-rcm2-esm100-rsr0-rcr11-esr310,exr/ReadingArea_rsl0-rcl25-esl29-rsm0-rcm2-esm100-rsr0-rcr11-esr310.exr,ReadingArea_rsl0-rcl25-esl29-rsm0-rcm2-esm100-rsr0-rcr11-esr310.npz,,,,,0,142,142,388,,left,green,1.39,1082.3835880756378,1082.8312509059906,,2,6,5,lightness,readingArea,realistic,75,2023-03-23_16h21.39.166,tripletExp_regina_11082022,2022.2.4,120.01796991470012,
6,11,8,0,0.027777777777778,1.0,0,1.0,1.0,0,0.25,1.0,ReadingArea_rsl0-rcl2-esl100-rsm0-rcm100-esm100-rsr0-rcr25-esr100,exr/ReadingArea_rsl0-rcl2-esl100-rsm0-rcm100-esm100-rsr0-rcr25-esr100.exr,ReadingArea_rsl0-rcl2-esl100-rsm0-rcm100-esm100-rsr0-rcr25-esr100.npz,,,,,0,143,143,176,,right,red,1.45,1084.5293390750885,1084.997302055359,,2,6,5,lightness,readingArea,realistic,75,2023-03-23_16h21.39.166,tripletExp_regina_11082022,2022.2.4,120.01796991470012,
13,0,12,0,0.111111111111111,3.10526315789474,0,0.027777777777778,0.298245614035088,0,0.027777777777778,3.10526315789474,ReadingArea_rsl0-rcl11-esl310-rsm0-rcm2-esm29-rsr0-rcr2-esr310,exr/ReadingArea_rsl0-rcl11-esl310-rsm0-rcm2-esm29-rsr0-rcr2-esr310.exr,ReadingArea_rsl0-rcl11-esl310-rsm0-rcm2-esm29-rsr0-rcr2-esr310.npz,,,,,0,144,144,56,,right,red,2.38,1088.4507598876953,1088.9120769500732,,2,6,5,lightness,readingArea,realistic,75,2023-03-23_16h21.39.166,tripletExp_regina_11082022,2022.2.4,120.01796991470012,
3,11,2,0,0.444444444444444,0.298245614035088,0,1.0,1.0,0,0.25,0.298245614035088,ReadingArea_rsl0-rcl44-esl29-rsm0-rcm100-esm100-rsr0-rcr25-esr29,exr/ReadingArea_rsl0-rcl44-esl29-rsm0-rcm100-esm100-rsr0-rcr25-esr29.exr,ReadingArea_rsl0-rcl44-esl29-rsm0-rcm100-esm100-rsr0-rcr25-esr29.npz,,,,,0,145,145,220,,left,green,1.19,1090.6042430400848,1091.0701038837433,,2,6,5,lightness,readingArea,realistic,75,2023-03-23_16h21.39.166,tripletExp_regina_11082022,2022.2.4,120.01796991470012,
4,12,7,0,0.694444444444444,0.298245614035088,0,0.027777777777778,3.10526315789474,0,0.111111111111111,1.0,ReadingArea_rsl0-rcl69-esl29-rsm0-rcm2-esm310-rsr0-rcr11-esr100,exr/ReadingArea_rsl0-rcl69-esl29-rsm0-rcm2-esm310-rsr0-rcr11-esr100.exr,ReadingArea_rsl0-rcl69-esl29-rsm0-rcm2-esm310-rsr0-rcr11-esr100.npz,,,,,0,146,146,112,,right,red,1.54,1092.762718915939,1093.2038538455963,,2,6,5,lightness,readingArea,realistic,75,2023-03-23_16h21.39.166,tripletExp_regina_11082022,2022.2.4,120.01796991470012,
1,12,10,0,0.111111111111111,0.298245614035088,0,0.027777777777778,3.10526315789474,0,0.694444444444444,1.0,ReadingArea_rsl0-rcl11-esl29-rsm0-rcm2-esm310-rsr0-rcr69-esr100,exr/ReadingArea_rsl0-rcl11-esl29-rsm0-rcm2-esm310-rsr0-rcr69-esr100.exr,ReadingArea_rsl0-rcl11-esl29-rsm0-rcm2-esm310-rsr0-rcr69-esr100.npz,,,,,0,147,147,567,,left,green,1.23,1094.9043328762054,1095.3665959835052,,2,6,5,lightness,readingArea,realistic,75,2023-03-23_16h21.39.166,tripletExp_regina_11082022,2022.2.4,120.01796991470012,
14,5,9,0,0.25,3.10526315789474,0,1.0,0.298245614035088,0,0.444444444444444,1.0,ReadingArea_rsl0-rcl25-esl310-rsm0-rcm100-esm29-rsr0-rcr44-esr100,exr/ReadingArea_rsl0-rcl25-esl310-rsm0-rcm100-esm29-rsr0-rcr44-esr100.exr,ReadingArea_rsl0-rcl25-esl310-rsm0-rcm100-esm29-rsr0-rcr44-esr100.npz,,,,,0,148,148,482,,right,red,2.33,1098.839038848877,1099.3027429580688,,2,6,5,lightness,readingArea,realistic,75,2023-03-23_16h21.39.166,tripletExp_regina_11082022,2022.2.4,120.01796991470012,
11,5,3,0,1.0,1.0,0,1.0,0.298245614035088,0,0.444444444444444,0.298245614035088,ReadingArea_rsl0-rcl100-esl100-rsm0-rcm100-esm29-rsr0-rcr44-esr29,exr/ReadingArea_rsl0-rcl100-esl100-rsm0-rcm100-esm29-rsr0-rcr44-esr29.exr,ReadingArea_rsl0-rcl100-esl100-rsm0-rcm100-esm29-rsr0-rcr44-esr29.npz,,,,,0,149,149,172,,right,red,2.5,1102.7600119113922,1102.961405992508,,2,6,5,lightness,readingArea,realistic,75,2023-03-23_16h21.39.166,tripletExp_regina_11082022,2022.2.4,120.01796991470012,
7,12,1,0,0.111111111111111,1.0,0,0.027777777777778,3.10526315789474,0,0.111111111111111,0.298245614035088,ReadingArea_rsl0-rcl11-esl100-rsm0-rcm2-esm310-rsr0-rcr11-esr29,exr/ReadingArea_rsl0-rcl11-esl100-rsm0-rcm2-esm310-rsr0-rcr11-esr29.exr,ReadingArea_rsl0-rcl11-esl100-rsm0-rcm2-esm310-rsr0-rcr11-esr29.npz,,,,,0,150,150,20,,right,red,2.58,1145.643455028534,1146.080365896225,,3,6,5,lightness,readingArea,realistic,75,2023-03-23_16h21.39.166,tripletExp_regina_11082022,2022.2.4,120.01796991470012,
5,8,2,0,1.0,0.298245614035088,0,0.25,1.0,0,0.25,0.298245614035088,ReadingArea_rsl0-rcl100-esl29-rsm0-rcm25-esm100-rsr0-rcr25-esr29,exr/ReadingArea_rsl0-rcl100-esl29-rsm0-rcm25-esm100-rsr0-rcr25-esr29.exr,ReadingArea_rsl0-rcl100-esl29-rsm0-rcm25-esm100-rsr0-rcr25-esr29.npz,,,,,0,151,151,65,,right,red,4.21,1151.3174078464508,1151.7849509716034,,3,6,5,lightness,readingArea,realistic,75,2023-03-23_16h21.39.166,tripletExp_regina_11082022,2022.2.4,120.01796991470012,
14,2,0,0,0.25,3.10526315789474,0,0.25,0.298245614035088,0,0.027777777777778,0.298245614035088,ReadingArea_rsl0-rcl25-esl310-rsm0-rcm25-esm29-rsr0-rcr2-esr29,exr/ReadingArea_rsl0-rcl25-esl310-rsm0-rcm25-esm29-rsr0-rcr2-esr29.exr,ReadingArea_rsl0-rcl25-esl310-rsm0-rcm25-esm29-rsr0-rcr2-esr29.npz,,,,,0,152,152,460,,left,green,2.81,1155.2812728881836,1155.7664470672607,,3,6,5,lightness,readingArea,realistic,75,2023-03-23_16h21.39.166,tripletExp_regina_11082022,2022.2.4,120.01796991470012,
1,6,11,0,0.111111111111111,0.298245614035088,0,0.027777777777778,1.0,0,1.0,1.0,ReadingArea_rsl0-rcl11-esl29-rsm0-rcm2-esm100-rsr0-rcr100-esr100,exr/ReadingArea_rsl0-rcl11-esl29-rsm0-rcm2-esm100-rsr0-rcr100-esr100.exr,ReadingArea_rsl0-rcl11-esl29-rsm0-rcm2-esm100-rsr0-rcr100-esr100.npz,,,,,0,153,153,39,,left,green,0.98,1157.469701051712,1157.9662730693815,,3,6,5,lightness,readingArea,realistic,75,2023-03-23_16h21.39.166,tripletExp_regina_11082022,2022.2.4,120.01796991470012,
14,6,5,0,0.25,3.10526315789474,0,0.027777777777778,1.0,0,1.0,0.298245614035088,ReadingArea_rsl0-rcl25-esl310-rsm0-rcm2-esm100-rsr0-rcr100-esr29,exr/ReadingArea_rsl0-rcl25-esl310-rsm0-rcm2-esm100-rsr0-rcr100-esr29.exr,ReadingArea_rsl0-rcl25-esl310-rsm0-rcm2-esm100-rsr0-rcr100-esr29.npz,,,,,0,154,154,297,,right,red,2.23,1161.4295229911804,1161.8892469406128,,3,6,5,lightness,readingArea,realistic,75,2023-03-23_16h21.39.166,tripletExp_regina_11082022,2022.2.4,120.01796991470012,
1,5,7,0,0.111111111111111,0.298245614035088,0,1.0,0.298245614035088,0,0.111111111111111,1.0,ReadingArea_rsl0-rcl11-esl29-rsm0-rcm100-esm29-rsr0-rcr11-esr100,exr/ReadingArea_rsl0-rcl11-esl29-rsm0-rcm100-esm29-rsr0-rcr11-esr100.exr,ReadingArea_rsl0-rcl11-esl29-rsm0-rcm100-esm29-rsr0-rcr11-esr100.npz,,,,,0,155,155,197,,right,red,2.25,1165.3455259799955,1165.80242395401,,3,6,5,lightness,readingArea,realistic,75,2023-03-23_16h21.39.166,tripletExp_regina_11082022,2022.2.4,120.01796991470012,
4,14,1,0,0.694444444444444,0.298245614035088,0,0.25,3.10526315789474,0,0.111111111111111,0.298245614035088,ReadingArea_rsl0-rcl69-esl29-rsm0-rcm25-esm310-rsr0-rcr11-esr29,exr/ReadingArea_rsl0-rcl69-esl29-rsm0-rcm25-esm310-rsr0-rcr11-esr29.exr,ReadingArea_rsl0-rcl69-esl29-rsm0-rcm25-esm310-rsr0-rcr11-esr29.npz,,,,,0,156,156,477,,left,green,1.11,1167.5030648708344,1167.9571058750153,,3,6,5,lightness,readingArea,realistic,75,2023-03-23_16h21.39.166,tripletExp_regina_11082022,2022.2.4,120.01796991470012,
11,7,8,0,1.0,1.0,0,0.111111111111111,1.0,0,0.25,1.0,ReadingArea_rsl0-rcl100-esl100-rsm0-rcm11-esm100-rsr0-rcr25-esr100,exr/ReadingArea_rsl0-rcl100-esl100-rsm0-rcm11-esm100-rsr0-rcr25-esr100.exr,ReadingArea_rsl0-rcl100-esl100-rsm0-rcm11-esm100-rsr0-rcr25-esr100.npz,,,,,0,157,157,37,,right,red,1.33,1169.664619922638,1170.118775844574,,3,6,5,lightness,readingArea,realistic,75,2023-03-23_16h21.39.166,tripletExp_regina_11082022,2022.2.4,120.01796991470012,
4,0,1,0,0.694444444444444,0.298245614035088,0,0.027777777777778,0.298245614035088,0,0.111111111111111,0.298245614035088,ReadingArea_rsl0-rcl69-esl29-rsm0-rcm2-esm29-rsr0-rcr11-esr29,exr/ReadingArea_rsl0-rcl69-esl29-rsm0-rcm2-esm29-rsr0-rcr11-esr29.exr,ReadingArea_rsl0-rcl69-esl29-rsm0-rcm2-esm29-rsr0-rcr11-esr29.npz,,,,,0,158,158,173,,right,red,1.05,1171.8098549842834,1172.2692370414734,,3,6,5,lightness,readingArea,realistic,75,2023-03-23_16h21.39.166,tripletExp_regina_11082022,2022.2.4,120.01796991470012,
5,9,0,0,1.0,0.298245614035088,0,0.444444444444444,1.0,0,0.027777777777778,0.298245614035088,ReadingArea_rsl0-rcl100-esl29-rsm0-rcm44-esm100-rsr0-rcr2-esr29,exr/ReadingArea_rsl0-rcl100-esl29-rsm0-rcm44-esm100-rsr0-rcr2-esr29.exr,ReadingArea_rsl0-rcl100-esl29-rsm0-rcm44-esm100-rsr0-rcr2-esr29.npz,,,,,0,159,159,575,,left,green,2.33,1175.7470400333405,1176.1962599754331,,3,6,5,lightness,readingArea,realistic,75,2023-03-23_16h21.39.166,tripletExp_regina_11082022,2022.2.4,120.01796991470012,
2,4,13,0,0.25,0.298245614035088,0,0.694444444444444,0.298245614035088,0,0.111111111111111,3.10526315789474,ReadingArea_rsl0-rcl25-esl29-rsm0-rcm69-esm29-rsr0-rcr11-esr310,exr/ReadingArea_rsl0-rcl25-esl29-rsm0-rcm69-esm29-rsr0-rcr11-esr310.exr,ReadingArea_rsl0-rcl25-esl29-rsm0-rcm69-esm29-rsr0-rcr11-esr310.npz,,,,,0,160,160,325,,right,red,1.15,1177.89653301239,1178.501435995102,,3,6,5,lightness,readingArea,realistic,75,2023-03-23_16h21.39.166,tripletExp_regina_11082022,2022.2.4,120.01796991470012,
4,13,1,0,0.694444444444444,0.298245614035088,0,0.111111111111111,3.10526315789474,0,0.111111111111111,0.298245614035088,ReadingArea_rsl0-rcl69-esl29-rsm0-rcm11-esm310-rsr0-rcr11-esr29,exr/ReadingArea_rsl0-rcl69-esl29-rsm0-rcm11-esm310-rsr0-rcr11-esr29.exr,ReadingArea_rsl0-rcl69-esl29-rsm0-rcm11-esm310-rsr0-rcr11-esr29.npz,,,,,0,161,161,192,,left,green,1.34,1180.1947638988495,1180.7663960456848,,3,6,5,lightness,readingArea,realistic,75,2023-03-23_16h21.39.166,tripletExp_regina_11082022,2022.2.4,120.01796991470012,
4,0,3,0,0.694444444444444,0.298245614035088,0,0.027777777777778,0.298245614035088,0,0.444444444444444,0.298245614035088,ReadingArea_rsl0-rcl69-esl29-rsm0-rcm2-esm29-rsr0-rcr44-esr29,exr/ReadingArea_rsl0-rcl69-esl29-rsm0-rcm2-esm29-rsr0-rcr44-esr29.exr,ReadingArea_rsl0-rcl69-esl29-rsm0-rcm2-esm29-rsr0-rcr44-esr29.npz,,,,,0,162,162,88,,right,red,1.86,1182.4560358524325,1182.911124944687,,3,6,5,lightness,readingArea,realistic,75,2023-03-23_16h21.39.166,tripletExp_regina_11082022,2022.2.4,120.01796991470012,
11,1,4,0,1.0,1.0,0,0.111111111111111,0.298245614035088,0,0.694444444444444,0.298245614035088,ReadingArea_rsl0-rcl100-esl100-rsm0-rcm11-esm29-rsr0-rcr69-esr29,exr/ReadingArea_rsl0-rcl100-esl100-rsm0-rcm11-esm29-rsr0-rcr69-esr29.exr,ReadingArea_rsl0-rcl100-esl100-rsm0-rcm11-esm29-rsr0-rcr69-esr29.npz,,,,,0,163,163,110,,right,red,1.5,1184.6013579368591,1185.0737030506134,,3,6,5,lightness,readingArea,realistic,75,2023-03-23_16h21.39.166,tripletExp_regina_11082022,2022.2.4,120.01796991470012,
14,2,1,0,0.25,3.10526315789474,0,0.25,0.298245614035088,0,0.111111111111111,0.298245614035088,ReadingArea_rsl0-rcl25-esl310-rsm0-rcm25-esm29-rsr0-rcr11-esr29,exr/ReadingArea_rsl0-rcl25-esl310-rsm0-rcm25-esm29-rsr0-rcr11-esr29.exr,ReadingArea_rsl0-rcl25-esl310-rsm0-rcm25-esm29-rsr0-rcr11-esr29.npz,,,,,0,164,164,321,,right,red,1.13,1186.7638590335846,1187.2148299217224,,3,6,5,lightness,readingArea,realistic,75,2023-03-23_16h21.39.166,tripletExp_regina_11082022,2022.2.4,120.01796991470012,
2,14,7,0,0.25,0.298245614035088,0,0.25,3.10526315789474,0,0.111111111111111,1.0,ReadingArea_rsl0-rcl25-esl29-rsm0-rcm25-esm310-rsr0-rcr11-esr100,exr/ReadingArea_rsl0-rcl25-esl29-rsm0-rcm25-esm310-rsr0-rcr11-esr100.exr,ReadingArea_rsl0-rcl25-esl29-rsm0-rcm25-esm310-rsr0-rcr11-esr100.npz,,,,,0,165,165,310,,right,red,2.84,1190.6817500591278,1191.1523640155792,,3,6,5,lightness,readingArea,realistic,75,2023-03-23_16h21.39.166,tripletExp_regina_11082022,2022.2.4,120.01796991470012,
14,10,5,0,0.25,3.10526315789474,0,0.694444444444444,1.0,0,1.0,0.298245614035088,ReadingArea_rsl0-rcl25-esl310-rsm0-rcm69-esm100-rsr0-rcr100-esr29,exr/ReadingArea_rsl0-rcl25-esl310-rsm0-rcm69-esm100-rsr0-rcr100-esr29.exr,ReadingArea_rsl0-rcl25-esl310-rsm0-rcm69-esm100-rsr0-rcr100-esr29.npz,,,,,0,166,166,96,,left,green,1.03,1192.850879907608,1193.2992279529572,,3,6,5,lightness,readingArea,realistic,75,2023-03-23_16h21.39.166,tripletExp_regina_11082022,2022.2.4,120.01796991470012,
13,10,9,0,0.111111111111111,3.10526315789474,0,0.694444444444444,1.0,0,0.444444444444444,1.0,ReadingArea_rsl0-rcl11-esl310-rsm0-rcm69-esm100-rsr0-rcr44-esr100,exr/ReadingArea_rsl0-rcl11-esl310-rsm0-rcm69-esm100-rsr0-rcr44-esr100.exr,ReadingArea_rsl0-rcl11-esl310-rsm0-rcm69-esm100-rsr0-rcr44-esr100.npz,,,,,0,167,167,330,,right,red,1.39,1194.9937179088593,,,3,6,5,lightness,readingArea,realistic,75,2023-03-23_16h21.39.166,tripletExp_regina_11082022,2022.2.4,120.01796991470012,
8,9,13,0,0.25,1.0,0,0.444444444444444,1.0,0,0.111111111111111,3.10526315789474,ReadingArea_rsl0-rcl25-esl100-rsm0-rcm44-esm100-rsr0-rcr11-esr310,exr/ReadingArea_rsl0-rcl25-esl100-rsm0-rcm44-esm100-rsr0-rcr11-esr310.exr,ReadingArea_rsl0-rcl25-esl100-rsm0-rcm44-esm100-rsr0-rcr11-esr310.npz,,,,,0,168,168,519,,right,red,3.15,1198.9379198551178,1199.4084918498993,,3,6,5,lightness,readingArea,realistic,75,2023-03-23_16h21.39.166,tripletExp_regina_11082022,2022.2.4,120.01796991470012,
3,8,7,0,0.444444444444444,0.298245614035088,0,0.25,1.0,0,0.111111111111111,1.0,ReadingArea_rsl0-rcl44-esl29-rsm0-rcm25-esm100-rsr0-rcr11-esr100,exr/ReadingArea_rsl0-rcl44-esl29-rsm0-rcm25-esm100-rsr0-rcr11-esr100.exr,ReadingArea_rsl0-rcl44-esl29-rsm0-rcm25-esm100-rsr0-rcr11-esr100.npz,,,,,0,169,169,484,,left,green,3.02,1202.8658530712128,1203.3266370296478,,3,6,5,lightness,readingArea,realistic,75,2023-03-23_16h21.39.166,tripletExp_regina_11082022,2022.2.4,120.01796991470012,
12,3,11,0,0.027777777777778,3.10526315789474,0,0.444444444444444,0.298245614035088,0,1.0,1.0,ReadingArea_rsl0-rcl2-esl310-rsm0-rcm44-esm29-rsr0-rcr100-esr100,exr/ReadingArea_rsl0-rcl2-esl310-rsm0-rcm44-esm29-rsr0-rcr100-esr100.exr,ReadingArea_rsl0-rcl2-esl310-rsm0-rcm44-esm29-rsr0-rcr100-esr100.npz,,,,,0,170,170,83,,left,green,1.31,1205.0204889774325,,,3,6,5,lightness,readingArea,realistic,75,2023-03-23_16h21.39.166,tripletExp_regina_11082022,2022.2.4,120.01796991470012,
13,11,8,0,0.111111111111111,3.10526315789474,0,1.0,1.0,0,0.25,1.0,ReadingArea_rsl0-rcl11-esl310-rsm0-rcm100-esm100-rsr0-rcr25-esr100,exr/ReadingArea_rsl0-rcl11-esl310-rsm0-rcm100-esm100-rsr0-rcr25-esr100.exr,ReadingArea_rsl0-rcl11-esl310-rsm0-rcm100-esm100-rsr0-rcr25-esr100.npz,,,,,0,171,171,410,,left,green,2.71,1208.9480350017548,1209.4265630245209,,3,6,5,lightness,readingArea,realistic,75,2023-03-23_16h21.39.166,tripletExp_regina_11082022,2022.2.4,120.01796991470012,
1,3,12,0,0.111111111111111,0.298245614035088,0,0.444444444444444,0.298245614035088,0,0.027777777777778,3.10526315789474,ReadingArea_rsl0-rcl11-esl29-rsm0-rcm44-esm29-rsr0-rcr2-esr310,exr/ReadingArea_rsl0-rcl11-esl29-rsm0-rcm44-esm29-rsr0-rcr2-esr310.exr,ReadingArea_rsl0-rcl11-esl29-rsm0-rcm44-esm29-rsr0-rcr2-esr310.npz,,,,,0,172,172,323,,right,red,3.04,1212.9102718830109,1213.3814079761505,,3,6,5,lightness,readingArea,realistic,75,2023-03-23_16h21.39.166,tripletExp_regina_11082022,2022.2.4,120.01796991470012,
8,10,9,0,0.25,1.0,0,0.694444444444444,1.0,0,0.444444444444444,1.0,ReadingArea_rsl0-rcl25-esl100-rsm0-rcm69-esm100-rsr0-rcr44-esr100,exr/ReadingArea_rsl0-rcl25-esl100-rsm0-rcm69-esm100-rsr0-rcr44-esr100.exr,ReadingArea_rsl0-rcl25-esl100-rsm0-rcm69-esm100-rsr0-rcr44-esr100.npz,,,,,0,173,173,342,,right,red,1.35,1215.076964855194,1215.6078598499298,,3,6,5,lightness,readingArea,realistic,75,2023-03-23_16h21.39.166,tripletExp_regina_11082022,2022.2.4,120.01796991470012,
10,3,0,0,0.694444444444444,1.0,0,0.444444444444444,0.298245614035088,0,0.027777777777778,0.298245614035088,ReadingArea_rsl0-rcl69-esl100-rsm0-rcm44-esm29-rsr0-rcr2-esr29,exr/ReadingArea_rsl0-rcl69-esl100-rsm0-rcm44-esm29-rsr0-rcr2-esr29.exr,ReadingArea_rsl0-rcl69-esl100-rsm0-rcm44-esm29-rsr0-rcr2-esr29.npz,,,,,0,174,174,203,,left,green,4.36,1220.8572709560394,1221.3498389720917,,3,6,5,lightness,readingArea,realistic,75,2023-03-23_16h21.39.166,tripletExp_regina_11082022,2022.2.4,120.01796991470012,
8,10,6,0,0.25,1.0,0,0.694444444444444,1.0,0,0.027777777777778,1.0,ReadingArea_rsl0-rcl25-esl100-rsm0-rcm69-esm100-rsr0-rcr2-esr100,exr/ReadingArea_rsl0-rcl25-esl100-rsm0-rcm69-esm100-rsr0-rcr2-esr100.exr,ReadingArea_rsl0-rcl25-esl100-rsm0-rcm69-esm100-rsr0-rcr2-esr100.npz,,,,,0,175,175,129,,left,green,1.12,1223.053365945816,1223.5096740722656,,3,6,5,lightness,readingArea,realistic,75,2023-03-23_16h21.39.166,tripletExp_regina_11082022,2022.2.4,120.01796991470012,
4,3,10,0,0.694444444444444,0.298245614035088,0,0.444444444444444,0.298245614035088,0,0.694444444444444,1.0,ReadingArea_rsl0-rcl69-esl29-rsm0-rcm44-esm29-rsr0-rcr69-esr100,exr/ReadingArea_rsl0-rcl69-esl29-rsm0-rcm44-esm29-rsr0-rcr69-esr100.exr,ReadingArea_rsl0-rcl69-esl29-rsm0-rcm44-esm29-rsr0-rcr69-esr100.npz,,,,,0,176,176,371,,left,green,1.17,1225.210263967514,1225.714163064957,,3,6,5,lightness,readingArea,realistic,75,2023-03-23_16h21.39.166,tripletExp_regina_11082022,2022.2.4,120.01796991470012,
9,6,14,0,0.444444444444444,1.0,0,0.027777777777778,1.0,0,0.25,3.10526315789474,ReadingArea_rsl0-rcl44-esl100-rsm0-rcm2-esm100-rsr0-rcr25-esr310,exr/ReadingArea_rsl0-rcl44-esl100-rsm0-rcm2-esm100-rsr0-rcr25-esr310.exr,ReadingArea_rsl0-rcl44-esl100-rsm0-rcm2-esm100-rsr0-rcr25-esr310.npz,,,,,0,177,177,213,,left,green,2.87,1229.1835339069366,1229.6408898830414,,3,6,5,lightness,readingArea,realistic,75,2023-03-23_16h21.39.166,tripletExp_regina_11082022,2022.2.4,120.01796991470012,
0,4,6,0,0.027777777777778,0.298245614035088,0,0.694444444444444,0.298245614035088,0,0.027777777777778,1.0,ReadingArea_rsl0-rcl2-esl29-rsm0-rcm69-esm29-rsr0-rcr2-esr100,exr/ReadingArea_rsl0-rcl2-esl29-rsm0-rcm69-esm29-rsr0-rcr2-esr100.exr,ReadingArea_rsl0-rcl2-esl29-rsm0-rcm69-esm29-rsr0-rcr2-esr100.npz,,,,,0,178,178,49,,right,red,3.08,1233.110473871231,1233.5595149993896,,3,6,5,lightness,readingArea,realistic,75,2023-03-23_16h21.39.166,tripletExp_regina_11082022,2022.2.4,120.01796991470012,
14,12,0,0,0.25,3.10526315789474,0,0.027777777777778,3.10526315789474,0,0.027777777777778,0.298245614035088,ReadingArea_rsl0-rcl25-esl310-rsm0-rcm2-esm310-rsr0-rcr2-esr29,exr/ReadingArea_rsl0-rcl25-esl310-rsm0-rcm2-esm310-rsr0-rcr2-esr29.exr,ReadingArea_rsl0-rcl25-esl310-rsm0-rcm2-esm310-rsr0-rcr2-esr29.npz,,,,,0,179,179,409,,right,red,3.14,1237.0463209152222,1237.5103359222412,,3,6,5,lightness,readingArea,realistic,75,2023-03-23_16h21.39.166,tripletExp_regina_11082022,2022.2.4,120.01796991470012,
13,11,10,0,0.111111111111111,3.10526315789474,0,1.0,1.0,0,0.694444444444444,1.0,ReadingArea_rsl0-rcl11-esl310-rsm0-rcm100-esm100-rsr0-rcr69-esr100,exr/ReadingArea_rsl0-rcl11-esl310-rsm0-rcm100-esm100-rsr0-rcr69-esr100.exr,ReadingArea_rsl0-rcl11-esl310-rsm0-rcm100-esm100-rsr0-rcr69-esr100.npz,,,,,0,180,180,577,,right,red,1.19,1239.202781915665,1239.6479969024658,,3,6,5,lightness,readingArea,realistic,75,2023-03-23_16h21.39.166,tripletExp_regina_11082022,2022.2.4,120.01796991470012,
14,6,7,0,0.25,3.10526315789474,0,0.027777777777778,1.0,0,0.111111111111111,1.0,ReadingArea_rsl0-rcl25-esl310-rsm0-rcm2-esm100-rsr0-rcr11-esr100,exr/ReadingArea_rsl0-rcl25-esl310-rsm0-rcm2-esm100-rsr0-rcr11-esr100.exr,ReadingArea_rsl0-rcl25-esl310-rsm0-rcm2-esm100-rsr0-rcr11-esr100.npz,,,,,0,181,181,306,,right,red,1.18,1241.355901002884,1241.829710006714,,3,6,5,lightness,readingArea,realistic,75,2023-03-23_16h21.39.166,tripletExp_regina_11082022,2022.2.4,120.01796991470012,
14,2,7,0,0.25,3.10526315789474,0,0.25,0.298245614035088,0,0.111111111111111,1.0,ReadingArea_rsl0-rcl25-esl310-rsm0-rcm25-esm29-rsr0-rcr11-esr100,exr/ReadingArea_rsl0-rcl25-esl310-rsm0-rcm25-esm29-rsr0-rcr11-esr100.exr,ReadingArea_rsl0-rcl25-esl310-rsm0-rcm25-esm29-rsr0-rcr11-esr100.npz,,,,,0,182,182,569,,right,red,1.23,1243.5212290287018,1243.9930520057678,,3,6,5,lightness,readingArea,realistic,75,2023-03-23_16h21.39.166,tripletExp_regina_11082022,2022.2.4,120.01796991470012,
9,6,1,0,0.444444444444444,1.0,0,0.027777777777778,1.0,0,0.111111111111111,0.298245614035088,ReadingArea_rsl0-rcl44-esl100-rsm0-rcm2-esm100-rsr0-rcr11-esr29,exr/ReadingArea_rsl0-rcl44-esl100-rsm0-rcm2-esm100-rsr0-rcr11-esr29.exr,ReadingArea_rsl0-rcl44-esl100-rsm0-rcm2-esm100-rsr0-rcr11-esr29.npz,,,,,0,183,183,526,,right,red,1.24,1245.6881928443909,1246.1559009552002,,3,6,5,lightness,readingArea,realistic,75,2023-03-23_16h21.39.166,tripletExp_regina_11082022,2022.2.4,120.01796991470012,
7,11,13,0,0.111111111111111,1.0,0,1.0,1.0,0,0.111111111111111,3.10526315789474,ReadingArea_rsl0-rcl11-esl100-rsm0-rcm100-esm100-rsr0-rcr11-esr310,exr/ReadingArea_rsl0-rcl11-esl100-rsm0-rcm100-esm100-rsr0-rcr11-esr310.exr,ReadingArea_rsl0-rcl11-esl100-rsm0-rcm100-esm100-rsr0-rcr11-esr310.npz,,,,,0,184,184,76,,right,red,2.46,1249.6216578483582,1250.1990399360657,,3,6,5,lightness,readingArea,realistic,75,2023-03-23_16h21.39.166,tripletExp_regina_11082022,2022.2.4,120.01796991470012,
9,7,3,0,0.444444444444444,1.0,0,0.111111111111111,1.0,0,0.444444444444444,0.298245614035088,ReadingArea_rsl0-rcl44-esl100-rsm0-rcm11-esm100-rsr0-rcr44-esr29,exr/ReadingArea_rsl0-rcl44-esl100-rsm0-rcm11-esm100-rsr0-rcr44-esr29.exr,ReadingArea_rsl0-rcl44-esl100-rsm0-rcm11-esm100-rsr0-rcr44-esr29.npz,,,,,0,185,185,235,,right,red,1.37,1251.8945138454435,,,3,6,5,lightness,readingArea,realistic,75,2023-03-23_16h21.39.166,tripletExp_regina_11082022,2022.2.4,120.01796991470012,
9,3,8,0,0.444444444444444,1.0,0,0.444444444444444,0.298245614035088,0,0.25,1.0,ReadingArea_rsl0-rcl44-esl100-rsm0-rcm44-esm29-rsr0-rcr25-esr100,exr/ReadingArea_rsl0-rcl44-esl100-rsm0-rcm44-esm29-rsr0-rcr25-esr100.exr,ReadingArea_rsl0-rcl44-esl100-rsm0-rcm44-esm29-rsr0-rcr25-esr100.npz,,,,,0,186,186,530,,right,red,1.22,1254.0860080718994,1254.519345998764,,3,6,5,lightness,readingArea,realistic,75,2023-03-23_16h21.39.166,tripletExp_regina_11082022,2022.2.4,120.01796991470012,
11,7,13,0,1.0,1.0,0,0.111111111111111,1.0,0,0.111111111111111,3.10526315789474,ReadingArea_rsl0-rcl100-esl100-rsm0-rcm11-esm100-rsr0-rcr11-esr310,exr/ReadingArea_rsl0-rcl100-esl100-rsm0-rcm11-esm100-rsr0-rcr11-esr310.exr,ReadingArea_rsl0-rcl100-esl100-rsm0-rcm11-esm100-rsr0-rcr11-esr310.npz,,,,,0,187,187,431,,right,red,1.23,1256.2255799770355,1256.685241937637,,3,6,5,lightness,readingArea,realistic,75,2023-03-23_16h21.39.166,tripletExp_regina_11082022,2022.2.4,120.01796991470012,
4,3,1,0,0.694444444444444,0.298245614035088,0,0.444444444444444,0.298245614035088,0,0.111111111111111,0.298245614035088,ReadingArea_rsl0-rcl69-esl29-rsm0-rcm44-esm29-rsr0-rcr11-esr29,exr/ReadingArea_rsl0-rcl69-esl29-rsm0-rcm44-esm29-rsr0-rcr11-esr29.exr,ReadingArea_rsl0-rcl69-esl29-rsm0-rcm44-esm29-rsr0-rcr11-esr29.npz,,,,,0,188,188,60,,left,green,1.24,1258.3851289749146,1258.833106994629,,3,6,5,lightness,readingArea,realistic,75,2023-03-23_16h21.39.166,tripletExp_regina_11082022,2022.2.4,120.01796991470012,
1,12,0,0,0.111111111111111,0.298245614035088,0,0.027777777777778,3.10526315789474,0,0.027777777777778,0.298245614035088,ReadingArea_rsl0-rcl11-esl29-rsm0-rcm2-esm310-rsr0-rcr2-esr29,exr/ReadingArea_rsl0-rcl11-esl29-rsm0-rcm2-esm310-rsr0-rcr2-esr29.exr,ReadingArea_rsl0-rcl11-esl29-rsm0-rcm2-esm310-rsr0-rcr2-esr29.npz,,,,,0,189,189,113,,left,green,2.82,1262.2958538532257,,,3,6,5,lightness,readingArea,realistic,75,2023-03-23_16h21.39.166,tripletExp_regina_11082022,2022.2.4,120.01796991470012,
9,0,14,0,0.444444444444444,1.0,0,0.027777777777778,0.298245614035088,0,0.25,3.10526315789474,ReadingArea_rsl0-rcl44-esl100-rsm0-rcm2-esm29-rsr0-rcr25-esr310,exr/ReadingArea_rsl0-rcl44-esl100-rsm0-rcm2-esm29-rsr0-rcr25-esr310.exr,ReadingArea_rsl0-rcl44-esl100-rsm0-rcm2-esm29-rsr0-rcr25-esr310.npz,,,,,0,190,190,550,,left,green,1.47,1264.4864568710327,1264.919648885727,,3,6,5,lightness,readingArea,realistic,75,2023-03-23_16h21.39.166,tripletExp_regina_11082022,2022.2.4,120.01796991470012,
6,12,0,0,0.027777777777778,1.0,0,0.027777777777778,3.10526315789474,0,0.027777777777778,0.298245614035088,ReadingArea_rsl0-rcl2-esl100-rsm0-rcm2-esm310-rsr0-rcr2-esr29,exr/ReadingArea_rsl0-rcl2-esl100-rsm0-rcm2-esm310-rsr0-rcr2-esr29.exr,ReadingArea_rsl0-rcl2-esl100-rsm0-rcm2-esm310-rsr0-rcr2-esr29.npz,,,,,0,191,191,23,,left,green,2.78,1268.4000470638275,1268.8632490634918,,3,6,5,lightness,readingArea,realistic,75,2023-03-23_16h21.39.166,tripletExp_regina_11082022,2022.2.4,120.01796991470012,
12,8,3,0,0.027777777777778,3.10526315789474,0,0.25,1.0,0,0.444444444444444,0.298245614035088,ReadingArea_rsl0-rcl2-esl310-rsm0-rcm25-esm100-rsr0-rcr44-esr29,exr/ReadingArea_rsl0-rcl2-esl310-rsm0-rcm25-esm100-rsr0-rcr44-esr29.exr,ReadingArea_rsl0-rcl2-esl310-rsm0-rcm25-esm100-rsr0-rcr44-esr29.npz,,,,,0,192,192,386,,right,red,2.68,1272.3302750587463,1272.803025007248,,3,6,5,lightness,readingArea,realistic,75,2023-03-23_16h21.39.166,tripletExp_regina_11082022,2022.2.4,120.01796991470012,
4,2,9,0,0.694444444444444,0.298245614035088,0,0.25,0.298245614035088,0,0.444444444444444,1.0,ReadingArea_rsl0-rcl69-esl29-rsm0-rcm25-esm29-rsr0-rcr44-esr100,exr/ReadingArea_rsl0-rcl69-esl29-rsm0-rcm25-esm29-rsr0-rcr44-esr100.exr,ReadingArea_rsl0-rcl69-esl29-rsm0-rcm25-esm29-rsr0-rcr44-esr100.npz,,,,,0,193,193,479,,left,green,2.59,1276.2753138542175,1276.844269990921,,3,6,5,lightness,readingArea,realistic,75,2023-03-23_16h21.39.166,tripletExp_regina_11082022,2022.2.4,120.01796991470012,
0,12,7,0,0.027777777777778,0.298245614035088,0,0.027777777777778,3.10526315789474,0,0.111111111111111,1.0,ReadingArea_rsl0-rcl2-esl29-rsm0-rcm2-esm310-rsr0-rcr11-esr100,exr/ReadingArea_rsl0-rcl2-esl29-rsm0-rcm2-esm310-rsr0-rcr11-esr100.exr,ReadingArea_rsl0-rcl2-esl29-rsm0-rcm2-esm310-rsr0-rcr11-esr100.npz,,,,,0,194,194,481,,right,red,2.65,1280.287451028824,1280.7475049495697,,3,6,5,lightness,readingArea,realistic,75,2023-03-23_16h21.39.166,tripletExp_regina_11082022,2022.2.4,120.01796991470012,
7,12,0,0,0.111111111111111,1.0,0,0.027777777777778,3.10526315789474,0,0.027777777777778,0.298245614035088,ReadingArea_rsl0-rcl11-esl100-rsm0-rcm2-esm310-rsr0-rcr2-esr29,exr/ReadingArea_rsl0-rcl11-esl100-rsm0-rcm2-esm310-rsr0-rcr2-esr29.exr,ReadingArea_rsl0-rcl11-esl100-rsm0-rcm2-esm310-rsr0-rcr2-esr29.npz,,,,,0,195,195,425,,left,green,2.55,1284.2059049606323,1284.6711220741272,,3,6,5,lightness,readingArea,realistic,75,2023-03-23_16h21.39.166,tripletExp_regina_11082022,2022.2.4,120.01796991470012,
4,2,13,0,0.694444444444444,0.298245614035088,0,0.25,0.298245614035088,0,0.111111111111111,3.10526315789474,ReadingArea_rsl0-rcl69-esl29-rsm0-rcm25-esm29-rsr0-rcr11-esr310,exr/ReadingArea_rsl0-rcl69-esl29-rsm0-rcm25-esm29-rsr0-rcr11-esr310.exr,ReadingArea_rsl0-rcl69-esl29-rsm0-rcm25-esm29-rsr0-rcr11-esr310.npz,,,,,0,196,196,304,,left,green,2.85,1288.1609289646149,1288.6340429782867,,3,6,5,lightness,readingArea,realistic,75,2023-03-23_16h21.39.166,tripletExp_regina_11082022,2022.2.4,120.01796991470012,
3,0,4,0,0.444444444444444,0.298245614035088,0,0.027777777777778,0.298245614035088,0,0.694444444444444,0.298245614035088,ReadingArea_rsl0-rcl44-esl29-rsm0-rcm2-esm29-rsr0-rcr69-esr29,exr/ReadingArea_rsl0-rcl44-esl29-rsm0-rcm2-esm29-rsr0-rcr69-esr29.exr,ReadingArea_rsl0-rcl44-esl29-rsm0-rcm2-esm29-rsr0-rcr69-esr29.npz,,,,,0,197,197,111,,left,green,2.54,1292.1022548675537,1292.575383901596,,3,6,5,lightness,readingArea,realistic,75,2023-03-23_16h21.39.166,tripletExp_regina_11082022,2022.2.4,120.01796991470012,
9,12,6,0,0.444444444444444,1.0,0,0.027777777777778,3.10526315789474,0,0.027777777777778,1.0,ReadingArea_rsl0-rcl44-esl100-rsm0-rcm2-esm310-rsr0-rcr2-esr100,exr/ReadingArea_rsl0-rcl44-esl100-rsm0-rcm2-esm310-rsr0-rcr2-esr100.exr,ReadingArea_rsl0-rcl44-esl100-rsm0-rcm2-esm310-rsr0-rcr2-esr100.npz,,,,,0,198,198,5,,right,red,1.09,1294.2636179924011,1294.7416689395905,,3,6,5,lightness,readingArea,realistic,75,2023-03-23_16h21.39.166,tripletExp_regina_11082022,2022.2.4,120.01796991470012,
9,8,0,0,0.444444444444444,1.0,0,0.25,1.0,0,0.027777777777778,0.298245614035088,ReadingArea_rsl0-rcl44-esl100-rsm0-rcm25-esm100-rsr0-rcr2-esr29,exr/ReadingArea_rsl0-rcl44-esl100-rsm0-rcm25-esm100-rsr0-rcr2-esr29.exr,ReadingArea_rsl0-rcl44-esl100-rsm0-rcm25-esm100-rsr0-rcr2-esr29.npz,,,,,0,199,199,66,,left,green,2.92,1298.197926044464,1298.6717500686646,,3,6,5,lightness,readingArea,realistic,75,2023-03-23_16h21.39.166,tripletExp_regina_11082022,2022.2.4,120.01796991470012,
8,0,4,0,0.25,1.0,0,0.027777777777778,0.298245614035088,0,0.694444444444444,0.298245614035088,ReadingArea_rsl0-rcl25-esl100-rsm0-rcm2-esm29-rsr0-rcr69-esr29,exr/ReadingArea_rsl0-rcl25-esl100-rsm0-rcm2-esm29-rsr0-rcr69-esr29.exr,ReadingArea_rsl0-rcl25-esl100-rsm0-rcm2-esm29-rsr0-rcr69-esr29.npz,,,,,0,200,200,346,,right,red,2.81,1302.1308760643003,1302.5990970134735,,3,6,5,lightness,readingArea,realistic,75,2023-03-23_16h21.39.166,tripletExp_regina_11082022,2022.2.4,120.01796991470012,
3,9,0,0,0.444444444444444,0.298245614035088,0,0.444444444444444,1.0,0,0.027777777777778,0.298245614035088,ReadingArea_rsl0-rcl44-esl29-rsm0-rcm44-esm100-rsr0-rcr2-esr29,exr/ReadingArea_rsl0-rcl44-esl29-rsm0-rcm44-esm100-rsr0-rcr2-esr29.exr,ReadingArea_rsl0-rcl44-esl29-rsm0-rcm44-esm100-rsr0-rcr2-esr29.npz,,,,,0,201,201,551,,left,green,1.17,1304.2999000549316,1304.7598118782043,,3,6,5,lightness,readingArea,realistic,75,2023-03-23_16h21.39.166,tripletExp_regina_11082022,2022.2.4,120.01796991470012,
14,8,9,0,0.25,3.10526315789474,0,0.25,1.0,0,0.444444444444444,1.0,ReadingArea_rsl0-rcl25-esl310-rsm0-rcm25-esm100-rsr0-rcr44-esr100,exr/ReadingArea_rsl0-rcl25-esl310-rsm0-rcm25-esm100-rsr0-rcr44-esr100.exr,ReadingArea_rsl0-rcl25-esl310-rsm0-rcm25-esm100-rsr0-rcr44-esr100.npz,,,,,0,202,202,518,,right,red,2.56,1308.22128200531,1308.7401568889618,,3,6,5,lightness,readingArea,realistic,75,2023-03-23_16h21.39.166,tripletExp_regina_11082022,2022.2.4,120.01796991470012,
4,10,11,0,0.694444444444444,0.298245614035088,0,0.694444444444444,1.0,0,1.0,1.0,ReadingArea_rsl0-rcl69-esl29-rsm0-rcm69-esm100-rsr0-rcr100-esr100,exr/ReadingArea_rsl0-rcl69-esl29-rsm0-rcm69-esm100-rsr0-rcr100-esr100.exr,ReadingArea_rsl0-rcl69-esl29-rsm0-rcm69-esm100-rsr0-rcr100-esr100.npz,,,,,0,203,203,180,,right,red,1.06,1310.4633939266205,1310.9851739406586,,3,6,5,lightness,readingArea,realistic,75,2023-03-23_16h21.39.166,tripletExp_regina_11082022,2022.2.4,120.01796991470012,
0,1,6,0,0.027777777777778,0.298245614035088,0,0.111111111111111,0.298245614035088,0,0.027777777777778,1.0,ReadingArea_rsl0-rcl2-esl29-rsm0-rcm11-esm29-rsr0-rcr2-esr100,exr/ReadingArea_rsl0-rcl2-esl29-rsm0-rcm11-esm29-rsr0-rcr2-esr100.exr,ReadingArea_rsl0-rcl2-esl29-rsm0-rcm11-esm29-rsr0-rcr2-esr100.npz,,,,,0,204,204,375,,right,red,1.12,1312.6793720722198,,,3,6,5,lightness,readingArea,realistic,75,2023-03-23_16h21.39.166,tripletExp_regina_11082022,2022.2.4,120.01796991470012,
