index_left,index_middle,index_right,reflectance_surround_left,reflectance_center_left,emission_spot_left,reflectance_surround_middle,reflectance_center_middle,emission_spot_middle,reflectance_surround_right,reflectance_center_right,emission_spot_right,ImageName,ImageExr,ImageNpy,trials_2.thisRepN,trials_2.thisTrialN,trials_2.thisN,trials_2.thisIndex,trials.thisRepN,trials.thisTrialN,trials.thisN,trials.thisIndex,sound_1.started,BB_Trial.resp,BB_Trial.color,BB_Trial.rt,text.started,text.stopped,block,participant,session,L/B,scene,condition,nTrialsPerBlock,date,expName,psychopyVersion,frameRate,Unnamed: 40
11,7,13,0,1.0,1.0,0,0.111111111111111,1.0,0,0.111111111111111,3.10526315789474,ReadingArea_rsl0-rcl100-esl100-rsm0-rcm11-esm100-rsr0-rcr11-esr310,exr/ReadingArea_rsl0-rcl100-esl100-rsm0-rcm11-esm100-rsr0-rcr11-esr310.exr,ReadingArea_rsl0-rcl100-esl100-rsm0-rcm11-esm100-rsr0-rcr11-esr310.npz,,,,,0,0,0,431,139.05807454586028,right,red,1.25,180.4570939540863,181.00282192230225,1,7,5,lightness,readingArea,realistic,75,2023-04-01_12h05.37.928,tripletExp_regina_11082022,2022.2.4,120.3368268841792,
9,12,0,0,0.444444444444444,1.0,0,0.027777777777778,3.10526315789474,0,0.027777777777778,0.298245614035088,ReadingArea_rsl0-rcl44-esl100-rsm0-rcm2-esm310-rsr0-rcr2-esr29,exr/ReadingArea_rsl0-rcl44-esl100-rsm0-rcm2-esm310-rsr0-rcr2-esr29.exr,ReadingArea_rsl0-rcl44-esl100-rsm0-rcm2-esm310-rsr0-rcr2-esr29.npz,,,,,0,1,1,175,,right,red,1.02,182.70058012008667,183.2231481075287,1,7,5,lightness,readingArea,realistic,75,2023-04-01_12h05.37.928,tripletExp_regina_11082022,2022.2.4,120.3368268841792,
5,4,10,0,1.0,0.298245614035088,0,0.694444444444444,0.298245614035088,0,0.694444444444444,1.0,ReadingArea_rsl0-rcl100-esl29-rsm0-rcm69-esm29-rsr0-rcr69-esr100,exr/ReadingArea_rsl0-rcl100-esl29-rsm0-rcm69-esm29-rsr0-rcr69-esr100.exr,ReadingArea_rsl0-rcl100-esl29-rsm0-rcm69-esm29-rsr0-rcr69-esr100.npz,,,,,0,2,2,536,,left,green,0.97,184.9155061244965,185.4014449119568,1,7,5,lightness,readingArea,realistic,75,2023-04-01_12h05.37.928,tripletExp_regina_11082022,2022.2.4,120.3368268841792,
14,2,7,0,0.25,3.10526315789474,0,0.25,0.298245614035088,0,0.111111111111111,1.0,ReadingArea_rsl0-rcl25-esl310-rsm0-rcm25-esm29-rsr0-rcr11-esr100,exr/ReadingArea_rsl0-rcl25-esl310-rsm0-rcm25-esm29-rsr0-rcr11-esr100.exr,ReadingArea_rsl0-rcl25-esl310-rsm0-rcm25-esm29-rsr0-rcr11-esr100.npz,,,,,0,3,3,569,,right,red,0.92,187.0897560119629,187.54687309265137,1,7,5,lightness,readingArea,realistic,75,2023-04-01_12h05.37.928,tripletExp_regina_11082022,2022.2.4,120.3368268841792,
5,6,0,0,1.0,0.298245614035088,0,0.027777777777778,1.0,0,0.027777777777778,0.298245614035088,ReadingArea_rsl0-rcl100-esl29-rsm0-rcm2-esm100-rsr0-rcr2-esr29,exr/ReadingArea_rsl0-rcl100-esl29-rsm0-rcm2-esm100-rsr0-rcr2-esr29.exr,ReadingArea_rsl0-rcl100-esl29-rsm0-rcm2-esm100-rsr0-rcr2-esr29.npz,,,,,0,4,4,511,,right,red,0.83,189.2430820465088,189.75719594955444,1,7,5,lightness,readingArea,realistic,75,2023-04-01_12h05.37.928,tripletExp_regina_11082022,2022.2.4,120.3368268841792,
6,0,1,0,0.027777777777778,1.0,0,0.027777777777778,0.298245614035088,0,0.111111111111111,0.298245614035088,ReadingArea_rsl0-rcl2-esl100-rsm0-rcm2-esm29-rsr0-rcr11-esr29,exr/ReadingArea_rsl0-rcl2-esl100-rsm0-rcm2-esm29-rsr0-rcr11-esr29.exr,ReadingArea_rsl0-rcl2-esl100-rsm0-rcm2-esm29-rsr0-rcr11-esr29.npz,,,,,0,5,5,302,,left,green,0.88,191.4800450801849,191.9553499221801,1,7,5,lightness,readingArea,realistic,75,2023-04-01_12h05.37.928,tripletExp_regina_11082022,2022.2.4,120.3368268841792,
11,12,2,0,1.0,1.0,0,0.027777777777778,3.10526315789474,0,0.25,0.298245614035088,ReadingArea_rsl0-rcl100-esl100-rsm0-rcm2-esm310-rsr0-rcr25-esr29,exr/ReadingArea_rsl0-rcl100-esl100-rsm0-rcm2-esm310-rsr0-rcr25-esr29.exr,ReadingArea_rsl0-rcl100-esl100-rsm0-rcm2-esm310-rsr0-rcr25-esr29.npz,,,,,0,6,6,423,,right,red,0.78,193.64590406417847,,1,7,5,lightness,readingArea,realistic,75,2023-04-01_12h05.37.928,tripletExp_regina_11082022,2022.2.4,120.3368268841792,
11,0,12,0,1.0,1.0,0,0.027777777777778,0.298245614035088,0,0.027777777777778,3.10526315789474,ReadingArea_rsl0-rcl100-esl100-rsm0-rcm2-esm29-rsr0-rcr2-esr310,exr/ReadingArea_rsl0-rcl100-esl100-rsm0-rcm2-esm29-rsr0-rcr2-esr310.exr,ReadingArea_rsl0-rcl100-esl100-rsm0-rcm2-esm29-rsr0-rcr2-esr310.npz,,,,,0,7,7,166,,right,red,1.11,195.91662311553955,196.3944699764252,1,7,5,lightness,readingArea,realistic,75,2023-04-01_12h05.37.928,tripletExp_regina_11082022,2022.2.4,120.3368268841792,
5,7,14,0,1.0,0.298245614035088,0,0.111111111111111,1.0,0,0.25,3.10526315789474,ReadingArea_rsl0-rcl100-esl29-rsm0-rcm11-esm100-rsr0-rcr25-esr310,exr/ReadingArea_rsl0-rcl100-esl29-rsm0-rcm11-esm100-rsr0-rcr25-esr310.exr,ReadingArea_rsl0-rcl100-esl29-rsm0-rcm11-esm100-rsr0-rcr25-esr310.npz,,,,,0,8,8,210,,left,green,4.39,201.6420741081237,202.20253992080688,1,7,5,lightness,readingArea,realistic,75,2023-04-01_12h05.37.928,tripletExp_regina_11082022,2022.2.4,120.3368268841792,
6,3,13,0,0.027777777777778,1.0,0,0.444444444444444,0.298245614035088,0,0.111111111111111,3.10526315789474,ReadingArea_rsl0-rcl2-esl100-rsm0-rcm44-esm29-rsr0-rcr11-esr310,exr/ReadingArea_rsl0-rcl2-esl100-rsm0-rcm44-esm29-rsr0-rcr11-esr310.exr,ReadingArea_rsl0-rcl2-esl100-rsm0-rcm44-esm29-rsr0-rcr11-esr310.npz,,,,,0,9,9,228,,right,red,2.88,205.67674112319943,206.1543629169464,1,7,5,lightness,readingArea,realistic,75,2023-04-01_12h05.37.928,tripletExp_regina_11082022,2022.2.4,120.3368268841792,
13,4,12,0,0.111111111111111,3.10526315789474,0,0.694444444444444,0.298245614035088,0,0.027777777777778,3.10526315789474,ReadingArea_rsl0-rcl11-esl310-rsm0-rcm69-esm29-rsr0-rcr2-esr310,exr/ReadingArea_rsl0-rcl11-esl310-rsm0-rcm69-esm29-rsr0-rcr2-esr310.exr,ReadingArea_rsl0-rcl11-esl310-rsm0-rcm69-esm29-rsr0-rcr2-esr310.npz,,,,,0,10,10,122,,left,green,1.13,207.8513100147248,208.5397160053253,1,7,5,lightness,readingArea,realistic,75,2023-04-01_12h05.37.928,tripletExp_regina_11082022,2022.2.4,120.3368268841792,
11,7,10,0,1.0,1.0,0,0.111111111111111,1.0,0,0.694444444444444,1.0,ReadingArea_rsl0-rcl100-esl100-rsm0-rcm11-esm100-rsr0-rcr69-esr100,exr/ReadingArea_rsl0-rcl100-esl100-rsm0-rcm11-esm100-rsr0-rcr69-esr100.exr,ReadingArea_rsl0-rcl100-esl100-rsm0-rcm11-esm100-rsr0-rcr69-esr100.npz,,,,,0,11,11,411,,right,red,2.65,212.0181729793549,212.4831380844116,1,7,5,lightness,readingArea,realistic,75,2023-04-01_12h05.37.928,tripletExp_regina_11082022,2022.2.4,120.3368268841792,
6,11,8,0,0.027777777777778,1.0,0,1.0,1.0,0,0.25,1.0,ReadingArea_rsl0-rcl2-esl100-rsm0-rcm100-esm100-rsr0-rcr25-esr100,exr/ReadingArea_rsl0-rcl2-esl100-rsm0-rcm100-esm100-rsr0-rcr25-esr100.exr,ReadingArea_rsl0-rcl2-esl100-rsm0-rcm100-esm100-rsr0-rcr25-esr100.npz,,,,,0,12,12,176,,right,red,3.06,215.9791460037232,216.4678509235382,1,7,5,lightness,readingArea,realistic,75,2023-04-01_12h05.37.928,tripletExp_regina_11082022,2022.2.4,120.3368268841792,
7,9,8,0,0.111111111111111,1.0,0,0.444444444444444,1.0,0,0.25,1.0,ReadingArea_rsl0-rcl11-esl100-rsm0-rcm44-esm100-rsr0-rcr25-esr100,exr/ReadingArea_rsl0-rcl11-esl100-rsm0-rcm44-esm100-rsr0-rcr25-esr100.exr,ReadingArea_rsl0-rcl11-esl100-rsm0-rcm44-esm100-rsr0-rcr25-esr100.npz,,,,,0,13,13,515,,right,red,2.32,219.94571900367737,220.4303150177002,1,7,5,lightness,readingArea,realistic,75,2023-04-01_12h05.37.928,tripletExp_regina_11082022,2022.2.4,120.3368268841792,
13,0,14,0,0.111111111111111,3.10526315789474,0,0.027777777777778,0.298245614035088,0,0.25,3.10526315789474,ReadingArea_rsl0-rcl11-esl310-rsm0-rcm2-esm29-rsr0-rcr25-esr310,exr/ReadingArea_rsl0-rcl11-esl310-rsm0-rcm2-esm29-rsr0-rcr25-esr310.exr,ReadingArea_rsl0-rcl11-esl310-rsm0-rcm2-esm29-rsr0-rcr25-esr310.npz,,,,,0,14,14,278,,left,green,2.24,223.88884091377253,224.3654861450196,1,7,5,lightness,readingArea,realistic,75,2023-04-01_12h05.37.928,tripletExp_regina_11082022,2022.2.4,120.3368268841792,
3,0,2,0,0.444444444444444,0.298245614035088,0,0.027777777777778,0.298245614035088,0,0.25,0.298245614035088,ReadingArea_rsl0-rcl44-esl29-rsm0-rcm2-esm29-rsr0-rcr25-esr29,exr/ReadingArea_rsl0-rcl44-esl29-rsm0-rcm2-esm29-rsr0-rcr25-esr29.exr,ReadingArea_rsl0-rcl44-esl29-rsm0-rcm2-esm29-rsr0-rcr25-esr29.npz,,,,,0,15,15,334,,right,red,2.28,227.8711059093476,228.34056901931763,1,7,5,lightness,readingArea,realistic,75,2023-04-01_12h05.37.928,tripletExp_regina_11082022,2022.2.4,120.3368268841792,
6,1,10,0,0.027777777777778,1.0,0,0.111111111111111,0.298245614035088,0,0.694444444444444,1.0,ReadingArea_rsl0-rcl2-esl100-rsm0-rcm11-esm29-rsr0-rcr69-esr100,exr/ReadingArea_rsl0-rcl2-esl100-rsm0-rcm11-esm29-rsr0-rcr69-esr100.exr,ReadingArea_rsl0-rcl2-esl100-rsm0-rcm11-esm29-rsr0-rcr69-esr100.npz,,,,,0,16,16,561,,left,green,1.13,230.03323602676392,230.47620105743408,1,7,5,lightness,readingArea,realistic,75,2023-04-01_12h05.37.928,tripletExp_regina_11082022,2022.2.4,120.3368268841792,
8,10,7,0,0.25,1.0,0,0.694444444444444,1.0,0,0.111111111111111,1.0,ReadingArea_rsl0-rcl25-esl100-rsm0-rcm69-esm100-rsr0-rcr11-esr100,exr/ReadingArea_rsl0-rcl25-esl100-rsm0-rcm69-esm100-rsr0-rcr11-esr100.exr,ReadingArea_rsl0-rcl25-esl100-rsm0-rcm69-esm100-rsr0-rcr11-esr100.npz,,,,,0,17,17,424,,left,green,1.25,232.1950340270996,232.7993860244751,1,7,5,lightness,readingArea,realistic,75,2023-04-01_12h05.37.928,tripletExp_regina_11082022,2022.2.4,120.3368268841792,
12,11,6,0,0.027777777777778,3.10526315789474,0,1.0,1.0,0,0.027777777777778,1.0,ReadingArea_rsl0-rcl2-esl310-rsm0-rcm100-esm100-rsr0-rcr2-esr100,exr/ReadingArea_rsl0-rcl2-esl310-rsm0-rcm100-esm100-rsr0-rcr2-esr100.exr,ReadingArea_rsl0-rcl2-esl310-rsm0-rcm100-esm100-rsr0-rcr2-esr100.npz,,,,,0,18,18,163,,left,green,2.68,236.2655029296875,236.748841047287,1,7,5,lightness,readingArea,realistic,75,2023-04-01_12h05.37.928,tripletExp_regina_11082022,2022.2.4,120.3368268841792,
2,14,1,0,0.25,0.298245614035088,0,0.25,3.10526315789474,0,0.111111111111111,0.298245614035088,ReadingArea_rsl0-rcl25-esl29-rsm0-rcm25-esm310-rsr0-rcr11-esr29,exr/ReadingArea_rsl0-rcl25-esl29-rsm0-rcm25-esm310-rsr0-rcr11-esr29.exr,ReadingArea_rsl0-rcl25-esl29-rsm0-rcm25-esm310-rsr0-rcr11-esr29.npz,,,,,0,19,19,579,,left,green,1.39,238.4482090473175,238.9991769790649,1,7,5,lightness,readingArea,realistic,75,2023-04-01_12h05.37.928,tripletExp_regina_11082022,2022.2.4,120.3368268841792,
4,5,8,0,0.694444444444444,0.298245614035088,0,1.0,0.298245614035088,0,0.25,1.0,ReadingArea_rsl0-rcl69-esl29-rsm0-rcm100-esm29-rsr0-rcr25-esr100,exr/ReadingArea_rsl0-rcl69-esl29-rsm0-rcm100-esm29-rsr0-rcr25-esr100.exr,ReadingArea_rsl0-rcl69-esl29-rsm0-rcm100-esm29-rsr0-rcr25-esr100.npz,,,,,0,20,20,54,,left,green,2.75,242.4685311317444,243.1191201210022,1,7,5,lightness,readingArea,realistic,75,2023-04-01_12h05.37.928,tripletExp_regina_11082022,2022.2.4,120.3368268841792,
0,13,12,0,0.027777777777778,0.298245614035088,0,0.111111111111111,3.10526315789474,0,0.027777777777778,3.10526315789474,ReadingArea_rsl0-rcl2-esl29-rsm0-rcm11-esm310-rsr0-rcr2-esr310,exr/ReadingArea_rsl0-rcl2-esl29-rsm0-rcm11-esm310-rsr0-rcr2-esr310.exr,ReadingArea_rsl0-rcl2-esl29-rsm0-rcm11-esm310-rsr0-rcr2-esr310.npz,,,,,0,21,21,501,,right,red,1.02,244.81068301200867,245.2848961353302,1,7,5,lightness,readingArea,realistic,75,2023-04-01_12h05.37.928,tripletExp_regina_11082022,2022.2.4,120.3368268841792,
2,0,3,0,0.25,0.298245614035088,0,0.027777777777778,0.298245614035088,0,0.444444444444444,0.298245614035088,ReadingArea_rsl0-rcl25-esl29-rsm0-rcm2-esm29-rsr0-rcr44-esr29,exr/ReadingArea_rsl0-rcl25-esl29-rsm0-rcm2-esm29-rsr0-rcr44-esr29.exr,ReadingArea_rsl0-rcl25-esl29-rsm0-rcm2-esm29-rsr0-rcr44-esr29.npz,,,,,0,22,22,338,,left,green,1.28,246.98561596870425,247.4645800590515,1,7,5,lightness,readingArea,realistic,75,2023-04-01_12h05.37.928,tripletExp_regina_11082022,2022.2.4,120.3368268841792,
8,9,13,0,0.25,1.0,0,0.444444444444444,1.0,0,0.111111111111111,3.10526315789474,ReadingArea_rsl0-rcl25-esl100-rsm0-rcm44-esm100-rsr0-rcr11-esr310,exr/ReadingArea_rsl0-rcl25-esl100-rsm0-rcm44-esm100-rsr0-rcr11-esr310.exr,ReadingArea_rsl0-rcl25-esl100-rsm0-rcm44-esm100-rsr0-rcr11-esr310.npz,,,,,0,23,23,519,,right,red,2.42,250.9399509429932,251.3617210388184,1,7,5,lightness,readingArea,realistic,75,2023-04-01_12h05.37.928,tripletExp_regina_11082022,2022.2.4,120.3368268841792,
8,6,0,0,0.25,1.0,0,0.027777777777778,1.0,0,0.027777777777778,0.298245614035088,ReadingArea_rsl0-rcl25-esl100-rsm0-rcm2-esm100-rsr0-rcr2-esr29,exr/ReadingArea_rsl0-rcl25-esl100-rsm0-rcm2-esm100-rsr0-rcr2-esr29.exr,ReadingArea_rsl0-rcl25-esl100-rsm0-rcm2-esm100-rsr0-rcr2-esr29.npz,,,,,0,24,24,187,,right,red,2.68,254.85263895988464,255.47421503067017,1,7,5,lightness,readingArea,realistic,75,2023-04-01_12h05.37.928,tripletExp_regina_11082022,2022.2.4,120.3368268841792,
6,2,5,0,0.027777777777778,1.0,0,0.25,0.298245614035088,0,1.0,0.298245614035088,ReadingArea_rsl0-rcl2-esl100-rsm0-rcm25-esm29-rsr0-rcr100-esr29,exr/ReadingArea_rsl0-rcl2-esl100-rsm0-rcm25-esm29-rsr0-rcr100-esr29.exr,ReadingArea_rsl0-rcl2-esl100-rsm0-rcm25-esm29-rsr0-rcr100-esr29.npz,,,,,0,25,25,504,,left,green,4.05,260.7027189731598,261.18340611457825,1,7,5,lightness,readingArea,realistic,75,2023-04-01_12h05.37.928,tripletExp_regina_11082022,2022.2.4,120.3368268841792,
9,11,6,0,0.444444444444444,1.0,0,1.0,1.0,0,0.027777777777778,1.0,ReadingArea_rsl0-rcl44-esl100-rsm0-rcm100-esm100-rsr0-rcr2-esr100,exr/ReadingArea_rsl0-rcl44-esl100-rsm0-rcm100-esm100-rsr0-rcr2-esr100.exr,ReadingArea_rsl0-rcl44-esl100-rsm0-rcm100-esm100-rsr0-rcr2-esr100.npz,,,,,0,26,26,404,,left,green,4.45,266.411926984787,266.88494992256165,1,7,5,lightness,readingArea,realistic,75,2023-04-01_12h05.37.928,tripletExp_regina_11082022,2022.2.4,120.3368268841792,
4,8,10,0,0.694444444444444,0.298245614035088,0,0.25,1.0,0,0.694444444444444,1.0,ReadingArea_rsl0-rcl69-esl29-rsm0-rcm25-esm100-rsr0-rcr69-esr100,exr/ReadingArea_rsl0-rcl69-esl29-rsm0-rcm25-esm100-rsr0-rcr69-esr100.exr,ReadingArea_rsl0-rcl69-esl29-rsm0-rcm25-esm100-rsr0-rcr69-esr100.npz,,,,,0,27,27,221,,left,green,2.28,270.3442029953003,270.8182439804077,1,7,5,lightness,readingArea,realistic,75,2023-04-01_12h05.37.928,tripletExp_regina_11082022,2022.2.4,120.3368268841792,
2,1,3,0,0.25,0.298245614035088,0,0.111111111111111,0.298245614035088,0,0.444444444444444,0.298245614035088,ReadingArea_rsl0-rcl25-esl29-rsm0-rcm11-esm29-rsr0-rcr44-esr29,exr/ReadingArea_rsl0-rcl25-esl29-rsm0-rcm11-esm29-rsr0-rcr44-esr29.exr,ReadingArea_rsl0-rcl25-esl29-rsm0-rcm11-esm29-rsr0-rcr44-esr29.npz,,,,,0,28,28,85,,left,green,0.93,272.52117896080017,273.01562309265137,1,7,5,lightness,readingArea,realistic,75,2023-04-01_12h05.37.928,tripletExp_regina_11082022,2022.2.4,120.3368268841792,
7,14,5,0,0.111111111111111,1.0,0,0.25,3.10526315789474,0,1.0,0.298245614035088,ReadingArea_rsl0-rcl11-esl100-rsm0-rcm25-esm310-rsr0-rcr100-esr29,exr/ReadingArea_rsl0-rcl11-esl100-rsm0-rcm25-esm310-rsr0-rcr100-esr29.exr,ReadingArea_rsl0-rcl11-esl100-rsm0-rcm25-esm310-rsr0-rcr100-esr29.npz,,,,,0,29,29,372,,right,red,1.07,274.7205400466919,275.1982810497284,1,7,5,lightness,readingArea,realistic,75,2023-04-01_12h05.37.928,tripletExp_regina_11082022,2022.2.4,120.3368268841792,
4,2,13,0,0.694444444444444,0.298245614035088,0,0.25,0.298245614035088,0,0.111111111111111,3.10526315789474,ReadingArea_rsl0-rcl69-esl29-rsm0-rcm25-esm29-rsr0-rcr11-esr310,exr/ReadingArea_rsl0-rcl69-esl29-rsm0-rcm25-esm29-rsr0-rcr11-esr310.exr,ReadingArea_rsl0-rcl69-esl29-rsm0-rcm25-esm29-rsr0-rcr11-esr310.npz,,,,,0,30,30,304,,right,red,1.33,276.90464210510254,277.38493609428406,1,7,5,lightness,readingArea,realistic,75,2023-04-01_12h05.37.928,tripletExp_regina_11082022,2022.2.4,120.3368268841792,
4,12,7,0,0.694444444444444,0.298245614035088,0,0.027777777777778,3.10526315789474,0,0.111111111111111,1.0,ReadingArea_rsl0-rcl69-esl29-rsm0-rcm2-esm310-rsr0-rcr11-esr100,exr/ReadingArea_rsl0-rcl69-esl29-rsm0-rcm2-esm310-rsr0-rcr11-esr100.exr,ReadingArea_rsl0-rcl69-esl29-rsm0-rcm2-esm310-rsr0-rcr11-esr100.npz,,,,,0,31,31,112,,right,red,1.06,279.0737490653992,279.5482819080353,1,7,5,lightness,readingArea,realistic,75,2023-04-01_12h05.37.928,tripletExp_regina_11082022,2022.2.4,120.3368268841792,
12,9,11,0,0.027777777777778,3.10526315789474,0,0.444444444444444,1.0,0,1.0,1.0,ReadingArea_rsl0-rcl2-esl310-rsm0-rcm44-esm100-rsr0-rcr100-esr100,exr/ReadingArea_rsl0-rcl2-esl310-rsm0-rcm44-esm100-rsr0-rcr100-esr100.exr,ReadingArea_rsl0-rcl2-esl310-rsm0-rcm44-esm100-rsr0-rcr100-esr100.npz,,,,,0,32,32,18,,right,red,1.13,281.27098202705383,281.7293829917908,1,7,5,lightness,readingArea,realistic,75,2023-04-01_12h05.37.928,tripletExp_regina_11082022,2022.2.4,120.3368268841792,
12,7,1,0,0.027777777777778,3.10526315789474,0,0.111111111111111,1.0,0,0.111111111111111,0.298245614035088,ReadingArea_rsl0-rcl2-esl310-rsm0-rcm11-esm100-rsr0-rcr11-esr29,exr/ReadingArea_rsl0-rcl2-esl310-rsm0-rcm11-esm100-rsr0-rcr11-esr29.exr,ReadingArea_rsl0-rcl2-esl310-rsm0-rcm11-esm100-rsr0-rcr11-esr29.npz,,,,,0,33,33,264,,left,green,0.9,283.4209370613098,283.9242091178894,1,7,5,lightness,readingArea,realistic,75,2023-04-01_12h05.37.928,tripletExp_regina_11082022,2022.2.4,120.3368268841792,
9,8,7,0,0.444444444444444,1.0,0,0.25,1.0,0,0.111111111111111,1.0,ReadingArea_rsl0-rcl44-esl100-rsm0-rcm25-esm100-rsr0-rcr11-esr100,exr/ReadingArea_rsl0-rcl44-esl100-rsm0-rcm25-esm100-rsr0-rcr11-esr100.exr,ReadingArea_rsl0-rcl44-esl100-rsm0-rcm25-esm100-rsr0-rcr11-esr100.npz,,,,,0,34,34,368,,left,green,0.93,285.62731194496155,286.08135890960693,1,7,5,lightness,readingArea,realistic,75,2023-04-01_12h05.37.928,tripletExp_regina_11082022,2022.2.4,120.3368268841792,
4,0,3,0,0.694444444444444,0.298245614035088,0,0.027777777777778,0.298245614035088,0,0.444444444444444,0.298245614035088,ReadingArea_rsl0-rcl69-esl29-rsm0-rcm2-esm29-rsr0-rcr44-esr29,exr/ReadingArea_rsl0-rcl69-esl29-rsm0-rcm2-esm29-rsr0-rcr44-esr29.exr,ReadingArea_rsl0-rcl69-esl29-rsm0-rcm2-esm29-rsr0-rcr44-esr29.npz,,,,,0,35,35,88,,right,red,1.24,287.7788450717926,288.29290294647217,1,7,5,lightness,readingArea,realistic,75,2023-04-01_12h05.37.928,tripletExp_regina_11082022,2022.2.4,120.3368268841792,
7,4,1,0,0.111111111111111,1.0,0,0.694444444444444,0.298245614035088,0,0.111111111111111,0.298245614035088,ReadingArea_rsl0-rcl11-esl100-rsm0-rcm69-esm29-rsr0-rcr11-esr29,exr/ReadingArea_rsl0-rcl11-esl100-rsm0-rcm69-esm29-rsr0-rcr11-esr29.exr,ReadingArea_rsl0-rcl11-esl100-rsm0-rcm69-esm29-rsr0-rcr11-esr29.npz,,,,,0,36,36,369,,left,green,0.88,290.0089440345764,290.4886839389801,1,7,5,lightness,readingArea,realistic,75,2023-04-01_12h05.37.928,tripletExp_regina_11082022,2022.2.4,120.3368268841792,
5,10,2,0,1.0,0.298245614035088,0,0.694444444444444,1.0,0,0.25,0.298245614035088,ReadingArea_rsl0-rcl100-esl29-rsm0-rcm69-esm100-rsr0-rcr25-esr29,exr/ReadingArea_rsl0-rcl100-esl29-rsm0-rcm69-esm100-rsr0-rcr25-esr29.exr,ReadingArea_rsl0-rcl100-esl29-rsm0-rcm69-esm100-rsr0-rcr25-esr29.npz,,,,,0,37,37,489,,left,green,0.82,292.18761801719666,292.82720494270325,1,7,5,lightness,readingArea,realistic,75,2023-04-01_12h05.37.928,tripletExp_regina_11082022,2022.2.4,120.3368268841792,
14,8,2,0,0.25,3.10526315789474,0,0.25,1.0,0,0.25,0.298245614035088,ReadingArea_rsl0-rcl25-esl310-rsm0-rcm25-esm100-rsr0-rcr25-esr29,exr/ReadingArea_rsl0-rcl25-esl310-rsm0-rcm25-esm100-rsr0-rcr25-esr29.exr,ReadingArea_rsl0-rcl25-esl310-rsm0-rcm25-esm100-rsr0-rcr25-esr29.npz,,,,,0,38,38,251,,left,green,1.06,294.5284159183502,,1,7,5,lightness,readingArea,realistic,75,2023-04-01_12h05.37.928,tripletExp_regina_11082022,2022.2.4,120.3368268841792,
8,0,4,0,0.25,1.0,0,0.027777777777778,0.298245614035088,0,0.694444444444444,0.298245614035088,ReadingArea_rsl0-rcl25-esl100-rsm0-rcm2-esm29-rsr0-rcr69-esr29,exr/ReadingArea_rsl0-rcl25-esl100-rsm0-rcm2-esm29-rsr0-rcr69-esr29.exr,ReadingArea_rsl0-rcl25-esl100-rsm0-rcm2-esm29-rsr0-rcr69-esr29.npz,,,,,0,39,39,346,,left,green,1.11,296.7245399951935,297.19459795951843,1,7,5,lightness,readingArea,realistic,75,2023-04-01_12h05.37.928,tripletExp_regina_11082022,2022.2.4,120.3368268841792,
7,10,4,0,0.111111111111111,1.0,0,0.694444444444444,1.0,0,0.694444444444444,0.298245614035088,ReadingArea_rsl0-rcl11-esl100-rsm0-rcm69-esm100-rsr0-rcr69-esr29,exr/ReadingArea_rsl0-rcl11-esl100-rsm0-rcm69-esm100-rsr0-rcr69-esr29.exr,ReadingArea_rsl0-rcl11-esl100-rsm0-rcm69-esm100-rsr0-rcr69-esr29.npz,,,,,0,40,40,46,,right,red,0.96,298.8883430957794,299.5194671154022,1,7,5,lightness,readingArea,realistic,75,2023-04-01_12h05.37.928,tripletExp_regina_11082022,2022.2.4,120.3368268841792,
7,10,5,0,0.111111111111111,1.0,0,0.694444444444444,1.0,0,1.0,0.298245614035088,ReadingArea_rsl0-rcl11-esl100-rsm0-rcm69-esm100-rsr0-rcr100-esr29,exr/ReadingArea_rsl0-rcl11-esl100-rsm0-rcm69-esm100-rsr0-rcr100-esr29.exr,ReadingArea_rsl0-rcl11-esl100-rsm0-rcm69-esm100-rsr0-rcr100-esr29.npz,,,,,0,41,41,395,,right,red,1.01,301.2084350585937,301.7190399169922,1,7,5,lightness,readingArea,realistic,75,2023-04-01_12h05.37.928,tripletExp_regina_11082022,2022.2.4,120.3368268841792,
0,5,2,0,0.027777777777778,0.298245614035088,0,1.0,0.298245614035088,0,0.25,0.298245614035088,ReadingArea_rsl0-rcl2-esl29-rsm0-rcm100-esm29-rsr0-rcr25-esr29,exr/ReadingArea_rsl0-rcl2-esl29-rsm0-rcm100-esm29-rsr0-rcr25-esr29.exr,ReadingArea_rsl0-rcl2-esl29-rsm0-rcm100-esm29-rsr0-rcr25-esr29.npz,,,,,0,42,42,25,,right,red,0.95,303.4237370491028,303.9040069580078,1,7,5,lightness,readingArea,realistic,75,2023-04-01_12h05.37.928,tripletExp_regina_11082022,2022.2.4,120.3368268841792,
5,10,12,0,1.0,0.298245614035088,0,0.694444444444444,1.0,0,0.027777777777778,3.10526315789474,ReadingArea_rsl0-rcl100-esl29-rsm0-rcm69-esm100-rsr0-rcr2-esr310,exr/ReadingArea_rsl0-rcl100-esl29-rsm0-rcm69-esm100-rsr0-rcr2-esr310.exr,ReadingArea_rsl0-rcl100-esl29-rsm0-rcm69-esm100-rsr0-rcr2-esr310.npz,,,,,0,43,43,587,,left,green,0.88,305.60129404067993,306.1757891178131,1,7,5,lightness,readingArea,realistic,75,2023-04-01_12h05.37.928,tripletExp_regina_11082022,2022.2.4,120.3368268841792,
13,2,9,0,0.111111111111111,3.10526315789474,0,0.25,0.298245614035088,0,0.444444444444444,1.0,ReadingArea_rsl0-rcl11-esl310-rsm0-rcm25-esm29-rsr0-rcr44-esr100,exr/ReadingArea_rsl0-rcl11-esl310-rsm0-rcm25-esm29-rsr0-rcr44-esr100.exr,ReadingArea_rsl0-rcl11-esl310-rsm0-rcm25-esm29-rsr0-rcr44-esr100.npz,,,,,0,44,44,457,,left,green,0.94,307.8864040374756,308.3613290786743,1,7,5,lightness,readingArea,realistic,75,2023-04-01_12h05.37.928,tripletExp_regina_11082022,2022.2.4,120.3368268841792,
10,2,0,0,0.694444444444444,1.0,0,0.25,0.298245614035088,0,0.027777777777778,0.298245614035088,ReadingArea_rsl0-rcl69-esl100-rsm0-rcm25-esm29-rsr0-rcr2-esr29,exr/ReadingArea_rsl0-rcl69-esl100-rsm0-rcm25-esm29-rsr0-rcr2-esr29.exr,ReadingArea_rsl0-rcl69-esl100-rsm0-rcm25-esm29-rsr0-rcr2-esr29.npz,,,,,0,45,45,427,,right,red,0.92,310.0642521381378,,1,7,5,lightness,readingArea,realistic,75,2023-04-01_12h05.37.928,tripletExp_regina_11082022,2022.2.4,120.3368268841792,
3,0,4,0,0.444444444444444,0.298245614035088,0,0.027777777777778,0.298245614035088,0,0.694444444444444,0.298245614035088,ReadingArea_rsl0-rcl44-esl29-rsm0-rcm2-esm29-rsr0-rcr69-esr29,exr/ReadingArea_rsl0-rcl44-esl29-rsm0-rcm2-esm29-rsr0-rcr69-esr29.exr,ReadingArea_rsl0-rcl44-esl29-rsm0-rcm2-esm29-rsr0-rcr69-esr29.npz,,,,,0,46,46,111,,left,green,1.11,312.2423560619354,312.72817611694336,1,7,5,lightness,readingArea,realistic,75,2023-04-01_12h05.37.928,tripletExp_regina_11082022,2022.2.4,120.3368268841792,
8,9,6,0,0.25,1.0,0,0.444444444444444,1.0,0,0.027777777777778,1.0,ReadingArea_rsl0-rcl25-esl100-rsm0-rcm44-esm100-rsr0-rcr2-esr100,exr/ReadingArea_rsl0-rcl25-esl100-rsm0-rcm44-esm100-rsr0-rcr2-esr100.exr,ReadingArea_rsl0-rcl25-esl100-rsm0-rcm44-esm100-rsr0-rcr2-esr100.npz,,,,,0,47,47,3,,left,green,0.95,314.44089698791504,314.92191910743713,1,7,5,lightness,readingArea,realistic,75,2023-04-01_12h05.37.928,tripletExp_regina_11082022,2022.2.4,120.3368268841792,
2,1,13,0,0.25,0.298245614035088,0,0.111111111111111,0.298245614035088,0,0.111111111111111,3.10526315789474,ReadingArea_rsl0-rcl25-esl29-rsm0-rcm11-esm29-rsr0-rcr11-esr310,exr/ReadingArea_rsl0-rcl25-esl29-rsm0-rcm11-esm29-rsr0-rcr11-esr310.exr,ReadingArea_rsl0-rcl25-esl29-rsm0-rcm11-esm29-rsr0-rcr11-esr310.npz,,,,,0,48,48,290,,left,green,0.79,316.6296579837799,317.11121797561646,1,7,5,lightness,readingArea,realistic,75,2023-04-01_12h05.37.928,tripletExp_regina_11082022,2022.2.4,120.3368268841792,
6,7,3,0,0.027777777777778,1.0,0,0.111111111111111,1.0,0,0.444444444444444,0.298245614035088,ReadingArea_rsl0-rcl2-esl100-rsm0-rcm11-esm100-rsr0-rcr44-esr29,exr/ReadingArea_rsl0-rcl2-esl100-rsm0-rcm11-esm100-rsr0-rcr44-esr29.exr,ReadingArea_rsl0-rcl2-esl100-rsm0-rcm11-esm100-rsr0-rcr44-esr29.npz,,,,,0,49,49,47,,right,red,0.91,318.8135130405426,319.2944300174713,1,7,5,lightness,readingArea,realistic,75,2023-04-01_12h05.37.928,tripletExp_regina_11082022,2022.2.4,120.3368268841792,
11,7,8,0,1.0,1.0,0,0.111111111111111,1.0,0,0.25,1.0,ReadingArea_rsl0-rcl100-esl100-rsm0-rcm11-esm100-rsr0-rcr25-esr100,exr/ReadingArea_rsl0-rcl100-esl100-rsm0-rcm11-esm100-rsr0-rcr25-esr100.exr,ReadingArea_rsl0-rcl100-esl100-rsm0-rcm11-esm100-rsr0-rcr25-esr100.npz,,,,,0,50,50,37,,right,red,1.39,321.01340913772583,321.49027609825134,1,7,5,lightness,readingArea,realistic,75,2023-04-01_12h05.37.928,tripletExp_regina_11082022,2022.2.4,120.3368268841792,
13,1,3,0,0.111111111111111,3.10526315789474,0,0.111111111111111,0.298245614035088,0,0.444444444444444,0.298245614035088,ReadingArea_rsl0-rcl11-esl310-rsm0-rcm11-esm29-rsr0-rcr44-esr29,exr/ReadingArea_rsl0-rcl11-esl310-rsm0-rcm11-esm29-rsr0-rcr44-esr29.exr,ReadingArea_rsl0-rcl11-esl310-rsm0-rcm11-esm29-rsr0-rcr44-esr29.npz,,,,,0,51,51,588,,right,red,1.24,323.19633507728577,323.65724992752075,1,7,5,lightness,readingArea,realistic,75,2023-04-01_12h05.37.928,tripletExp_regina_11082022,2022.2.4,120.3368268841792,
3,14,12,0,0.444444444444444,0.298245614035088,0,0.25,3.10526315789474,0,0.027777777777778,3.10526315789474,ReadingArea_rsl0-rcl44-esl29-rsm0-rcm25-esm310-rsr0-rcr2-esr310,exr/ReadingArea_rsl0-rcl44-esl29-rsm0-rcm25-esm310-rsr0-rcr2-esr310.exr,ReadingArea_rsl0-rcl44-esl29-rsm0-rcm25-esm310-rsr0-rcr2-esr310.npz,,,,,0,52,52,336,,left,green,1.49,325.3573770523072,325.8295691013336,1,7,5,lightness,readingArea,realistic,75,2023-04-01_12h05.37.928,tripletExp_regina_11082022,2022.2.4,120.3368268841792,
12,11,13,0,0.027777777777778,3.10526315789474,0,1.0,1.0,0,0.111111111111111,3.10526315789474,ReadingArea_rsl0-rcl2-esl310-rsm0-rcm100-esm100-rsr0-rcr11-esr310,exr/ReadingArea_rsl0-rcl2-esl310-rsm0-rcm100-esm100-rsr0-rcr11-esr310.exr,ReadingArea_rsl0-rcl2-esl310-rsm0-rcm100-esm100-rsr0-rcr11-esr310.npz,,,,,0,53,53,151,,right,red,1.02,327.5199840068817,328.0045909881592,1,7,5,lightness,readingArea,realistic,75,2023-04-01_12h05.37.928,tripletExp_regina_11082022,2022.2.4,120.3368268841792,
14,13,0,0,0.25,3.10526315789474,0,0.111111111111111,3.10526315789474,0,0.027777777777778,0.298245614035088,ReadingArea_rsl0-rcl25-esl310-rsm0-rcm11-esm310-rsr0-rcr2-esr29,exr/ReadingArea_rsl0-rcl25-esl310-rsm0-rcm11-esm310-rsr0-rcr2-esr29.exr,ReadingArea_rsl0-rcl25-esl310-rsm0-rcm11-esm310-rsr0-rcr2-esr29.npz,,,,,0,54,54,417,,left,green,0.69,329.7111940383911,330.18837809562683,1,7,5,lightness,readingArea,realistic,75,2023-04-01_12h05.37.928,tripletExp_regina_11082022,2022.2.4,120.3368268841792,
3,2,11,0,0.444444444444444,0.298245614035088,0,0.25,0.298245614035088,0,1.0,1.0,ReadingArea_rsl0-rcl44-esl29-rsm0-rcm25-esm29-rsr0-rcr100-esr100,exr/ReadingArea_rsl0-rcl44-esl29-rsm0-rcm25-esm29-rsr0-rcr100-esr100.exr,ReadingArea_rsl0-rcl44-esl29-rsm0-rcm25-esm29-rsr0-rcr100-esr100.npz,,,,,0,55,55,257,,left,green,0.99,331.8941149711609,332.38632798194885,1,7,5,lightness,readingArea,realistic,75,2023-04-01_12h05.37.928,tripletExp_regina_11082022,2022.2.4,120.3368268841792,
8,14,3,0,0.25,1.0,0,0.25,3.10526315789474,0,0.444444444444444,0.298245614035088,ReadingArea_rsl0-rcl25-esl100-rsm0-rcm25-esm310-rsr0-rcr44-esr29,exr/ReadingArea_rsl0-rcl25-esl100-rsm0-rcm25-esm310-rsr0-rcr44-esr29.exr,ReadingArea_rsl0-rcl25-esl100-rsm0-rcm25-esm310-rsr0-rcr44-esr29.npz,,,,,0,56,56,503,,left,green,1.27,334.0990619659424,334.5831880569458,1,7,5,lightness,readingArea,realistic,75,2023-04-01_12h05.37.928,tripletExp_regina_11082022,2022.2.4,120.3368268841792,
9,14,7,0,0.444444444444444,1.0,0,0.25,3.10526315789474,0,0.111111111111111,1.0,ReadingArea_rsl0-rcl44-esl100-rsm0-rcm25-esm310-rsr0-rcr11-esr100,exr/ReadingArea_rsl0-rcl44-esl100-rsm0-rcm25-esm310-rsr0-rcr11-esr100.exr,ReadingArea_rsl0-rcl44-esl100-rsm0-rcm25-esm310-rsr0-rcr11-esr100.npz,,,,,0,57,57,44,,left,green,0.9,336.28107500076294,336.8481559753418,1,7,5,lightness,readingArea,realistic,75,2023-04-01_12h05.37.928,tripletExp_regina_11082022,2022.2.4,120.3368268841792,
7,5,1,0,0.111111111111111,1.0,0,1.0,0.298245614035088,0,0.111111111111111,0.298245614035088,ReadingArea_rsl0-rcl11-esl100-rsm0-rcm100-esm29-rsr0-rcr11-esr29,exr/ReadingArea_rsl0-rcl11-esl100-rsm0-rcm100-esm29-rsr0-rcr11-esr29.exr,ReadingArea_rsl0-rcl11-esl100-rsm0-rcm100-esm29-rsr0-rcr11-esr29.npz,,,,,0,58,58,513,,left,green,1.12,338.555135011673,339.0495359897613,1,7,5,lightness,readingArea,realistic,75,2023-04-01_12h05.37.928,tripletExp_regina_11082022,2022.2.4,120.3368268841792,
7,3,0,0,0.111111111111111,1.0,0,0.444444444444444,0.298245614035088,0,0.027777777777778,0.298245614035088,ReadingArea_rsl0-rcl11-esl100-rsm0-rcm44-esm29-rsr0-rcr2-esr29,exr/ReadingArea_rsl0-rcl11-esl100-rsm0-rcm44-esm29-rsr0-rcr2-esr29.exr,ReadingArea_rsl0-rcl11-esl100-rsm0-rcm44-esm29-rsr0-rcr2-esr29.npz,,,,,0,59,59,318,,left,green,0.84,340.7466359138489,341.225193977356,1,7,5,lightness,readingArea,realistic,75,2023-04-01_12h05.37.928,tripletExp_regina_11082022,2022.2.4,120.3368268841792,
5,2,8,0,1.0,0.298245614035088,0,0.25,0.298245614035088,0,0.25,1.0,ReadingArea_rsl0-rcl100-esl29-rsm0-rcm25-esm29-rsr0-rcr25-esr100,exr/ReadingArea_rsl0-rcl100-esl29-rsm0-rcm25-esm29-rsr0-rcr25-esr100.exr,ReadingArea_rsl0-rcl100-esl29-rsm0-rcm25-esm29-rsr0-rcr25-esr100.npz,,,,,0,60,60,538,,left,green,1.06,342.91619300842285,343.4024279117584,1,7,5,lightness,readingArea,realistic,75,2023-04-01_12h05.37.928,tripletExp_regina_11082022,2022.2.4,120.3368268841792,
7,4,6,0,0.111111111111111,1.0,0,0.694444444444444,0.298245614035088,0,0.027777777777778,1.0,ReadingArea_rsl0-rcl11-esl100-rsm0-rcm69-esm29-rsr0-rcr2-esr100,exr/ReadingArea_rsl0-rcl11-esl100-rsm0-rcm69-esm29-rsr0-rcr2-esr100.exr,ReadingArea_rsl0-rcl11-esl100-rsm0-rcm69-esm29-rsr0-rcr2-esr100.npz,,,,,0,61,61,528,,left,green,1.36,345.1202630996704,345.57963514328003,1,7,5,lightness,readingArea,realistic,75,2023-04-01_12h05.37.928,tripletExp_regina_11082022,2022.2.4,120.3368268841792,
2,5,3,0,0.25,0.298245614035088,0,1.0,0.298245614035088,0,0.444444444444444,0.298245614035088,ReadingArea_rsl0-rcl25-esl29-rsm0-rcm100-esm29-rsr0-rcr44-esr29,exr/ReadingArea_rsl0-rcl25-esl29-rsm0-rcm100-esm29-rsr0-rcr44-esr29.exr,ReadingArea_rsl0-rcl25-esl29-rsm0-rcm100-esm29-rsr0-rcr44-esr29.npz,,,,,0,62,62,135,,right,red,1.11,347.2816641330719,347.7684009075165,1,7,5,lightness,readingArea,realistic,75,2023-04-01_12h05.37.928,tripletExp_regina_11082022,2022.2.4,120.3368268841792,
1,4,7,0,0.111111111111111,0.298245614035088,0,0.694444444444444,0.298245614035088,0,0.111111111111111,1.0,ReadingArea_rsl0-rcl11-esl29-rsm0-rcm69-esm29-rsr0-rcr11-esr100,exr/ReadingArea_rsl0-rcl11-esl29-rsm0-rcm69-esm29-rsr0-rcr11-esr100.exr,ReadingArea_rsl0-rcl11-esl29-rsm0-rcm69-esm29-rsr0-rcr11-esr100.npz,,,,,0,63,63,522,,right,red,0.75,349.479856967926,349.9890849590301,1,7,5,lightness,readingArea,realistic,75,2023-04-01_12h05.37.928,tripletExp_regina_11082022,2022.2.4,120.3368268841792,
13,6,8,0,0.111111111111111,3.10526315789474,0,0.027777777777778,1.0,0,0.25,1.0,ReadingArea_rsl0-rcl11-esl310-rsm0-rcm2-esm100-rsr0-rcr25-esr100,exr/ReadingArea_rsl0-rcl11-esl310-rsm0-rcm2-esm100-rsr0-rcr25-esr100.exr,ReadingArea_rsl0-rcl11-esl310-rsm0-rcm2-esm100-rsr0-rcr25-esr100.npz,,,,,0,64,64,340,,right,red,2.35,353.4703130722046,353.9490079879761,1,7,5,lightness,readingArea,realistic,75,2023-04-01_12h05.37.928,tripletExp_regina_11082022,2022.2.4,120.3368268841792,
0,8,3,0,0.027777777777778,0.298245614035088,0,0.25,1.0,0,0.444444444444444,0.298245614035088,ReadingArea_rsl0-rcl2-esl29-rsm0-rcm25-esm100-rsr0-rcr44-esr29,exr/ReadingArea_rsl0-rcl2-esl29-rsm0-rcm25-esm100-rsr0-rcr44-esr29.exr,ReadingArea_rsl0-rcl2-esl29-rsm0-rcm25-esm100-rsr0-rcr44-esr29.npz,,,,,0,65,65,301,,right,red,1.03,355.6573119163513,356.1492660045624,1,7,5,lightness,readingArea,realistic,75,2023-04-01_12h05.37.928,tripletExp_regina_11082022,2022.2.4,120.3368268841792,
4,7,10,0,0.694444444444444,0.298245614035088,0,0.111111111111111,1.0,0,0.694444444444444,1.0,ReadingArea_rsl0-rcl69-esl29-rsm0-rcm11-esm100-rsr0-rcr69-esr100,exr/ReadingArea_rsl0-rcl69-esl29-rsm0-rcm11-esm100-rsr0-rcr69-esr100.exr,ReadingArea_rsl0-rcl69-esl29-rsm0-rcm11-esm100-rsr0-rcr69-esr100.npz,,,,,0,66,66,8,,left,green,0.94,357.8360879421234,358.3049659729004,1,7,5,lightness,readingArea,realistic,75,2023-04-01_12h05.37.928,tripletExp_regina_11082022,2022.2.4,120.3368268841792,
11,4,0,0,1.0,1.0,0,0.694444444444444,0.298245614035088,0,0.027777777777778,0.298245614035088,ReadingArea_rsl0-rcl100-esl100-rsm0-rcm69-esm29-rsr0-rcr2-esr29,exr/ReadingArea_rsl0-rcl100-esl100-rsm0-rcm69-esm29-rsr0-rcr2-esr29.exr,ReadingArea_rsl0-rcl100-esl100-rsm0-rcm69-esm29-rsr0-rcr2-esr29.npz,,,,,0,67,67,219,,right,red,1.21,359.9964339733124,,1,7,5,lightness,readingArea,realistic,75,2023-04-01_12h05.37.928,tripletExp_regina_11082022,2022.2.4,120.3368268841792,
7,2,6,0,0.111111111111111,1.0,0,0.25,0.298245614035088,0,0.027777777777778,1.0,ReadingArea_rsl0-rcl11-esl100-rsm0-rcm25-esm29-rsr0-rcr2-esr100,exr/ReadingArea_rsl0-rcl11-esl100-rsm0-rcm25-esm29-rsr0-rcr2-esr100.exr,ReadingArea_rsl0-rcl11-esl100-rsm0-rcm25-esm29-rsr0-rcr2-esr100.npz,,,,,0,68,68,506,,left,green,2.25,363.9681420326233,364.4475140571594,1,7,5,lightness,readingArea,realistic,75,2023-04-01_12h05.37.928,tripletExp_regina_11082022,2022.2.4,120.3368268841792,
9,7,3,0,0.444444444444444,1.0,0,0.111111111111111,1.0,0,0.444444444444444,0.298245614035088,ReadingArea_rsl0-rcl44-esl100-rsm0-rcm11-esm100-rsr0-rcr44-esr29,exr/ReadingArea_rsl0-rcl44-esl100-rsm0-rcm11-esm100-rsr0-rcr44-esr29.exr,ReadingArea_rsl0-rcl44-esl100-rsm0-rcm11-esm100-rsr0-rcr44-esr29.npz,,,,,0,69,69,235,,right,red,1.06,366.1456251144409,366.6217730045319,1,7,5,lightness,readingArea,realistic,75,2023-04-01_12h05.37.928,tripletExp_regina_11082022,2022.2.4,120.3368268841792,
4,8,3,0,0.694444444444444,0.298245614035088,0,0.25,1.0,0,0.444444444444444,0.298245614035088,ReadingArea_rsl0-rcl69-esl29-rsm0-rcm25-esm100-rsr0-rcr44-esr29,exr/ReadingArea_rsl0-rcl69-esl29-rsm0-rcm25-esm100-rsr0-rcr44-esr29.exr,ReadingArea_rsl0-rcl69-esl29-rsm0-rcm25-esm100-rsr0-rcr44-esr29.npz,,,,,0,70,70,292,,left,green,2.27,370.1170201301575,370.7016611099243,1,7,5,lightness,readingArea,realistic,75,2023-04-01_12h05.37.928,tripletExp_regina_11082022,2022.2.4,120.3368268841792,
0,1,6,0,0.027777777777778,0.298245614035088,0,0.111111111111111,0.298245614035088,0,0.027777777777778,1.0,ReadingArea_rsl0-rcl2-esl29-rsm0-rcm11-esm29-rsr0-rcr2-esr100,exr/ReadingArea_rsl0-rcl2-esl29-rsm0-rcm11-esm29-rsr0-rcr2-esr100.exr,ReadingArea_rsl0-rcl2-esl29-rsm0-rcm11-esm29-rsr0-rcr2-esr100.npz,,,,,0,71,71,375,,right,red,0.88,372.4046239852905,372.88261795043945,1,7,5,lightness,readingArea,realistic,75,2023-04-01_12h05.37.928,tripletExp_regina_11082022,2022.2.4,120.3368268841792,
8,14,6,0,0.25,1.0,0,0.25,3.10526315789474,0,0.027777777777778,1.0,ReadingArea_rsl0-rcl25-esl100-rsm0-rcm25-esm310-rsr0-rcr2-esr100,exr/ReadingArea_rsl0-rcl25-esl100-rsm0-rcm25-esm310-rsr0-rcr2-esr100.exr,ReadingArea_rsl0-rcl25-esl100-rsm0-rcm25-esm310-rsr0-rcr2-esr100.npz,,,,,0,72,72,469,,left,green,0.85,374.5879490375519,375.0379800796509,1,7,5,lightness,readingArea,realistic,75,2023-04-01_12h05.37.928,tripletExp_regina_11082022,2022.2.4,120.3368268841792,
5,1,13,0,1.0,0.298245614035088,0,0.111111111111111,0.298245614035088,0,0.111111111111111,3.10526315789474,ReadingArea_rsl0-rcl100-esl29-rsm0-rcm11-esm29-rsr0-rcr11-esr310,exr/ReadingArea_rsl0-rcl100-esl29-rsm0-rcm11-esm29-rsr0-rcr11-esr310.exr,ReadingArea_rsl0-rcl100-esl29-rsm0-rcm11-esm29-rsr0-rcr11-esr310.npz,,,,,0,73,73,594,,right,red,2.82,378.514897108078,378.9950621128082,1,7,5,lightness,readingArea,realistic,75,2023-04-01_12h05.37.928,tripletExp_regina_11082022,2022.2.4,120.3368268841792,
2,14,9,0,0.25,0.298245614035088,0,0.25,3.10526315789474,0,0.444444444444444,1.0,ReadingArea_rsl0-rcl25-esl29-rsm0-rcm25-esm310-rsr0-rcr44-esr100,exr/ReadingArea_rsl0-rcl25-esl29-rsm0-rcm25-esm310-rsr0-rcr44-esr100.exr,ReadingArea_rsl0-rcl25-esl29-rsm0-rcm25-esm310-rsr0-rcr44-esr100.npz,,,,,0,74,74,51,,right,red,0.93,380.698872089386,380.8991379737854,1,7,5,lightness,readingArea,realistic,75,2023-04-01_12h05.37.928,tripletExp_regina_11082022,2022.2.4,120.3368268841792,
2,10,6,0,0.25,0.298245614035088,0,0.694444444444444,1.0,0,0.027777777777778,1.0,ReadingArea_rsl0-rcl25-esl29-rsm0-rcm69-esm100-rsr0-rcr2-esr100,exr/ReadingArea_rsl0-rcl25-esl29-rsm0-rcm69-esm100-rsr0-rcr2-esr100.exr,ReadingArea_rsl0-rcl25-esl29-rsm0-rcm69-esm100-rsr0-rcr2-esr100.npz,,,,,0,75,75,4,,left,green,1.35,467.8542029857636,468.5256221294403,2,7,5,lightness,readingArea,realistic,75,2023-04-01_12h05.37.928,tripletExp_regina_11082022,2022.2.4,120.3368268841792,
1,5,7,0,0.111111111111111,0.298245614035088,0,1.0,0.298245614035088,0,0.111111111111111,1.0,ReadingArea_rsl0-rcl11-esl29-rsm0-rcm100-esm29-rsr0-rcr11-esr100,exr/ReadingArea_rsl0-rcl11-esl29-rsm0-rcm100-esm29-rsr0-rcr11-esr100.exr,ReadingArea_rsl0-rcl11-esl29-rsm0-rcm100-esm29-rsr0-rcr11-esr100.npz,,,,,0,76,76,197,,right,red,1.12,470.24055790901184,470.7223861217499,2,7,5,lightness,readingArea,realistic,75,2023-04-01_12h05.37.928,tripletExp_regina_11082022,2022.2.4,120.3368268841792,
6,3,1,0,0.027777777777778,1.0,0,0.444444444444444,0.298245614035088,0,0.111111111111111,0.298245614035088,ReadingArea_rsl0-rcl2-esl100-rsm0-rcm44-esm29-rsr0-rcr11-esr29,exr/ReadingArea_rsl0-rcl2-esl100-rsm0-rcm44-esm29-rsr0-rcr11-esr29.exr,ReadingArea_rsl0-rcl2-esl100-rsm0-rcm44-esm29-rsr0-rcr11-esr29.npz,,,,,0,77,77,430,,right,red,1.13,472.4279041290283,472.89880204200745,2,7,5,lightness,readingArea,realistic,75,2023-04-01_12h05.37.928,tripletExp_regina_11082022,2022.2.4,120.3368268841792,
9,12,11,0,0.444444444444444,1.0,0,0.027777777777778,3.10526315789474,0,1.0,1.0,ReadingArea_rsl0-rcl44-esl100-rsm0-rcm2-esm310-rsr0-rcr100-esr100,exr/ReadingArea_rsl0-rcl44-esl100-rsm0-rcm2-esm310-rsr0-rcr100-esr100.exr,ReadingArea_rsl0-rcl44-esl100-rsm0-rcm2-esm310-rsr0-rcr100-esr100.npz,,,,,0,78,78,144,,left,green,0.97,474.61210894584656,475.0946500301361,2,7,5,lightness,readingArea,realistic,75,2023-04-01_12h05.37.928,tripletExp_regina_11082022,2022.2.4,120.3368268841792,
14,4,7,0,0.25,3.10526315789474,0,0.694444444444444,0.298245614035088,0,0.111111111111111,1.0,ReadingArea_rsl0-rcl25-esl310-rsm0-rcm69-esm29-rsr0-rcr11-esr100,exr/ReadingArea_rsl0-rcl25-esl310-rsm0-rcm69-esm29-rsr0-rcr11-esr100.exr,ReadingArea_rsl0-rcl25-esl310-rsm0-rcm69-esm29-rsr0-rcr11-esr100.npz,,,,,0,79,79,136,,right,red,1.18,476.7983169555664,,2,7,5,lightness,readingArea,realistic,75,2023-04-01_12h05.37.928,tripletExp_regina_11082022,2022.2.4,120.3368268841792,
10,6,3,0,0.694444444444444,1.0,0,0.027777777777778,1.0,0,0.444444444444444,0.298245614035088,ReadingArea_rsl0-rcl69-esl100-rsm0-rcm2-esm100-rsr0-rcr44-esr29,exr/ReadingArea_rsl0-rcl69-esl100-rsm0-rcm2-esm100-rsr0-rcr44-esr29.exr,ReadingArea_rsl0-rcl69-esl100-rsm0-rcm2-esm100-rsr0-rcr44-esr29.npz,,,,,0,80,80,0,,right,red,1.45,478.9836070537567,479.6253550052643,2,7,5,lightness,readingArea,realistic,75,2023-04-01_12h05.37.928,tripletExp_regina_11082022,2022.2.4,120.3368268841792,
10,6,13,0,0.694444444444444,1.0,0,0.027777777777778,1.0,0,0.111111111111111,3.10526315789474,ReadingArea_rsl0-rcl69-esl100-rsm0-rcm2-esm100-rsr0-rcr11-esr310,exr/ReadingArea_rsl0-rcl69-esl100-rsm0-rcm2-esm100-rsr0-rcr11-esr310.exr,ReadingArea_rsl0-rcl69-esl100-rsm0-rcm2-esm100-rsr0-rcr11-esr310.npz,,,,,0,81,81,41,,right,red,2.9,483.0880479812622,483.5677011013031,2,7,5,lightness,readingArea,realistic,75,2023-04-01_12h05.37.928,tripletExp_regina_11082022,2022.2.4,120.3368268841792,
14,3,6,0,0.25,3.10526315789474,0,0.444444444444444,0.298245614035088,0,0.027777777777778,1.0,ReadingArea_rsl0-rcl25-esl310-rsm0-rcm44-esm29-rsr0-rcr2-esr100,exr/ReadingArea_rsl0-rcl25-esl310-rsm0-rcm44-esm29-rsr0-rcr2-esr100.exr,ReadingArea_rsl0-rcl25-esl310-rsm0-rcm44-esm29-rsr0-rcr2-esr100.npz,,,,,0,82,82,244,,right,red,1.15,485.2649419307709,485.7388141155243,2,7,5,lightness,readingArea,realistic,75,2023-04-01_12h05.37.928,tripletExp_regina_11082022,2022.2.4,120.3368268841792,
10,7,8,0,0.694444444444444,1.0,0,0.111111111111111,1.0,0,0.25,1.0,ReadingArea_rsl0-rcl69-esl100-rsm0-rcm11-esm100-rsr0-rcr25-esr100,exr/ReadingArea_rsl0-rcl69-esl100-rsm0-rcm11-esm100-rsr0-rcr25-esr100.exr,ReadingArea_rsl0-rcl69-esl100-rsm0-rcm11-esm100-rsr0-rcr25-esr100.npz,,,,,0,83,83,57,,right,red,1.2,487.4344770908356,487.9028079509735,2,7,5,lightness,readingArea,realistic,75,2023-04-01_12h05.37.928,tripletExp_regina_11082022,2022.2.4,120.3368268841792,
10,7,3,0,0.694444444444444,1.0,0,0.111111111111111,1.0,0,0.444444444444444,0.298245614035088,ReadingArea_rsl0-rcl69-esl100-rsm0-rcm11-esm100-rsr0-rcr44-esr29,exr/ReadingArea_rsl0-rcl69-esl100-rsm0-rcm11-esm100-rsr0-rcr44-esr29.exr,ReadingArea_rsl0-rcl69-esl100-rsm0-rcm11-esm100-rsr0-rcr44-esr29.npz,,,,,0,84,84,582,,right,red,1.02,489.6158130168915,490.1369540691376,2,7,5,lightness,readingArea,realistic,75,2023-04-01_12h05.37.928,tripletExp_regina_11082022,2022.2.4,120.3368268841792,
1,13,8,0,0.111111111111111,0.298245614035088,0,0.111111111111111,3.10526315789474,0,0.25,1.0,ReadingArea_rsl0-rcl11-esl29-rsm0-rcm11-esm310-rsr0-rcr25-esr100,exr/ReadingArea_rsl0-rcl11-esl29-rsm0-rcm11-esm310-rsr0-rcr25-esr100.exr,ReadingArea_rsl0-rcl11-esl29-rsm0-rcm11-esm310-rsr0-rcr25-esr100.npz,,,,,0,85,85,64,,right,red,0.99,491.8352611064911,492.3253319263458,2,7,5,lightness,readingArea,realistic,75,2023-04-01_12h05.37.928,tripletExp_regina_11082022,2022.2.4,120.3368268841792,
11,0,10,0,1.0,1.0,0,0.027777777777778,0.298245614035088,0,0.694444444444444,1.0,ReadingArea_rsl0-rcl100-esl100-rsm0-rcm2-esm29-rsr0-rcr69-esr100,exr/ReadingArea_rsl0-rcl100-esl100-rsm0-rcm2-esm29-rsr0-rcr69-esr100.exr,ReadingArea_rsl0-rcl100-esl100-rsm0-rcm2-esm29-rsr0-rcr69-esr100.npz,,,,,0,86,86,259,,left,green,1.09,494.03048491477966,494.4922339916229,2,7,5,lightness,readingArea,realistic,75,2023-04-01_12h05.37.928,tripletExp_regina_11082022,2022.2.4,120.3368268841792,
12,10,5,0,0.027777777777778,3.10526315789474,0,0.694444444444444,1.0,0,1.0,0.298245614035088,ReadingArea_rsl0-rcl2-esl310-rsm0-rcm69-esm100-rsr0-rcr100-esr29,exr/ReadingArea_rsl0-rcl2-esl310-rsm0-rcm69-esm100-rsr0-rcr100-esr29.exr,ReadingArea_rsl0-rcl2-esl310-rsm0-rcm69-esm100-rsr0-rcr100-esr29.npz,,,,,0,87,87,470,,right,red,1.2,496.19946813583374,496.6731700897217,2,7,5,lightness,readingArea,realistic,75,2023-04-01_12h05.37.928,tripletExp_regina_11082022,2022.2.4,120.3368268841792,
14,10,9,0,0.25,3.10526315789474,0,0.694444444444444,1.0,0,0.444444444444444,1.0,ReadingArea_rsl0-rcl25-esl310-rsm0-rcm69-esm100-rsr0-rcr44-esr100,exr/ReadingArea_rsl0-rcl25-esl310-rsm0-rcm69-esm100-rsr0-rcr44-esr100.exr,ReadingArea_rsl0-rcl25-esl310-rsm0-rcm69-esm100-rsr0-rcr44-esr100.npz,,,,,0,88,88,402,,right,red,1.18,498.36772894859314,498.8466339111328,2,7,5,lightness,readingArea,realistic,75,2023-04-01_12h05.37.928,tripletExp_regina_11082022,2022.2.4,120.3368268841792,
8,0,6,0,0.25,1.0,0,0.027777777777778,0.298245614035088,0,0.027777777777778,1.0,ReadingArea_rsl0-rcl25-esl100-rsm0-rcm2-esm29-rsr0-rcr2-esr100,exr/ReadingArea_rsl0-rcl25-esl100-rsm0-rcm2-esm29-rsr0-rcr2-esr100.exr,ReadingArea_rsl0-rcl25-esl100-rsm0-rcm2-esm29-rsr0-rcr2-esr100.npz,,,,,0,89,89,401,,right,red,0.81,500.535197019577,,2,7,5,lightness,readingArea,realistic,75,2023-04-01_12h05.37.928,tripletExp_regina_11082022,2022.2.4,120.3368268841792,
7,0,3,0,0.111111111111111,1.0,0,0.027777777777778,0.298245614035088,0,0.444444444444444,0.298245614035088,ReadingArea_rsl0-rcl11-esl100-rsm0-rcm2-esm29-rsr0-rcr44-esr29,exr/ReadingArea_rsl0-rcl11-esl100-rsm0-rcm2-esm29-rsr0-rcr44-esr29.exr,ReadingArea_rsl0-rcl11-esl100-rsm0-rcm2-esm29-rsr0-rcr44-esr29.npz,,,,,0,90,90,237,,left,green,1.11,502.7959070205689,503.2740359306336,2,7,5,lightness,readingArea,realistic,75,2023-04-01_12h05.37.928,tripletExp_regina_11082022,2022.2.4,120.3368268841792,
6,4,13,0,0.027777777777778,1.0,0,0.694444444444444,0.298245614035088,0,0.111111111111111,3.10526315789474,ReadingArea_rsl0-rcl2-esl100-rsm0-rcm69-esm29-rsr0-rcr11-esr310,exr/ReadingArea_rsl0-rcl2-esl100-rsm0-rcm69-esm29-rsr0-rcr11-esr310.exr,ReadingArea_rsl0-rcl2-esl100-rsm0-rcm69-esm29-rsr0-rcr11-esr310.npz,,,,,0,91,91,202,,right,red,0.82,504.9668819904328,505.5386230945587,2,7,5,lightness,readingArea,realistic,75,2023-04-01_12h05.37.928,tripletExp_regina_11082022,2022.2.4,120.3368268841792,
7,12,1,0,0.111111111111111,1.0,0,0.027777777777778,3.10526315789474,0,0.111111111111111,0.298245614035088,ReadingArea_rsl0-rcl11-esl100-rsm0-rcm2-esm310-rsr0-rcr11-esr29,exr/ReadingArea_rsl0-rcl11-esl100-rsm0-rcm2-esm310-rsr0-rcr11-esr29.exr,ReadingArea_rsl0-rcl11-esl100-rsm0-rcm2-esm310-rsr0-rcr11-esr29.npz,,,,,0,92,92,20,,left,green,2.27,509.0251729488373,509.5036151409149,2,7,5,lightness,readingArea,realistic,75,2023-04-01_12h05.37.928,tripletExp_regina_11082022,2022.2.4,120.3368268841792,
1,10,0,0,0.111111111111111,0.298245614035088,0,0.694444444444444,1.0,0,0.027777777777778,0.298245614035088,ReadingArea_rsl0-rcl11-esl29-rsm0-rcm69-esm100-rsr0-rcr2-esr29,exr/ReadingArea_rsl0-rcl11-esl29-rsm0-rcm69-esm100-rsr0-rcr2-esr29.exr,ReadingArea_rsl0-rcl11-esl29-rsm0-rcm69-esm100-rsr0-rcr2-esr29.npz,,,,,0,93,93,196,,left,green,1.0,511.19218492507935,511.6885409355164,2,7,5,lightness,readingArea,realistic,75,2023-04-01_12h05.37.928,tripletExp_regina_11082022,2022.2.4,120.3368268841792,
9,4,6,0,0.444444444444444,1.0,0,0.694444444444444,0.298245614035088,0,0.027777777777778,1.0,ReadingArea_rsl0-rcl44-esl100-rsm0-rcm69-esm29-rsr0-rcr2-esr100,exr/ReadingArea_rsl0-rcl44-esl100-rsm0-rcm69-esm29-rsr0-rcr2-esr100.exr,ReadingArea_rsl0-rcl44-esl100-rsm0-rcm69-esm29-rsr0-rcr2-esr100.npz,,,,,0,94,94,453,,left,green,1.16,513.380420923233,513.890242099762,2,7,5,lightness,readingArea,realistic,75,2023-04-01_12h05.37.928,tripletExp_regina_11082022,2022.2.4,120.3368268841792,
5,4,1,0,1.0,0.298245614035088,0,0.694444444444444,0.298245614035088,0,0.111111111111111,0.298245614035088,ReadingArea_rsl0-rcl100-esl29-rsm0-rcm69-esm29-rsr0-rcr11-esr29,exr/ReadingArea_rsl0-rcl100-esl29-rsm0-rcm69-esm29-rsr0-rcr11-esr29.exr,ReadingArea_rsl0-rcl100-esl29-rsm0-rcm69-esm29-rsr0-rcr11-esr29.npz,,,,,0,95,95,560,,left,green,0.87,515.5762720108032,516.0479190349579,2,7,5,lightness,readingArea,realistic,75,2023-04-01_12h05.37.928,tripletExp_regina_11082022,2022.2.4,120.3368268841792,
12,10,6,0,0.027777777777778,3.10526315789474,0,0.694444444444444,1.0,0,0.027777777777778,1.0,ReadingArea_rsl0-rcl2-esl310-rsm0-rcm69-esm100-rsr0-rcr2-esr100,exr/ReadingArea_rsl0-rcl2-esl310-rsm0-rcm69-esm100-rsr0-rcr2-esr100.exr,ReadingArea_rsl0-rcl2-esl310-rsm0-rcm69-esm100-rsr0-rcr2-esr100.npz,,,,,0,96,96,273,,left,green,1.16,517.7426021099091,518.2187111377716,2,7,5,lightness,readingArea,realistic,75,2023-04-01_12h05.37.928,tripletExp_regina_11082022,2022.2.4,120.3368268841792,
2,6,0,0,0.25,0.298245614035088,0,0.027777777777778,1.0,0,0.027777777777778,0.298245614035088,ReadingArea_rsl0-rcl25-esl29-rsm0-rcm2-esm100-rsr0-rcr2-esr29,exr/ReadingArea_rsl0-rcl25-esl29-rsm0-rcm2-esm100-rsr0-rcr2-esr29.exr,ReadingArea_rsl0-rcl25-esl29-rsm0-rcm2-esm100-rsr0-rcr2-esr29.npz,,,,,0,97,97,525,,left,green,1.0,519.9422891139984,520.4325621128082,2,7,5,lightness,readingArea,realistic,75,2023-04-01_12h05.37.928,tripletExp_regina_11082022,2022.2.4,120.3368268841792,
7,1,9,0,0.111111111111111,1.0,0,0.111111111111111,0.298245614035088,0,0.444444444444444,1.0,ReadingArea_rsl0-rcl11-esl100-rsm0-rcm11-esm29-rsr0-rcr44-esr100,exr/ReadingArea_rsl0-rcl11-esl100-rsm0-rcm11-esm29-rsr0-rcr44-esr100.exr,ReadingArea_rsl0-rcl11-esl100-rsm0-rcm11-esm29-rsr0-rcr44-esr100.npz,,,,,0,98,98,89,,left,green,1.55,522.1215901374817,522.5810151100159,2,7,5,lightness,readingArea,realistic,75,2023-04-01_12h05.37.928,tripletExp_regina_11082022,2022.2.4,120.3368268841792,
13,6,10,0,0.111111111111111,3.10526315789474,0,0.027777777777778,1.0,0,0.694444444444444,1.0,ReadingArea_rsl0-rcl11-esl310-rsm0-rcm2-esm100-rsr0-rcr69-esr100,exr/ReadingArea_rsl0-rcl11-esl310-rsm0-rcm2-esm100-rsr0-rcr69-esr100.exr,ReadingArea_rsl0-rcl11-esl310-rsm0-rcm2-esm100-rsr0-rcr69-esr100.npz,,,,,0,99,99,593,,left,green,1.07,524.269406080246,524.7852129936218,2,7,5,lightness,readingArea,realistic,75,2023-04-01_12h05.37.928,tripletExp_regina_11082022,2022.2.4,120.3368268841792,
4,14,1,0,0.694444444444444,0.298245614035088,0,0.25,3.10526315789474,0,0.111111111111111,0.298245614035088,ReadingArea_rsl0-rcl69-esl29-rsm0-rcm25-esm310-rsr0-rcr11-esr29,exr/ReadingArea_rsl0-rcl69-esl29-rsm0-rcm25-esm310-rsr0-rcr11-esr29.exr,ReadingArea_rsl0-rcl69-esl29-rsm0-rcm25-esm310-rsr0-rcr11-esr29.npz,,,,,0,100,100,477,,left,green,1.06,526.4881219863892,526.9696180820465,2,7,5,lightness,readingArea,realistic,75,2023-04-01_12h05.37.928,tripletExp_regina_11082022,2022.2.4,120.3368268841792,
12,9,14,0,0.027777777777778,3.10526315789474,0,0.444444444444444,1.0,0,0.25,3.10526315789474,ReadingArea_rsl0-rcl2-esl310-rsm0-rcm44-esm100-rsr0-rcr25-esr310,exr/ReadingArea_rsl0-rcl2-esl310-rsm0-rcm44-esm100-rsr0-rcr25-esr310.exr,ReadingArea_rsl0-rcl2-esl310-rsm0-rcm44-esm100-rsr0-rcr25-esr310.npz,,,,,0,101,101,123,,right,red,0.89,528.6610391139984,529.1695110797882,2,7,5,lightness,readingArea,realistic,75,2023-04-01_12h05.37.928,tripletExp_regina_11082022,2022.2.4,120.3368268841792,
3,12,4,0,0.444444444444444,0.298245614035088,0,0.027777777777778,3.10526315789474,0,0.694444444444444,0.298245614035088,ReadingArea_rsl0-rcl44-esl29-rsm0-rcm2-esm310-rsr0-rcr69-esr29,exr/ReadingArea_rsl0-rcl44-esl29-rsm0-rcm2-esm310-rsr0-rcr69-esr29.exr,ReadingArea_rsl0-rcl44-esl29-rsm0-rcm2-esm310-rsr0-rcr69-esr29.npz,,,,,0,102,102,426,,left,green,1.29,530.8823051452637,531.4597570896149,2,7,5,lightness,readingArea,realistic,75,2023-04-01_12h05.37.928,tripletExp_regina_11082022,2022.2.4,120.3368268841792,
5,9,10,0,1.0,0.298245614035088,0,0.444444444444444,1.0,0,0.694444444444444,1.0,ReadingArea_rsl0-rcl100-esl29-rsm0-rcm44-esm100-rsr0-rcr69-esr100,exr/ReadingArea_rsl0-rcl100-esl29-rsm0-rcm44-esm100-rsr0-rcr69-esr100.exr,ReadingArea_rsl0-rcl100-esl29-rsm0-rcm44-esm100-rsr0-rcr69-esr100.npz,,,,,0,103,103,322,,left,green,1.09,533.1684989929199,533.6537220478058,2,7,5,lightness,readingArea,realistic,75,2023-04-01_12h05.37.928,tripletExp_regina_11082022,2022.2.4,120.3368268841792,
3,12,14,0,0.444444444444444,0.298245614035088,0,0.027777777777778,3.10526315789474,0,0.25,3.10526315789474,ReadingArea_rsl0-rcl44-esl29-rsm0-rcm2-esm310-rsr0-rcr25-esr310,exr/ReadingArea_rsl0-rcl44-esl29-rsm0-rcm2-esm310-rsr0-rcr25-esr310.exr,ReadingArea_rsl0-rcl44-esl29-rsm0-rcm2-esm310-rsr0-rcr25-esr310.npz,,,,,0,104,104,16,,left,green,0.85,535.3617451190948,535.9347779750824,2,7,5,lightness,readingArea,realistic,75,2023-04-01_12h05.37.928,tripletExp_regina_11082022,2022.2.4,120.3368268841792,
3,14,4,0,0.444444444444444,0.298245614035088,0,0.25,3.10526315789474,0,0.694444444444444,0.298245614035088,ReadingArea_rsl0-rcl44-esl29-rsm0-rcm25-esm310-rsr0-rcr69-esr29,exr/ReadingArea_rsl0-rcl44-esl29-rsm0-rcm25-esm310-rsr0-rcr69-esr29.exr,ReadingArea_rsl0-rcl44-esl29-rsm0-rcm25-esm310-rsr0-rcr69-esr29.npz,,,,,0,105,105,537,,right,red,1.44,537.6326811313629,538.1107139587402,2,7,5,lightness,readingArea,realistic,75,2023-04-01_12h05.37.928,tripletExp_regina_11082022,2022.2.4,120.3368268841792,
3,6,13,0,0.444444444444444,0.298245614035088,0,0.027777777777778,1.0,0,0.111111111111111,3.10526315789474,ReadingArea_rsl0-rcl44-esl29-rsm0-rcm2-esm100-rsr0-rcr11-esr310,exr/ReadingArea_rsl0-rcl44-esl29-rsm0-rcm2-esm100-rsr0-rcr11-esr310.exr,ReadingArea_rsl0-rcl44-esl29-rsm0-rcm2-esm100-rsr0-rcr11-esr310.npz,,,,,0,106,106,449,,left,green,2.42,541.5659370422363,542.0460410118103,2,7,5,lightness,readingArea,realistic,75,2023-04-01_12h05.37.928,tripletExp_regina_11082022,2022.2.4,120.3368268841792,
5,0,6,0,1.0,0.298245614035088,0,0.027777777777778,0.298245614035088,0,0.027777777777778,1.0,ReadingArea_rsl0-rcl100-esl29-rsm0-rcm2-esm29-rsr0-rcr2-esr100,exr/ReadingArea_rsl0-rcl100-esl29-rsm0-rcm2-esm29-rsr0-rcr2-esr100.exr,ReadingArea_rsl0-rcl100-esl29-rsm0-rcm2-esm29-rsr0-rcr2-esr100.npz,,,,,0,107,107,1,,right,red,0.93,543.7499930858612,544.2237799167633,2,7,5,lightness,readingArea,realistic,75,2023-04-01_12h05.37.928,tripletExp_regina_11082022,2022.2.4,120.3368268841792,
7,14,11,0,0.111111111111111,1.0,0,0.25,3.10526315789474,0,1.0,1.0,ReadingArea_rsl0-rcl11-esl100-rsm0-rcm25-esm310-rsr0-rcr100-esr100,exr/ReadingArea_rsl0-rcl11-esl100-rsm0-rcm25-esm310-rsr0-rcr100-esr100.exr,ReadingArea_rsl0-rcl11-esl100-rsm0-rcm25-esm310-rsr0-rcr100-esr100.npz,,,,,0,108,108,252,,right,red,0.91,545.9261219501495,,2,7,5,lightness,readingArea,realistic,75,2023-04-01_12h05.37.928,tripletExp_regina_11082022,2022.2.4,120.3368268841792,
6,9,2,0,0.027777777777778,1.0,0,0.444444444444444,1.0,0,0.25,0.298245614035088,ReadingArea_rsl0-rcl2-esl100-rsm0-rcm44-esm100-rsr0-rcr25-esr29,exr/ReadingArea_rsl0-rcl2-esl100-rsm0-rcm44-esm100-rsr0-rcr25-esr29.exr,ReadingArea_rsl0-rcl2-esl100-rsm0-rcm44-esm100-rsr0-rcr25-esr29.npz,,,,,0,109,109,182,,right,red,2.67,550.0573139190674,550.5374040603638,2,7,5,lightness,readingArea,realistic,75,2023-04-01_12h05.37.928,tripletExp_regina_11082022,2022.2.4,120.3368268841792,
10,14,1,0,0.694444444444444,1.0,0,0.25,3.10526315789474,0,0.111111111111111,0.298245614035088,ReadingArea_rsl0-rcl69-esl100-rsm0-rcm25-esm310-rsr0-rcr11-esr29,exr/ReadingArea_rsl0-rcl69-esl100-rsm0-rcm25-esm310-rsr0-rcr11-esr29.exr,ReadingArea_rsl0-rcl69-esl100-rsm0-rcm25-esm310-rsr0-rcr11-esr29.npz,,,,,0,110,110,544,,left,green,0.77,552.2440409660339,,2,7,5,lightness,readingArea,realistic,75,2023-04-01_12h05.37.928,tripletExp_regina_11082022,2022.2.4,120.3368268841792,
1,12,0,0,0.111111111111111,0.298245614035088,0,0.027777777777778,3.10526315789474,0,0.027777777777778,0.298245614035088,ReadingArea_rsl0-rcl11-esl29-rsm0-rcm2-esm310-rsr0-rcr2-esr29,exr/ReadingArea_rsl0-rcl11-esl29-rsm0-rcm2-esm310-rsr0-rcr2-esr29.exr,ReadingArea_rsl0-rcl11-esl29-rsm0-rcm2-esm310-rsr0-rcr2-esr29.npz,,,,,0,111,111,113,,left,green,1.13,554.4404790401459,554.932620048523,2,7,5,lightness,readingArea,realistic,75,2023-04-01_12h05.37.928,tripletExp_regina_11082022,2022.2.4,120.3368268841792,
13,10,12,0,0.111111111111111,3.10526315789474,0,0.694444444444444,1.0,0,0.027777777777778,3.10526315789474,ReadingArea_rsl0-rcl11-esl310-rsm0-rcm69-esm100-rsr0-rcr2-esr310,exr/ReadingArea_rsl0-rcl11-esl310-rsm0-rcm69-esm100-rsr0-rcr2-esr310.exr,ReadingArea_rsl0-rcl11-esl310-rsm0-rcm69-esm100-rsr0-rcr2-esr310.npz,,,,,0,112,112,384,,left,green,1.17,556.6273419857025,557.1374781131744,2,7,5,lightness,readingArea,realistic,75,2023-04-01_12h05.37.928,tripletExp_regina_11082022,2022.2.4,120.3368268841792,
10,6,8,0,0.694444444444444,1.0,0,0.027777777777778,1.0,0,0.25,1.0,ReadingArea_rsl0-rcl69-esl100-rsm0-rcm2-esm100-rsr0-rcr25-esr100,exr/ReadingArea_rsl0-rcl69-esl100-rsm0-rcm2-esm100-rsr0-rcr25-esr100.exr,ReadingArea_rsl0-rcl69-esl100-rsm0-rcm2-esm100-rsr0-rcr25-esr100.npz,,,,,0,113,113,145,,right,red,1.18,558.8444340229034,,2,7,5,lightness,readingArea,realistic,75,2023-04-01_12h05.37.928,tripletExp_regina_11082022,2022.2.4,120.3368268841792,
10,14,13,0,0.694444444444444,1.0,0,0.25,3.10526315789474,0,0.111111111111111,3.10526315789474,ReadingArea_rsl0-rcl69-esl100-rsm0-rcm25-esm310-rsr0-rcr11-esr310,exr/ReadingArea_rsl0-rcl69-esl100-rsm0-rcm25-esm310-rsr0-rcr11-esr310.exr,ReadingArea_rsl0-rcl69-esl100-rsm0-rcm25-esm310-rsr0-rcr11-esr310.npz,,,,,0,114,114,168,,right,red,1.22,561.0422561168671,561.5114750862122,2,7,5,lightness,readingArea,realistic,75,2023-04-01_12h05.37.928,tripletExp_regina_11082022,2022.2.4,120.3368268841792,
8,6,5,0,0.25,1.0,0,0.027777777777778,1.0,0,1.0,0.298245614035088,ReadingArea_rsl0-rcl25-esl100-rsm0-rcm2-esm100-rsr0-rcr100-esr29,exr/ReadingArea_rsl0-rcl25-esl100-rsm0-rcm2-esm100-rsr0-rcr100-esr29.exr,ReadingArea_rsl0-rcl25-esl100-rsm0-rcm2-esm100-rsr0-rcr100-esr29.npz,,,,,0,115,115,241,,left,green,1.06,563.2159080505371,563.7043371200562,2,7,5,lightness,readingArea,realistic,75,2023-04-01_12h05.37.928,tripletExp_regina_11082022,2022.2.4,120.3368268841792,
10,11,9,0,0.694444444444444,1.0,0,1.0,1.0,0,0.444444444444444,1.0,ReadingArea_rsl0-rcl69-esl100-rsm0-rcm100-esm100-rsr0-rcr44-esr100,exr/ReadingArea_rsl0-rcl69-esl100-rsm0-rcm100-esm100-rsr0-rcr44-esr100.exr,ReadingArea_rsl0-rcl69-esl100-rsm0-rcm100-esm100-rsr0-rcr44-esr100.npz,,,,,0,116,116,492,,left,green,2.2,567.2017841339111,567.685329914093,2,7,5,lightness,readingArea,realistic,75,2023-04-01_12h05.37.928,tripletExp_regina_11082022,2022.2.4,120.3368268841792,
6,1,9,0,0.027777777777778,1.0,0,0.111111111111111,0.298245614035088,0,0.444444444444444,1.0,ReadingArea_rsl0-rcl2-esl100-rsm0-rcm11-esm29-rsr0-rcr44-esr100,exr/ReadingArea_rsl0-rcl2-esl100-rsm0-rcm11-esm29-rsr0-rcr44-esr100.exr,ReadingArea_rsl0-rcl2-esl100-rsm0-rcm11-esm29-rsr0-rcr44-esr100.npz,,,,,0,117,117,74,,left,green,0.87,569.3985719680786,569.8931660652161,2,7,5,lightness,readingArea,realistic,75,2023-04-01_12h05.37.928,tripletExp_regina_11082022,2022.2.4,120.3368268841792,
0,7,9,0,0.027777777777778,0.298245614035088,0,0.111111111111111,1.0,0,0.444444444444444,1.0,ReadingArea_rsl0-rcl2-esl29-rsm0-rcm11-esm100-rsr0-rcr44-esr100,exr/ReadingArea_rsl0-rcl2-esl29-rsm0-rcm11-esm100-rsr0-rcr44-esr100.exr,ReadingArea_rsl0-rcl2-esl29-rsm0-rcm11-esm100-rsr0-rcr44-esr100.npz,,,,,0,118,118,463,,left,green,1.59,571.5860271453857,572.0413670539856,2,7,5,lightness,readingArea,realistic,75,2023-04-01_12h05.37.928,tripletExp_regina_11082022,2022.2.4,120.3368268841792,
7,10,13,0,0.111111111111111,1.0,0,0.694444444444444,1.0,0,0.111111111111111,3.10526315789474,ReadingArea_rsl0-rcl11-esl100-rsm0-rcm69-esm100-rsr0-rcr11-esr310,exr/ReadingArea_rsl0-rcl11-esl100-rsm0-rcm69-esm100-rsr0-rcr11-esr310.exr,ReadingArea_rsl0-rcl11-esl100-rsm0-rcm69-esm100-rsr0-rcr11-esr310.npz,,,,,0,119,119,446,,right,red,1.29,573.760843038559,574.2602379322052,2,7,5,lightness,readingArea,realistic,75,2023-04-01_12h05.37.928,tripletExp_regina_11082022,2022.2.4,120.3368268841792,
13,3,5,0,0.111111111111111,3.10526315789474,0,0.444444444444444,0.298245614035088,0,1.0,0.298245614035088,ReadingArea_rsl0-rcl11-esl310-rsm0-rcm44-esm29-rsr0-rcr100-esr29,exr/ReadingArea_rsl0-rcl11-esl310-rsm0-rcm44-esm29-rsr0-rcr100-esr29.exr,ReadingArea_rsl0-rcl11-esl310-rsm0-rcm44-esm29-rsr0-rcr100-esr29.npz,,,,,0,120,120,398,,left,green,1.45,575.94850897789,576.4083330631256,2,7,5,lightness,readingArea,realistic,75,2023-04-01_12h05.37.928,tripletExp_regina_11082022,2022.2.4,120.3368268841792,
12,9,13,0,0.027777777777778,3.10526315789474,0,0.444444444444444,1.0,0,0.111111111111111,3.10526315789474,ReadingArea_rsl0-rcl2-esl310-rsm0-rcm44-esm100-rsr0-rcr11-esr310,exr/ReadingArea_rsl0-rcl2-esl310-rsm0-rcm44-esm100-rsr0-rcr11-esr310.exr,ReadingArea_rsl0-rcl2-esl310-rsm0-rcm44-esm100-rsr0-rcr11-esr310.npz,,,,,0,121,121,529,,right,red,1.0,578.1344549655914,578.6278591156006,2,7,5,lightness,readingArea,realistic,75,2023-04-01_12h05.37.928,tripletExp_regina_11082022,2022.2.4,120.3368268841792,
2,6,12,0,0.25,0.298245614035088,0,0.027777777777778,1.0,0,0.027777777777778,3.10526315789474,ReadingArea_rsl0-rcl25-esl29-rsm0-rcm2-esm100-rsr0-rcr2-esr310,exr/ReadingArea_rsl0-rcl25-esl29-rsm0-rcm2-esm100-rsr0-rcr2-esr310.exr,ReadingArea_rsl0-rcl25-esl29-rsm0-rcm2-esm100-rsr0-rcr2-esr310.npz,,,,,0,122,122,97,,right,red,2.25,582.0799241065979,582.5548629760742,2,7,5,lightness,readingArea,realistic,75,2023-04-01_12h05.37.928,tripletExp_regina_11082022,2022.2.4,120.3368268841792,
10,3,1,0,0.694444444444444,1.0,0,0.444444444444444,0.298245614035088,0,0.111111111111111,0.298245614035088,ReadingArea_rsl0-rcl69-esl100-rsm0-rcm44-esm29-rsr0-rcr11-esr29,exr/ReadingArea_rsl0-rcl69-esl100-rsm0-rcm44-esm29-rsr0-rcr11-esr29.exr,ReadingArea_rsl0-rcl69-esl100-rsm0-rcm44-esm29-rsr0-rcr11-esr29.npz,,,,,0,123,123,420,,right,red,0.96,584.2713389396667,584.7636821269989,2,7,5,lightness,readingArea,realistic,75,2023-04-01_12h05.37.928,tripletExp_regina_11082022,2022.2.4,120.3368268841792,
12,3,0,0,0.027777777777778,3.10526315789474,0,0.444444444444444,0.298245614035088,0,0.027777777777778,0.298245614035088,ReadingArea_rsl0-rcl2-esl310-rsm0-rcm44-esm29-rsr0-rcr2-esr29,exr/ReadingArea_rsl0-rcl2-esl310-rsm0-rcm44-esm29-rsr0-rcr2-esr29.exr,ReadingArea_rsl0-rcl2-esl310-rsm0-rcm44-esm29-rsr0-rcr2-esr29.npz,,,,,0,124,124,502,,left,green,0.87,586.4839761257172,586.9710710048676,2,7,5,lightness,readingArea,realistic,75,2023-04-01_12h05.37.928,tripletExp_regina_11082022,2022.2.4,120.3368268841792,
13,1,4,0,0.111111111111111,3.10526315789474,0,0.111111111111111,0.298245614035088,0,0.694444444444444,0.298245614035088,ReadingArea_rsl0-rcl11-esl310-rsm0-rcm11-esm29-rsr0-rcr69-esr29,exr/ReadingArea_rsl0-rcl11-esl310-rsm0-rcm11-esm29-rsr0-rcr69-esr29.exr,ReadingArea_rsl0-rcl11-esl310-rsm0-rcm11-esm29-rsr0-rcr69-esr29.npz,,,,,0,125,125,396,,left,green,2.22,590.4746670722961,,2,7,5,lightness,readingArea,realistic,75,2023-04-01_12h05.37.928,tripletExp_regina_11082022,2022.2.4,120.3368268841792,
6,1,14,0,0.027777777777778,1.0,0,0.111111111111111,0.298245614035088,0,0.25,3.10526315789474,ReadingArea_rsl0-rcl2-esl100-rsm0-rcm11-esm29-rsr0-rcr25-esr310,exr/ReadingArea_rsl0-rcl2-esl100-rsm0-rcm11-esm29-rsr0-rcr25-esr310.exr,ReadingArea_rsl0-rcl2-esl100-rsm0-rcm11-esm29-rsr0-rcr25-esr310.npz,,,,,0,126,126,381,,left,green,0.71,592.6605010032654,593.1642420291901,2,7,5,lightness,readingArea,realistic,75,2023-04-01_12h05.37.928,tripletExp_regina_11082022,2022.2.4,120.3368268841792,
3,4,0,0,0.444444444444444,0.298245614035088,0,0.694444444444444,0.298245614035088,0,0.027777777777778,0.298245614035088,ReadingArea_rsl0-rcl44-esl29-rsm0-rcm69-esm29-rsr0-rcr2-esr29,exr/ReadingArea_rsl0-rcl44-esl29-rsm0-rcm69-esm29-rsr0-rcr2-esr29.exr,ReadingArea_rsl0-rcl44-esl29-rsm0-rcm69-esm29-rsr0-rcr2-esr29.npz,,,,,0,127,127,130,,left,green,0.82,594.8772361278534,595.3440070152283,2,7,5,lightness,readingArea,realistic,75,2023-04-01_12h05.37.928,tripletExp_regina_11082022,2022.2.4,120.3368268841792,
13,6,1,0,0.111111111111111,3.10526315789474,0,0.027777777777778,1.0,0,0.111111111111111,0.298245614035088,ReadingArea_rsl0-rcl11-esl310-rsm0-rcm2-esm100-rsr0-rcr11-esr29,exr/ReadingArea_rsl0-rcl11-esl310-rsm0-rcm2-esm100-rsr0-rcr11-esr29.exr,ReadingArea_rsl0-rcl11-esl310-rsm0-rcm2-esm100-rsr0-rcr11-esr29.npz,,,,,0,128,128,486,,right,red,0.81,597.0558481216431,597.5437979698181,2,7,5,lightness,readingArea,realistic,75,2023-04-01_12h05.37.928,tripletExp_regina_11082022,2022.2.4,120.3368268841792,
7,8,3,0,0.111111111111111,1.0,0,0.25,1.0,0,0.444444444444444,0.298245614035088,ReadingArea_rsl0-rcl11-esl100-rsm0-rcm25-esm100-rsr0-rcr44-esr29,exr/ReadingArea_rsl0-rcl11-esl100-rsm0-rcm25-esm100-rsr0-rcr44-esr29.exr,ReadingArea_rsl0-rcl11-esl100-rsm0-rcm25-esm100-rsr0-rcr44-esr29.npz,,,,,0,129,129,459,,left,green,1.05,599.2501530647278,599.840569972992,2,7,5,lightness,readingArea,realistic,75,2023-04-01_12h05.37.928,tripletExp_regina_11082022,2022.2.4,120.3368268841792,
9,0,11,0,0.444444444444444,1.0,0,0.027777777777778,0.298245614035088,0,1.0,1.0,ReadingArea_rsl0-rcl44-esl100-rsm0-rcm2-esm29-rsr0-rcr100-esr100,exr/ReadingArea_rsl0-rcl44-esl100-rsm0-rcm2-esm29-rsr0-rcr100-esr100.exr,ReadingArea_rsl0-rcl44-esl100-rsm0-rcm2-esm29-rsr0-rcr100-esr100.npz,,,,,0,130,130,319,,left,green,0.98,601.556529045105,602.0354959964752,2,7,5,lightness,readingArea,realistic,75,2023-04-01_12h05.37.928,tripletExp_regina_11082022,2022.2.4,120.3368268841792,
14,6,7,0,0.25,3.10526315789474,0,0.027777777777778,1.0,0,0.111111111111111,1.0,ReadingArea_rsl0-rcl25-esl310-rsm0-rcm2-esm100-rsr0-rcr11-esr100,exr/ReadingArea_rsl0-rcl25-esl310-rsm0-rcm2-esm100-rsr0-rcr11-esr100.exr,ReadingArea_rsl0-rcl25-esl310-rsm0-rcm2-esm100-rsr0-rcr11-esr100.npz,,,,,0,131,131,306,,right,red,0.7,603.7420220375061,604.2629690170288,2,7,5,lightness,readingArea,realistic,75,2023-04-01_12h05.37.928,tripletExp_regina_11082022,2022.2.4,120.3368268841792,
14,9,0,0,0.25,3.10526315789474,0,0.444444444444444,1.0,0,0.027777777777778,0.298245614035088,ReadingArea_rsl0-rcl25-esl310-rsm0-rcm44-esm100-rsr0-rcr2-esr29,exr/ReadingArea_rsl0-rcl25-esl310-rsm0-rcm44-esm100-rsr0-rcr2-esr29.exr,ReadingArea_rsl0-rcl25-esl310-rsm0-rcm44-esm100-rsr0-rcr2-esr29.npz,,,,,0,132,132,313,,left,green,0.79,605.9675741195679,606.447093963623,2,7,5,lightness,readingArea,realistic,75,2023-04-01_12h05.37.928,tripletExp_regina_11082022,2022.2.4,120.3368268841792,
11,14,2,0,1.0,1.0,0,0.25,3.10526315789474,0,0.25,0.298245614035088,ReadingArea_rsl0-rcl100-esl100-rsm0-rcm25-esm310-rsr0-rcr25-esr29,exr/ReadingArea_rsl0-rcl100-esl100-rsm0-rcm25-esm310-rsr0-rcr25-esr29.exr,ReadingArea_rsl0-rcl100-esl100-rsm0-rcm25-esm310-rsr0-rcr25-esr29.npz,,,,,0,133,133,419,,left,green,0.76,608.1643419265747,608.6620221138,2,7,5,lightness,readingArea,realistic,75,2023-04-01_12h05.37.928,tripletExp_regina_11082022,2022.2.4,120.3368268841792,
11,12,1,0,1.0,1.0,0,0.027777777777778,3.10526315789474,0,0.111111111111111,0.298245614035088,ReadingArea_rsl0-rcl100-esl100-rsm0-rcm2-esm310-rsr0-rcr11-esr29,exr/ReadingArea_rsl0-rcl100-esl100-rsm0-rcm2-esm310-rsr0-rcr11-esr29.exr,ReadingArea_rsl0-rcl100-esl100-rsm0-rcm2-esm310-rsr0-rcr11-esr29.npz,,,,,0,134,134,140,,right,red,0.86,610.3711860179901,610.8555319309235,2,7,5,lightness,readingArea,realistic,75,2023-04-01_12h05.37.928,tripletExp_regina_11082022,2022.2.4,120.3368268841792,
10,11,0,0,0.694444444444444,1.0,0,1.0,1.0,0,0.027777777777778,0.298245614035088,ReadingArea_rsl0-rcl69-esl100-rsm0-rcm100-esm100-rsr0-rcr2-esr29,exr/ReadingArea_rsl0-rcl69-esl100-rsm0-rcm100-esm100-rsr0-rcr2-esr29.exr,ReadingArea_rsl0-rcl69-esl100-rsm0-rcm100-esm100-rsr0-rcr2-esr29.npz,,,,,0,135,135,58,,left,green,0.6,612.5543880462646,613.0626440048218,2,7,5,lightness,readingArea,realistic,75,2023-04-01_12h05.37.928,tripletExp_regina_11082022,2022.2.4,120.3368268841792,
9,2,12,0,0.444444444444444,1.0,0,0.25,0.298245614035088,0,0.027777777777778,3.10526315789474,ReadingArea_rsl0-rcl44-esl100-rsm0-rcm25-esm29-rsr0-rcr2-esr310,exr/ReadingArea_rsl0-rcl44-esl100-rsm0-rcm25-esm29-rsr0-rcr2-esr310.exr,ReadingArea_rsl0-rcl44-esl100-rsm0-rcm25-esm29-rsr0-rcr2-esr310.npz,,,,,0,136,136,391,,right,red,0.79,614.7645721435547,615.2591059207916,2,7,5,lightness,readingArea,realistic,75,2023-04-01_12h05.37.928,tripletExp_regina_11082022,2022.2.4,120.3368268841792,
3,13,1,0,0.444444444444444,0.298245614035088,0,0.111111111111111,3.10526315789474,0,0.111111111111111,0.298245614035088,ReadingArea_rsl0-rcl44-esl29-rsm0-rcm11-esm310-rsr0-rcr11-esr29,exr/ReadingArea_rsl0-rcl44-esl29-rsm0-rcm11-esm310-rsr0-rcr11-esr29.exr,ReadingArea_rsl0-rcl44-esl29-rsm0-rcm11-esm310-rsr0-rcr11-esr29.npz,,,,,0,137,137,421,,left,green,1.04,616.9519231319427,617.4530310630798,2,7,5,lightness,readingArea,realistic,75,2023-04-01_12h05.37.928,tripletExp_regina_11082022,2022.2.4,120.3368268841792,
13,7,11,0,0.111111111111111,3.10526315789474,0,0.111111111111111,1.0,0,1.0,1.0,ReadingArea_rsl0-rcl11-esl310-rsm0-rcm11-esm100-rsr0-rcr100-esr100,exr/ReadingArea_rsl0-rcl11-esl310-rsm0-rcm11-esm100-rsr0-rcr100-esr100.exr,ReadingArea_rsl0-rcl11-esl310-rsm0-rcm11-esm100-rsr0-rcr100-esr100.npz,,,,,0,138,138,121,,left,green,1.14,619.1460139751434,,2,7,5,lightness,readingArea,realistic,75,2023-04-01_12h05.37.928,tripletExp_regina_11082022,2022.2.4,120.3368268841792,
4,8,14,0,0.694444444444444,0.298245614035088,0,0.25,1.0,0,0.25,3.10526315789474,ReadingArea_rsl0-rcl69-esl29-rsm0-rcm25-esm100-rsr0-rcr25-esr310,exr/ReadingArea_rsl0-rcl69-esl29-rsm0-rcm25-esm100-rsr0-rcr25-esr310.exr,ReadingArea_rsl0-rcl69-esl29-rsm0-rcm25-esm100-rsr0-rcr25-esr310.npz,,,,,0,139,139,234,,left,green,1.43,621.4800260066986,,2,7,5,lightness,readingArea,realistic,75,2023-04-01_12h05.37.928,tripletExp_regina_11082022,2022.2.4,120.3368268841792,
2,9,12,0,0.25,0.298245614035088,0,0.444444444444444,1.0,0,0.027777777777778,3.10526315789474,ReadingArea_rsl0-rcl25-esl29-rsm0-rcm44-esm100-rsr0-rcr2-esr310,exr/ReadingArea_rsl0-rcl25-esl29-rsm0-rcm44-esm100-rsr0-rcr2-esr310.exr,ReadingArea_rsl0-rcl25-esl29-rsm0-rcm44-esm100-rsr0-rcr2-esr310.npz,,,,,0,140,140,354,,left,green,2.29,625.4298939704895,,2,7,5,lightness,readingArea,realistic,75,2023-04-01_12h05.37.928,tripletExp_regina_11082022,2022.2.4,120.3368268841792,
6,0,14,0,0.027777777777778,1.0,0,0.027777777777778,0.298245614035088,0,0.25,3.10526315789474,ReadingArea_rsl0-rcl2-esl100-rsm0-rcm2-esm29-rsr0-rcr25-esr310,exr/ReadingArea_rsl0-rcl2-esl100-rsm0-rcm2-esm29-rsr0-rcr25-esr310.exr,ReadingArea_rsl0-rcl2-esl100-rsm0-rcm2-esm29-rsr0-rcr25-esr310.npz,,,,,0,141,141,169,,left,green,0.73,627.6274499893188,628.091705083847,2,7,5,lightness,readingArea,realistic,75,2023-04-01_12h05.37.928,tripletExp_regina_11082022,2022.2.4,120.3368268841792,
4,2,0,0,0.694444444444444,0.298245614035088,0,0.25,0.298245614035088,0,0.027777777777778,0.298245614035088,ReadingArea_rsl0-rcl69-esl29-rsm0-rcm25-esm29-rsr0-rcr2-esr29,exr/ReadingArea_rsl0-rcl69-esl29-rsm0-rcm25-esm29-rsr0-rcr2-esr29.exr,ReadingArea_rsl0-rcl69-esl29-rsm0-rcm25-esm29-rsr0-rcr2-esr29.npz,,,,,0,142,142,71,,left,green,1.22,629.7969601154327,630.3229930400848,2,7,5,lightness,readingArea,realistic,75,2023-04-01_12h05.37.928,tripletExp_regina_11082022,2022.2.4,120.3368268841792,
10,4,8,0,0.694444444444444,1.0,0,0.694444444444444,0.298245614035088,0,0.25,1.0,ReadingArea_rsl0-rcl69-esl100-rsm0-rcm69-esm29-rsr0-rcr25-esr100,exr/ReadingArea_rsl0-rcl69-esl100-rsm0-rcm69-esm29-rsr0-rcr25-esr100.exr,ReadingArea_rsl0-rcl69-esl100-rsm0-rcm69-esm29-rsr0-rcr25-esr100.npz,,,,,0,143,143,562,,right,red,1.01,632.010500907898,632.4910569190979,2,7,5,lightness,readingArea,realistic,75,2023-04-01_12h05.37.928,tripletExp_regina_11082022,2022.2.4,120.3368268841792,
1,3,4,0,0.111111111111111,0.298245614035088,0,0.444444444444444,0.298245614035088,0,0.694444444444444,0.298245614035088,ReadingArea_rsl0-rcl11-esl29-rsm0-rcm44-esm29-rsr0-rcr69-esr29,exr/ReadingArea_rsl0-rcl11-esl29-rsm0-rcm44-esm29-rsr0-rcr69-esr29.exr,ReadingArea_rsl0-rcl11-esl29-rsm0-rcm44-esm29-rsr0-rcr69-esr29.npz,,,,,0,144,144,153,,right,red,0.95,634.2098009586334,634.6875810623169,2,7,5,lightness,readingArea,realistic,75,2023-04-01_12h05.37.928,tripletExp_regina_11082022,2022.2.4,120.3368268841792,
6,5,0,0,0.027777777777778,1.0,0,1.0,0.298245614035088,0,0.027777777777778,0.298245614035088,ReadingArea_rsl0-rcl2-esl100-rsm0-rcm100-esm29-rsr0-rcr2-esr29,exr/ReadingArea_rsl0-rcl2-esl100-rsm0-rcm100-esm29-rsr0-rcr2-esr29.exr,ReadingArea_rsl0-rcl2-esl100-rsm0-rcm100-esm29-rsr0-rcr2-esr29.npz,,,,,0,145,145,558,,left,green,1.16,636.3863661289215,636.8918499946594,2,7,5,lightness,readingArea,realistic,75,2023-04-01_12h05.37.928,tripletExp_regina_11082022,2022.2.4,120.3368268841792,
14,6,12,0,0.25,3.10526315789474,0,0.027777777777778,1.0,0,0.027777777777778,3.10526315789474,ReadingArea_rsl0-rcl25-esl310-rsm0-rcm2-esm100-rsr0-rcr2-esr310,exr/ReadingArea_rsl0-rcl25-esl310-rsm0-rcm2-esm100-rsr0-rcr2-esr310.exr,ReadingArea_rsl0-rcl25-esl310-rsm0-rcm2-esm100-rsr0-rcr2-esr310.npz,,,,,0,146,146,242,,right,red,0.86,638.6000621318817,639.0815510749817,2,7,5,lightness,readingArea,realistic,75,2023-04-01_12h05.37.928,tripletExp_regina_11082022,2022.2.4,120.3368268841792,
2,11,7,0,0.25,0.298245614035088,0,1.0,1.0,0,0.111111111111111,1.0,ReadingArea_rsl0-rcl25-esl29-rsm0-rcm100-esm100-rsr0-rcr11-esr100,exr/ReadingArea_rsl0-rcl25-esl29-rsm0-rcm100-esm100-rsr0-rcr11-esr100.exr,ReadingArea_rsl0-rcl25-esl29-rsm0-rcm100-esm100-rsr0-rcr11-esr100.npz,,,,,0,147,147,576,,right,red,1.12,640.7836740016937,641.3138010501862,2,7,5,lightness,readingArea,realistic,75,2023-04-01_12h05.37.928,tripletExp_regina_11082022,2022.2.4,120.3368268841792,
13,11,2,0,0.111111111111111,3.10526315789474,0,1.0,1.0,0,0.25,0.298245614035088,ReadingArea_rsl0-rcl11-esl310-rsm0-rcm100-esm100-rsr0-rcr25-esr29,exr/ReadingArea_rsl0-rcl11-esl310-rsm0-rcm100-esm100-rsr0-rcr25-esr29.exr,ReadingArea_rsl0-rcl11-esl310-rsm0-rcm100-esm100-rsr0-rcr25-esr29.npz,,,,,0,148,148,55,,left,green,0.83,643.0133030414581,643.4737939834595,2,7,5,lightness,readingArea,realistic,75,2023-04-01_12h05.37.928,tripletExp_regina_11082022,2022.2.4,120.3368268841792,
10,4,13,0,0.694444444444444,1.0,0,0.694444444444444,0.298245614035088,0,0.111111111111111,3.10526315789474,ReadingArea_rsl0-rcl69-esl100-rsm0-rcm69-esm29-rsr0-rcr11-esr310,exr/ReadingArea_rsl0-rcl69-esl100-rsm0-rcm69-esm29-rsr0-rcr11-esr310.exr,ReadingArea_rsl0-rcl69-esl100-rsm0-rcm69-esm29-rsr0-rcr11-esr310.npz,,,,,0,149,149,24,,right,red,0.84,645.1686329841614,645.3736760616302,2,7,5,lightness,readingArea,realistic,75,2023-04-01_12h05.37.928,tripletExp_regina_11082022,2022.2.4,120.3368268841792,
13,6,2,0,0.111111111111111,3.10526315789474,0,0.027777777777778,1.0,0,0.25,0.298245614035088,ReadingArea_rsl0-rcl11-esl310-rsm0-rcm2-esm100-rsr0-rcr25-esr29,exr/ReadingArea_rsl0-rcl11-esl310-rsm0-rcm2-esm100-rsr0-rcr25-esr29.exr,ReadingArea_rsl0-rcl11-esl310-rsm0-rcm2-esm100-rsr0-rcr25-esr29.npz,,,,,0,150,150,115,,right,red,1.07,665.2880210876465,665.8581669330597,3,7,5,lightness,readingArea,realistic,75,2023-04-01_12h05.37.928,tripletExp_regina_11082022,2022.2.4,120.3368268841792,
12,5,14,0,0.027777777777778,3.10526315789474,0,1.0,0.298245614035088,0,0.25,3.10526315789474,ReadingArea_rsl0-rcl2-esl310-rsm0-rcm100-esm29-rsr0-rcr25-esr310,exr/ReadingArea_rsl0-rcl2-esl310-rsm0-rcm100-esm29-rsr0-rcr25-esr310.exr,ReadingArea_rsl0-rcl2-esl310-rsm0-rcm100-esm29-rsr0-rcr25-esr310.npz,,,,,0,151,151,193,,right,red,0.87,667.5707359313965,668.0553750991821,3,7,5,lightness,readingArea,realistic,75,2023-04-01_12h05.37.928,tripletExp_regina_11082022,2022.2.4,120.3368268841792,
13,0,10,0,0.111111111111111,3.10526315789474,0,0.027777777777778,0.298245614035088,0,0.694444444444444,1.0,ReadingArea_rsl0-rcl11-esl310-rsm0-rcm2-esm29-rsr0-rcr69-esr100,exr/ReadingArea_rsl0-rcl11-esl310-rsm0-rcm2-esm29-rsr0-rcr69-esr100.exr,ReadingArea_rsl0-rcl11-esl310-rsm0-rcm2-esm29-rsr0-rcr69-esr100.npz,,,,,0,152,152,505,,left,green,1.04,669.7449541091919,670.278862953186,3,7,5,lightness,readingArea,realistic,75,2023-04-01_12h05.37.928,tripletExp_regina_11082022,2022.2.4,120.3368268841792,
14,8,1,0,0.25,3.10526315789474,0,0.25,1.0,0,0.111111111111111,0.298245614035088,ReadingArea_rsl0-rcl25-esl310-rsm0-rcm25-esm100-rsr0-rcr11-esr29,exr/ReadingArea_rsl0-rcl25-esl310-rsm0-rcm25-esm100-rsr0-rcr11-esr29.exr,ReadingArea_rsl0-rcl25-esl310-rsm0-rcm25-esm100-rsr0-rcr11-esr29.npz,,,,,0,153,153,141,,left,green,0.85,671.993175983429,672.4819741249084,3,7,5,lightness,readingArea,realistic,75,2023-04-01_12h05.37.928,tripletExp_regina_11082022,2022.2.4,120.3368268841792,
0,14,6,0,0.027777777777778,0.298245614035088,0,0.25,3.10526315789474,0,0.027777777777778,1.0,ReadingArea_rsl0-rcl2-esl29-rsm0-rcm25-esm310-rsr0-rcr2-esr100,exr/ReadingArea_rsl0-rcl2-esl29-rsm0-rcm25-esm310-rsr0-rcr2-esr100.exr,ReadingArea_rsl0-rcl2-esl29-rsm0-rcm25-esm310-rsr0-rcr2-esr100.npz,,,,,0,154,154,499,,right,red,1.13,674.1837430000305,674.6467690467834,3,7,5,lightness,readingArea,realistic,75,2023-04-01_12h05.37.928,tripletExp_regina_11082022,2022.2.4,120.3368268841792,
5,14,11,0,1.0,0.298245614035088,0,0.25,3.10526315789474,0,1.0,1.0,ReadingArea_rsl0-rcl100-esl29-rsm0-rcm25-esm310-rsr0-rcr100-esr100,exr/ReadingArea_rsl0-rcl100-esl29-rsm0-rcm25-esm310-rsr0-rcr100-esr100.exr,ReadingArea_rsl0-rcl100-esl29-rsm0-rcm25-esm310-rsr0-rcr100-esr100.npz,,,,,0,155,155,98,,left,green,0.94,676.3512411117554,676.9165570735931,3,7,5,lightness,readingArea,realistic,75,2023-04-01_12h05.37.928,tripletExp_regina_11082022,2022.2.4,120.3368268841792,
4,14,12,0,0.694444444444444,0.298245614035088,0,0.25,3.10526315789474,0,0.027777777777778,3.10526315789474,ReadingArea_rsl0-rcl69-esl29-rsm0-rcm25-esm310-rsr0-rcr2-esr310,exr/ReadingArea_rsl0-rcl69-esl29-rsm0-rcm25-esm310-rsr0-rcr2-esr310.exr,ReadingArea_rsl0-rcl69-esl29-rsm0-rcm25-esm310-rsr0-rcr2-esr310.npz,,,,,0,156,156,392,,left,green,0.96,678.6125469207764,679.0990009307861,3,7,5,lightness,readingArea,realistic,75,2023-04-01_12h05.37.928,tripletExp_regina_11082022,2022.2.4,120.3368268841792,
3,0,8,0,0.444444444444444,0.298245614035088,0,0.027777777777778,0.298245614035088,0,0.25,1.0,ReadingArea_rsl0-rcl44-esl29-rsm0-rcm2-esm29-rsr0-rcr25-esr100,exr/ReadingArea_rsl0-rcl44-esl29-rsm0-rcm2-esm29-rsr0-rcr25-esr100.exr,ReadingArea_rsl0-rcl44-esl29-rsm0-rcm2-esm29-rsr0-rcr25-esr100.npz,,,,,0,157,157,510,,left,green,1.24,680.7966730594635,681.3941271305084,3,7,5,lightness,readingArea,realistic,75,2023-04-01_12h05.37.928,tripletExp_regina_11082022,2022.2.4,120.3368268841792,
1,14,0,0,0.111111111111111,0.298245614035088,0,0.25,3.10526315789474,0,0.027777777777778,0.298245614035088,ReadingArea_rsl0-rcl11-esl29-rsm0-rcm25-esm310-rsr0-rcr2-esr29,exr/ReadingArea_rsl0-rcl11-esl29-rsm0-rcm25-esm310-rsr0-rcr2-esr29.exr,ReadingArea_rsl0-rcl11-esl29-rsm0-rcm25-esm310-rsr0-rcr2-esr29.npz,,,,,0,158,158,394,,left,green,1.09,683.1007521152496,683.6016199588776,3,7,5,lightness,readingArea,realistic,75,2023-04-01_12h05.37.928,tripletExp_regina_11082022,2022.2.4,120.3368268841792,
5,3,10,0,1.0,0.298245614035088,0,0.444444444444444,0.298245614035088,0,0.694444444444444,1.0,ReadingArea_rsl0-rcl100-esl29-rsm0-rcm44-esm29-rsr0-rcr69-esr100,exr/ReadingArea_rsl0-rcl100-esl29-rsm0-rcm44-esm29-rsr0-rcr69-esr100.exr,ReadingArea_rsl0-rcl100-esl29-rsm0-rcm44-esm29-rsr0-rcr69-esr100.npz,,,,,0,159,159,546,,left,green,1.39,685.3092529773712,685.7733891010284,3,7,5,lightness,readingArea,realistic,75,2023-04-01_12h05.37.928,tripletExp_regina_11082022,2022.2.4,120.3368268841792,
1,8,12,0,0.111111111111111,0.298245614035088,0,0.25,1.0,0,0.027777777777778,3.10526315789474,ReadingArea_rsl0-rcl11-esl29-rsm0-rcm25-esm100-rsr0-rcr2-esr310,exr/ReadingArea_rsl0-rcl11-esl29-rsm0-rcm25-esm100-rsr0-rcr2-esr310.exr,ReadingArea_rsl0-rcl11-esl29-rsm0-rcm25-esm100-rsr0-rcr2-esr310.npz,,,,,0,160,160,156,,right,red,1.2,687.4765989780426,687.9676630496979,3,7,5,lightness,readingArea,realistic,75,2023-04-01_12h05.37.928,tripletExp_regina_11082022,2022.2.4,120.3368268841792,
5,11,8,0,1.0,0.298245614035088,0,1.0,1.0,0,0.25,1.0,ReadingArea_rsl0-rcl100-esl29-rsm0-rcm100-esm100-rsr0-rcr25-esr100,exr/ReadingArea_rsl0-rcl100-esl29-rsm0-rcm100-esm100-rsr0-rcr25-esr100.exr,ReadingArea_rsl0-rcl100-esl29-rsm0-rcm100-esm100-rsr0-rcr25-esr100.npz,,,,,0,161,161,548,,left,green,1.08,689.6729431152344,690.1384570598602,3,7,5,lightness,readingArea,realistic,75,2023-04-01_12h05.37.928,tripletExp_regina_11082022,2022.2.4,120.3368268841792,
8,13,9,0,0.25,1.0,0,0.111111111111111,3.10526315789474,0,0.444444444444444,1.0,ReadingArea_rsl0-rcl25-esl100-rsm0-rcm11-esm310-rsr0-rcr44-esr100,exr/ReadingArea_rsl0-rcl25-esl100-rsm0-rcm11-esm310-rsr0-rcr44-esr100.exr,ReadingArea_rsl0-rcl25-esl100-rsm0-rcm11-esm310-rsr0-rcr44-esr100.npz,,,,,0,162,162,487,,right,red,1.1,691.843533039093,692.3309810161591,3,7,5,lightness,readingArea,realistic,75,2023-04-01_12h05.37.928,tripletExp_regina_11082022,2022.2.4,120.3368268841792,
14,13,6,0,0.25,3.10526315789474,0,0.111111111111111,3.10526315789474,0,0.027777777777778,1.0,ReadingArea_rsl0-rcl25-esl310-rsm0-rcm11-esm310-rsr0-rcr2-esr100,exr/ReadingArea_rsl0-rcl25-esl310-rsm0-rcm11-esm310-rsr0-rcr2-esr100.exr,ReadingArea_rsl0-rcl25-esl310-rsm0-rcm11-esm310-rsr0-rcr2-esr100.npz,,,,,0,163,163,102,,left,green,0.78,694.0393769741058,694.5394239425659,3,7,5,lightness,readingArea,realistic,75,2023-04-01_12h05.37.928,tripletExp_regina_11082022,2022.2.4,120.3368268841792,
7,8,6,0,0.111111111111111,1.0,0,0.25,1.0,0,0.027777777777778,1.0,ReadingArea_rsl0-rcl11-esl100-rsm0-rcm25-esm100-rsr0-rcr2-esr100,exr/ReadingArea_rsl0-rcl11-esl100-rsm0-rcm25-esm100-rsr0-rcr2-esr100.exr,ReadingArea_rsl0-rcl11-esl100-rsm0-rcm25-esm100-rsr0-rcr2-esr100.npz,,,,,0,164,164,387,,left,green,0.95,696.2537350654602,696.7257189750671,3,7,5,lightness,readingArea,realistic,75,2023-04-01_12h05.37.928,tripletExp_regina_11082022,2022.2.4,120.3368268841792,
0,5,12,0,0.027777777777778,0.298245614035088,0,1.0,0.298245614035088,0,0.027777777777778,3.10526315789474,ReadingArea_rsl0-rcl2-esl29-rsm0-rcm100-esm29-rsr0-rcr2-esr310,exr/ReadingArea_rsl0-rcl2-esl29-rsm0-rcm100-esm29-rsr0-rcr2-esr310.exr,ReadingArea_rsl0-rcl2-esl29-rsm0-rcm100-esm29-rsr0-rcr2-esr310.npz,,,,,0,165,165,366,,right,red,0.89,698.433825969696,,3,7,5,lightness,readingArea,realistic,75,2023-04-01_12h05.37.928,tripletExp_regina_11082022,2022.2.4,120.3368268841792,
10,11,4,0,0.694444444444444,1.0,0,1.0,1.0,0,0.694444444444444,0.298245614035088,ReadingArea_rsl0-rcl69-esl100-rsm0-rcm100-esm100-rsr0-rcr69-esr29,exr/ReadingArea_rsl0-rcl69-esl100-rsm0-rcm100-esm100-rsr0-rcr69-esr29.exr,ReadingArea_rsl0-rcl69-esl100-rsm0-rcm100-esm100-rsr0-rcr69-esr29.npz,,,,,0,166,166,239,,left,green,0.86,700.6203079223633,701.1036939620972,3,7,5,lightness,readingArea,realistic,75,2023-04-01_12h05.37.928,tripletExp_regina_11082022,2022.2.4,120.3368268841792,
12,1,2,0,0.027777777777778,3.10526315789474,0,0.111111111111111,0.298245614035088,0,0.25,0.298245614035088,ReadingArea_rsl0-rcl2-esl310-rsm0-rcm11-esm29-rsr0-rcr25-esr29,exr/ReadingArea_rsl0-rcl2-esl310-rsm0-rcm11-esm29-rsr0-rcr25-esr29.exr,ReadingArea_rsl0-rcl2-esl310-rsm0-rcm11-esm29-rsr0-rcr25-esr29.npz,,,,,0,167,167,231,,left,green,2.31,704.589339017868,705.0807840824127,3,7,5,lightness,readingArea,realistic,75,2023-04-01_12h05.37.928,tripletExp_regina_11082022,2022.2.4,120.3368268841792,
8,1,9,0,0.25,1.0,0,0.111111111111111,0.298245614035088,0,0.444444444444444,1.0,ReadingArea_rsl0-rcl25-esl100-rsm0-rcm11-esm29-rsr0-rcr44-esr100,exr/ReadingArea_rsl0-rcl25-esl100-rsm0-rcm11-esm29-rsr0-rcr44-esr100.exr,ReadingArea_rsl0-rcl25-esl100-rsm0-rcm11-esm29-rsr0-rcr44-esr100.npz,,,,,0,168,168,432,,left,green,0.98,706.7745180130005,707.255175113678,3,7,5,lightness,readingArea,realistic,75,2023-04-01_12h05.37.928,tripletExp_regina_11082022,2022.2.4,120.3368268841792,
12,5,4,0,0.027777777777778,3.10526315789474,0,1.0,0.298245614035088,0,0.694444444444444,0.298245614035088,ReadingArea_rsl0-rcl2-esl310-rsm0-rcm100-esm29-rsr0-rcr69-esr29,exr/ReadingArea_rsl0-rcl2-esl310-rsm0-rcm100-esm29-rsr0-rcr69-esr29.exr,ReadingArea_rsl0-rcl2-esl310-rsm0-rcm100-esm29-rsr0-rcr69-esr29.npz,,,,,0,169,169,566,,right,red,0.95,708.9497621059418,709.4387679100037,3,7,5,lightness,readingArea,realistic,75,2023-04-01_12h05.37.928,tripletExp_regina_11082022,2022.2.4,120.3368268841792,
6,4,10,0,0.027777777777778,1.0,0,0.694444444444444,0.298245614035088,0,0.694444444444444,1.0,ReadingArea_rsl0-rcl2-esl100-rsm0-rcm69-esm29-rsr0-rcr69-esr100,exr/ReadingArea_rsl0-rcl2-esl100-rsm0-rcm69-esm29-rsr0-rcr69-esr100.exr,ReadingArea_rsl0-rcl2-esl100-rsm0-rcm69-esm29-rsr0-rcr69-esr100.npz,,,,,0,170,170,554,,right,red,0.85,711.1639759540558,711.6244370937347,3,7,5,lightness,readingArea,realistic,75,2023-04-01_12h05.37.928,tripletExp_regina_11082022,2022.2.4,120.3368268841792,
0,7,13,0,0.027777777777778,0.298245614035088,0,0.111111111111111,1.0,0,0.111111111111111,3.10526315789474,ReadingArea_rsl0-rcl2-esl29-rsm0-rcm11-esm100-rsr0-rcr11-esr310,exr/ReadingArea_rsl0-rcl2-esl29-rsm0-rcm11-esm100-rsr0-rcr11-esr310.exr,ReadingArea_rsl0-rcl2-esl29-rsm0-rcm11-esm100-rsr0-rcr11-esr310.npz,,,,,0,171,171,159,,right,red,0.76,713.3485310077667,714.0133020877838,3,7,5,lightness,readingArea,realistic,75,2023-04-01_12h05.37.928,tripletExp_regina_11082022,2022.2.4,120.3368268841792,
10,0,11,0,0.694444444444444,1.0,0,0.027777777777778,0.298245614035088,0,1.0,1.0,ReadingArea_rsl0-rcl69-esl100-rsm0-rcm2-esm29-rsr0-rcr100-esr100,exr/ReadingArea_rsl0-rcl69-esl100-rsm0-rcm2-esm29-rsr0-rcr100-esr100.exr,ReadingArea_rsl0-rcl69-esl100-rsm0-rcm2-esm29-rsr0-rcr100-esr100.npz,,,,,0,172,172,573,,left,green,2.43,717.4652180671692,717.9554390907288,3,7,5,lightness,readingArea,realistic,75,2023-04-01_12h05.37.928,tripletExp_regina_11082022,2022.2.4,120.3368268841792,
7,8,11,0,0.111111111111111,1.0,0,0.25,1.0,0,1.0,1.0,ReadingArea_rsl0-rcl11-esl100-rsm0-rcm25-esm100-rsr0-rcr100-esr100,exr/ReadingArea_rsl0-rcl11-esl100-rsm0-rcm25-esm100-rsr0-rcr100-esr100.exr,ReadingArea_rsl0-rcl11-esl100-rsm0-rcm25-esm100-rsr0-rcr100-esr100.npz,,,,,0,173,173,363,,left,green,0.87,719.6631889343262,720.163782119751,3,7,5,lightness,readingArea,realistic,75,2023-04-01_12h05.37.928,tripletExp_regina_11082022,2022.2.4,120.3368268841792,
10,13,6,0,0.694444444444444,1.0,0,0.111111111111111,3.10526315789474,0,0.027777777777778,1.0,ReadingArea_rsl0-rcl69-esl100-rsm0-rcm11-esm310-rsr0-rcr2-esr100,exr/ReadingArea_rsl0-rcl69-esl100-rsm0-rcm11-esm310-rsr0-rcr2-esr100.exr,ReadingArea_rsl0-rcl69-esl100-rsm0-rcm11-esm310-rsr0-rcr2-esr100.npz,,,,,0,174,174,351,,left,green,0.93,721.8636689186096,722.3425841331482,3,7,5,lightness,readingArea,realistic,75,2023-04-01_12h05.37.928,tripletExp_regina_11082022,2022.2.4,120.3368268841792,
10,7,13,0,0.694444444444444,1.0,0,0.111111111111111,1.0,0,0.111111111111111,3.10526315789474,ReadingArea_rsl0-rcl69-esl100-rsm0-rcm11-esm100-rsr0-rcr11-esr310,exr/ReadingArea_rsl0-rcl69-esl100-rsm0-rcm11-esm100-rsr0-rcr11-esr310.exr,ReadingArea_rsl0-rcl69-esl100-rsm0-rcm11-esm100-rsr0-rcr11-esr310.npz,,,,,0,175,175,379,,right,red,0.88,724.050262928009,724.5413739681244,3,7,5,lightness,readingArea,realistic,75,2023-04-01_12h05.37.928,tripletExp_regina_11082022,2022.2.4,120.3368268841792,
6,10,11,0,0.027777777777778,1.0,0,0.694444444444444,1.0,0,1.0,1.0,ReadingArea_rsl0-rcl2-esl100-rsm0-rcm69-esm100-rsr0-rcr100-esr100,exr/ReadingArea_rsl0-rcl2-esl100-rsm0-rcm69-esm100-rsr0-rcr100-esr100.exr,ReadingArea_rsl0-rcl2-esl100-rsm0-rcm69-esm100-rsr0-rcr100-esr100.npz,,,,,0,176,176,116,,right,red,0.84,726.241131067276,726.7395610809326,3,7,5,lightness,readingArea,realistic,75,2023-04-01_12h05.37.928,tripletExp_regina_11082022,2022.2.4,120.3368268841792,
5,0,11,0,1.0,0.298245614035088,0,0.027777777777778,0.298245614035088,0,1.0,1.0,ReadingArea_rsl0-rcl100-esl29-rsm0-rcm2-esm29-rsr0-rcr100-esr100,exr/ReadingArea_rsl0-rcl100-esl29-rsm0-rcm2-esm29-rsr0-rcr100-esr100.exr,ReadingArea_rsl0-rcl100-esl29-rsm0-rcm2-esm29-rsr0-rcr100-esr100.npz,,,,,0,177,177,547,,left,green,1.02,728.439836025238,729.0546419620514,3,7,5,lightness,readingArea,realistic,75,2023-04-01_12h05.37.928,tripletExp_regina_11082022,2022.2.4,120.3368268841792,
6,12,7,0,0.027777777777778,1.0,0,0.027777777777778,3.10526315789474,0,0.111111111111111,1.0,ReadingArea_rsl0-rcl2-esl100-rsm0-rcm2-esm310-rsr0-rcr11-esr100,exr/ReadingArea_rsl0-rcl2-esl100-rsm0-rcm2-esm310-rsr0-rcr11-esr100.exr,ReadingArea_rsl0-rcl2-esl100-rsm0-rcm2-esm310-rsr0-rcr11-esr100.npz,,,,,0,178,178,157,,right,red,1.12,730.7648210525513,731.2571640014648,3,7,5,lightness,readingArea,realistic,75,2023-04-01_12h05.37.928,tripletExp_regina_11082022,2022.2.4,120.3368268841792,
1,14,8,0,0.111111111111111,0.298245614035088,0,0.25,3.10526315789474,0,0.25,1.0,ReadingArea_rsl0-rcl11-esl29-rsm0-rcm25-esm310-rsr0-rcr25-esr100,exr/ReadingArea_rsl0-rcl11-esl29-rsm0-rcm25-esm310-rsr0-rcr25-esr100.exr,ReadingArea_rsl0-rcl11-esl29-rsm0-rcm25-esm310-rsr0-rcr25-esr100.npz,,,,,0,179,179,108,,right,red,1.1,732.968652009964,733.4210650920868,3,7,5,lightness,readingArea,realistic,75,2023-04-01_12h05.37.928,tripletExp_regina_11082022,2022.2.4,120.3368268841792,
12,13,14,0,0.027777777777778,3.10526315789474,0,0.111111111111111,3.10526315789474,0,0.25,3.10526315789474,ReadingArea_rsl0-rcl2-esl310-rsm0-rcm11-esm310-rsr0-rcr25-esr310,exr/ReadingArea_rsl0-rcl2-esl310-rsm0-rcm11-esm310-rsr0-rcr25-esr310.exr,ReadingArea_rsl0-rcl2-esl310-rsm0-rcm11-esm310-rsr0-rcr25-esr310.npz,,,,,0,180,180,208,,right,red,1.01,735.1260249614716,735.603541135788,3,7,5,lightness,readingArea,realistic,75,2023-04-01_12h05.37.928,tripletExp_regina_11082022,2022.2.4,120.3368268841792,
11,5,8,0,1.0,1.0,0,1.0,0.298245614035088,0,0.25,1.0,ReadingArea_rsl0-rcl100-esl100-rsm0-rcm100-esm29-rsr0-rcr25-esr100,exr/ReadingArea_rsl0-rcl100-esl100-rsm0-rcm100-esm29-rsr0-rcr25-esr100.exr,ReadingArea_rsl0-rcl100-esl100-rsm0-rcm100-esm29-rsr0-rcr25-esr100.npz,,,,,0,181,181,86,,left,green,1.03,737.3082480430603,737.8043820858002,3,7,5,lightness,readingArea,realistic,75,2023-04-01_12h05.37.928,tripletExp_regina_11082022,2022.2.4,120.3368268841792,
2,3,6,0,0.25,0.298245614035088,0,0.444444444444444,0.298245614035088,0,0.027777777777778,1.0,ReadingArea_rsl0-rcl25-esl29-rsm0-rcm44-esm29-rsr0-rcr2-esr100,exr/ReadingArea_rsl0-rcl25-esl29-rsm0-rcm44-esm29-rsr0-rcr2-esr100.exr,ReadingArea_rsl0-rcl25-esl29-rsm0-rcm44-esm29-rsr0-rcr2-esr100.npz,,,,,0,182,182,357,,left,green,0.82,739.503091096878,739.9769899845123,3,7,5,lightness,readingArea,realistic,75,2023-04-01_12h05.37.928,tripletExp_regina_11082022,2022.2.4,120.3368268841792,
14,6,2,0,0.25,3.10526315789474,0,0.027777777777778,1.0,0,0.25,0.298245614035088,ReadingArea_rsl0-rcl25-esl310-rsm0-rcm2-esm100-rsr0-rcr25-esr29,exr/ReadingArea_rsl0-rcl25-esl310-rsm0-rcm2-esm100-rsr0-rcr25-esr29.exr,ReadingArea_rsl0-rcl25-esl310-rsm0-rcm2-esm100-rsr0-rcr25-esr29.npz,,,,,0,183,183,272,,right,red,0.77,741.6696019172668,742.1518549919128,3,7,5,lightness,readingArea,realistic,75,2023-04-01_12h05.37.928,tripletExp_regina_11082022,2022.2.4,120.3368268841792,
12,3,13,0,0.027777777777778,3.10526315789474,0,0.444444444444444,0.298245614035088,0,0.111111111111111,3.10526315789474,ReadingArea_rsl0-rcl2-esl310-rsm0-rcm44-esm29-rsr0-rcr11-esr310,exr/ReadingArea_rsl0-rcl2-esl310-rsm0-rcm44-esm29-rsr0-rcr11-esr310.exr,ReadingArea_rsl0-rcl2-esl310-rsm0-rcm44-esm29-rsr0-rcr11-esr310.npz,,,,,0,184,184,383,,right,red,1.14,743.8563480377197,744.3239390850067,3,7,5,lightness,readingArea,realistic,75,2023-04-01_12h05.37.928,tripletExp_regina_11082022,2022.2.4,120.3368268841792,
7,5,11,0,0.111111111111111,1.0,0,1.0,0.298245614035088,0,1.0,1.0,ReadingArea_rsl0-rcl11-esl100-rsm0-rcm100-esm29-rsr0-rcr100-esr100,exr/ReadingArea_rsl0-rcl11-esl100-rsm0-rcm100-esm29-rsr0-rcr100-esr100.exr,ReadingArea_rsl0-rcl11-esl100-rsm0-rcm100-esm29-rsr0-rcr100-esr100.npz,,,,,0,185,185,10,,right,red,0.96,746.0203769207001,746.5174341201782,3,7,5,lightness,readingArea,realistic,75,2023-04-01_12h05.37.928,tripletExp_regina_11082022,2022.2.4,120.3368268841792,
2,13,0,0,0.25,0.298245614035088,0,0.111111111111111,3.10526315789474,0,0.027777777777778,0.298245614035088,ReadingArea_rsl0-rcl25-esl29-rsm0-rcm11-esm310-rsr0-rcr2-esr29,exr/ReadingArea_rsl0-rcl25-esl29-rsm0-rcm11-esm310-rsr0-rcr2-esr29.exr,ReadingArea_rsl0-rcl25-esl29-rsm0-rcm11-esm310-rsr0-rcr2-esr29.npz,,,,,0,186,186,454,,left,green,1.05,748.2194819450378,748.6949830055237,3,7,5,lightness,readingArea,realistic,75,2023-04-01_12h05.37.928,tripletExp_regina_11082022,2022.2.4,120.3368268841792,
9,0,6,0,0.444444444444444,1.0,0,0.027777777777778,0.298245614035088,0,0.027777777777778,1.0,ReadingArea_rsl0-rcl44-esl100-rsm0-rcm2-esm29-rsr0-rcr2-esr100,exr/ReadingArea_rsl0-rcl44-esl100-rsm0-rcm2-esm29-rsr0-rcr2-esr100.exr,ReadingArea_rsl0-rcl44-esl100-rsm0-rcm2-esm29-rsr0-rcr2-esr100.npz,,,,,0,187,187,362,,right,red,0.83,750.39568400383,750.8960690498352,3,7,5,lightness,readingArea,realistic,75,2023-04-01_12h05.37.928,tripletExp_regina_11082022,2022.2.4,120.3368268841792,
2,14,8,0,0.25,0.298245614035088,0,0.25,3.10526315789474,0,0.25,1.0,ReadingArea_rsl0-rcl25-esl29-rsm0-rcm25-esm310-rsr0-rcr25-esr100,exr/ReadingArea_rsl0-rcl25-esl29-rsm0-rcm25-esm310-rsr0-rcr25-esr100.exr,ReadingArea_rsl0-rcl25-esl29-rsm0-rcm25-esm310-rsr0-rcr25-esr100.npz,,,,,0,188,188,255,,right,red,0.88,752.606183052063,753.0907740592957,3,7,5,lightness,readingArea,realistic,75,2023-04-01_12h05.37.928,tripletExp_regina_11082022,2022.2.4,120.3368268841792,
1,12,10,0,0.111111111111111,0.298245614035088,0,0.027777777777778,3.10526315789474,0,0.694444444444444,1.0,ReadingArea_rsl0-rcl11-esl29-rsm0-rcm2-esm310-rsr0-rcr69-esr100,exr/ReadingArea_rsl0-rcl11-esl29-rsm0-rcm2-esm310-rsr0-rcr69-esr100.exr,ReadingArea_rsl0-rcl11-esl29-rsm0-rcm2-esm310-rsr0-rcr69-esr100.npz,,,,,0,189,189,567,,left,green,1.06,754.7959089279175,755.456442117691,3,7,5,lightness,readingArea,realistic,75,2023-04-01_12h05.37.928,tripletExp_regina_11082022,2022.2.4,120.3368268841792,
9,0,14,0,0.444444444444444,1.0,0,0.027777777777778,0.298245614035088,0,0.25,3.10526315789474,ReadingArea_rsl0-rcl44-esl100-rsm0-rcm2-esm29-rsr0-rcr25-esr310,exr/ReadingArea_rsl0-rcl44-esl100-rsm0-rcm2-esm29-rsr0-rcr25-esr310.exr,ReadingArea_rsl0-rcl44-esl100-rsm0-rcm2-esm29-rsr0-rcr25-esr310.npz,,,,,0,190,190,550,,left,green,2.67,758.9127080440521,759.421394109726,3,7,5,lightness,readingArea,realistic,75,2023-04-01_12h05.37.928,tripletExp_regina_11082022,2022.2.4,120.3368268841792,
13,8,5,0,0.111111111111111,3.10526315789474,0,0.25,1.0,0,1.0,0.298245614035088,ReadingArea_rsl0-rcl11-esl310-rsm0-rcm25-esm100-rsr0-rcr100-esr29,exr/ReadingArea_rsl0-rcl11-esl310-rsm0-rcm25-esm100-rsr0-rcr100-esr29.exr,ReadingArea_rsl0-rcl11-esl310-rsm0-rcm25-esm100-rsr0-rcr100-esr29.npz,,,,,0,191,191,209,,left,green,2.36,762.9035320281982,763.376326084137,3,7,5,lightness,readingArea,realistic,75,2023-04-01_12h05.37.928,tripletExp_regina_11082022,2022.2.4,120.3368268841792,
11,0,6,0,1.0,1.0,0,0.027777777777778,0.298245614035088,0,0.027777777777778,1.0,ReadingArea_rsl0-rcl100-esl100-rsm0-rcm2-esm29-rsr0-rcr2-esr100,exr/ReadingArea_rsl0-rcl100-esl100-rsm0-rcm2-esm29-rsr0-rcr2-esr100.exr,ReadingArea_rsl0-rcl100-esl100-rsm0-rcm2-esm29-rsr0-rcr2-esr100.npz,,,,,0,192,192,586,,right,red,0.91,765.0727739334106,765.6679139137268,3,7,5,lightness,readingArea,realistic,75,2023-04-01_12h05.37.928,tripletExp_regina_11082022,2022.2.4,120.3368268841792,
9,11,10,0,0.444444444444444,1.0,0,1.0,1.0,0,0.694444444444444,1.0,ReadingArea_rsl0-rcl44-esl100-rsm0-rcm100-esm100-rsr0-rcr69-esr100,exr/ReadingArea_rsl0-rcl44-esl100-rsm0-rcm100-esm100-rsr0-rcr69-esr100.exr,ReadingArea_rsl0-rcl44-esl100-rsm0-rcm100-esm100-rsr0-rcr69-esr100.npz,,,,,0,193,193,591,,right,red,2.37,769.1263089179993,769.6237189769745,3,7,5,lightness,readingArea,realistic,75,2023-04-01_12h05.37.928,tripletExp_regina_11082022,2022.2.4,120.3368268841792,
13,9,6,0,0.111111111111111,3.10526315789474,0,0.444444444444444,1.0,0,0.027777777777778,1.0,ReadingArea_rsl0-rcl11-esl310-rsm0-rcm44-esm100-rsr0-rcr2-esr100,exr/ReadingArea_rsl0-rcl11-esl310-rsm0-rcm44-esm100-rsr0-rcr2-esr100.exr,ReadingArea_rsl0-rcl11-esl310-rsm0-rcm44-esm100-rsr0-rcr2-esr100.npz,,,,,0,194,194,19,,left,green,0.9,771.3367919921875,,3,7,5,lightness,readingArea,realistic,75,2023-04-01_12h05.37.928,tripletExp_regina_11082022,2022.2.4,120.3368268841792,
1,12,11,0,0.111111111111111,0.298245614035088,0,0.027777777777778,3.10526315789474,0,1.0,1.0,ReadingArea_rsl0-rcl11-esl29-rsm0-rcm2-esm310-rsr0-rcr100-esr100,exr/ReadingArea_rsl0-rcl11-esl29-rsm0-rcm2-esm310-rsr0-rcr100-esr100.exr,ReadingArea_rsl0-rcl11-esl29-rsm0-rcm2-esm310-rsr0-rcr100-esr100.npz,,,,,0,195,195,178,,left,green,0.8,773.5362911224365,774.016294002533,3,7,5,lightness,readingArea,realistic,75,2023-04-01_12h05.37.928,tripletExp_regina_11082022,2022.2.4,120.3368268841792,
3,2,8,0,0.444444444444444,0.298245614035088,0,0.25,0.298245614035088,0,0.25,1.0,ReadingArea_rsl0-rcl44-esl29-rsm0-rcm25-esm29-rsr0-rcr25-esr100,exr/ReadingArea_rsl0-rcl44-esl29-rsm0-rcm25-esm29-rsr0-rcr25-esr100.exr,ReadingArea_rsl0-rcl44-esl29-rsm0-rcm25-esm29-rsr0-rcr25-esr100.npz,,,,,0,196,196,181,,left,green,1.4,775.7078890800476,776.2580780982971,3,7,5,lightness,readingArea,realistic,75,2023-04-01_12h05.37.928,tripletExp_regina_11082022,2022.2.4,120.3368268841792,
1,13,2,0,0.111111111111111,0.298245614035088,0,0.111111111111111,3.10526315789474,0,0.25,0.298245614035088,ReadingArea_rsl0-rcl11-esl29-rsm0-rcm11-esm310-rsr0-rcr25-esr29,exr/ReadingArea_rsl0-rcl11-esl29-rsm0-rcm11-esm310-rsr0-rcr25-esr29.exr,ReadingArea_rsl0-rcl11-esl29-rsm0-rcm11-esm310-rsr0-rcr25-esr29.npz,,,,,0,197,197,118,,right,red,1.26,777.9594850540161,778.4464011192322,3,7,5,lightness,readingArea,realistic,75,2023-04-01_12h05.37.928,tripletExp_regina_11082022,2022.2.4,120.3368268841792,
7,2,0,0,0.111111111111111,1.0,0,0.25,0.298245614035088,0,0.027777777777778,0.298245614035088,ReadingArea_rsl0-rcl11-esl100-rsm0-rcm25-esm29-rsr0-rcr2-esr29,exr/ReadingArea_rsl0-rcl11-esl100-rsm0-rcm25-esm29-rsr0-rcr2-esr29.exr,ReadingArea_rsl0-rcl11-esl100-rsm0-rcm25-esm29-rsr0-rcr2-esr29.npz,,,,,0,198,198,520,,left,green,0.86,780.15447306633,,3,7,5,lightness,readingArea,realistic,75,2023-04-01_12h05.37.928,tripletExp_regina_11082022,2022.2.4,120.3368268841792,
14,4,8,0,0.25,3.10526315789474,0,0.694444444444444,0.298245614035088,0,0.25,1.0,ReadingArea_rsl0-rcl25-esl310-rsm0-rcm69-esm29-rsr0-rcr25-esr100,exr/ReadingArea_rsl0-rcl25-esl310-rsm0-rcm69-esm29-rsr0-rcr25-esr100.exr,ReadingArea_rsl0-rcl25-esl310-rsm0-rcm69-esm29-rsr0-rcr25-esr100.npz,,,,,0,199,199,253,,right,red,1.04,782.3433089256287,782.8227300643921,3,7,5,lightness,readingArea,realistic,75,2023-04-01_12h05.37.928,tripletExp_regina_11082022,2022.2.4,120.3368268841792,
7,6,11,0,0.111111111111111,1.0,0,0.027777777777778,1.0,0,1.0,1.0,ReadingArea_rsl0-rcl11-esl100-rsm0-rcm2-esm100-rsr0-rcr100-esr100,exr/ReadingArea_rsl0-rcl11-esl100-rsm0-rcm2-esm100-rsr0-rcr100-esr100.exr,ReadingArea_rsl0-rcl11-esl100-rsm0-rcm2-esm100-rsr0-rcr100-esr100.npz,,,,,0,200,200,84,,left,green,0.81,784.5205249786377,785.0339829921722,3,7,5,lightness,readingArea,realistic,75,2023-04-01_12h05.37.928,tripletExp_regina_11082022,2022.2.4,120.3368268841792,
8,12,4,0,0.25,1.0,0,0.027777777777778,3.10526315789474,0,0.694444444444444,0.298245614035088,ReadingArea_rsl0-rcl25-esl100-rsm0-rcm2-esm310-rsr0-rcr69-esr29,exr/ReadingArea_rsl0-rcl25-esl100-rsm0-rcm2-esm310-rsr0-rcr69-esr29.exr,ReadingArea_rsl0-rcl25-esl100-rsm0-rcm2-esm310-rsr0-rcr69-esr29.npz,,,,,0,201,201,30,,left,green,1.4,786.7397320270538,787.2689070701599,3,7,5,lightness,readingArea,realistic,75,2023-04-01_12h05.37.928,tripletExp_regina_11082022,2022.2.4,120.3368268841792,
10,3,14,0,0.694444444444444,1.0,0,0.444444444444444,0.298245614035088,0,0.25,3.10526315789474,ReadingArea_rsl0-rcl69-esl100-rsm0-rcm44-esm29-rsr0-rcr25-esr310,exr/ReadingArea_rsl0-rcl69-esl100-rsm0-rcm44-esm29-rsr0-rcr25-esr310.exr,ReadingArea_rsl0-rcl69-esl100-rsm0-rcm44-esm29-rsr0-rcr25-esr310.npz,,,,,0,202,202,597,,right,red,1.14,788.9761171340942,789.4673840999603,3,7,5,lightness,readingArea,realistic,75,2023-04-01_12h05.37.928,tripletExp_regina_11082022,2022.2.4,120.3368268841792,
6,12,3,0,0.027777777777778,1.0,0,0.027777777777778,3.10526315789474,0,0.444444444444444,0.298245614035088,ReadingArea_rsl0-rcl2-esl100-rsm0-rcm2-esm310-rsr0-rcr44-esr29,exr/ReadingArea_rsl0-rcl2-esl100-rsm0-rcm2-esm310-rsr0-rcr44-esr29.exr,ReadingArea_rsl0-rcl2-esl100-rsm0-rcm2-esm310-rsr0-rcr44-esr29.npz,,,,,0,203,203,284,,right,red,1.06,791.1654419898987,791.6562941074371,3,7,5,lightness,readingArea,realistic,75,2023-04-01_12h05.37.928,tripletExp_regina_11082022,2022.2.4,120.3368268841792,
1,5,14,0,0.111111111111111,0.298245614035088,0,1.0,0.298245614035088,0,0.25,3.10526315789474,ReadingArea_rsl0-rcl11-esl29-rsm0-rcm100-esm29-rsr0-rcr25-esr310,exr/ReadingArea_rsl0-rcl11-esl29-rsm0-rcm100-esm29-rsr0-rcr25-esr310.exr,ReadingArea_rsl0-rcl11-esl29-rsm0-rcm100-esm29-rsr0-rcr25-esr310.npz,,,,,0,204,204,191,,right,red,0.92,793.3557670116425,793.8431529998779,3,7,5,lightness,readingArea,realistic,75,2023-04-01_12h05.37.928,tripletExp_regina_11082022,2022.2.4,120.3368268841792,
