index_left,index_middle,index_right,reflectance_surround_left,reflectance_center_left,emission_spot_left,reflectance_surround_middle,reflectance_center_middle,emission_spot_middle,reflectance_surround_right,reflectance_center_right,emission_spot_right,ImageName,ImageExr,ImageNpy,trials_2.thisRepN,trials_2.thisTrialN,trials_2.thisN,trials_2.thisIndex,trials.thisRepN,trials.thisTrialN,trials.thisN,trials.thisIndex,sound_1.started,sound_1.stopped,BB_Trial.resp,BB_Trial.color,BB_Trial.rt,text.started,text.stopped,block,sound_4.started,participant,session,L/B,scene,condition,nTrialsPerBlock,date,expName,psychopyVersion,frameRate,Unnamed: 42
3,4,0,2,0.444444444444444,0.298245614035088,2,0.694444444444444,0.298245614035088,2,0.027777777777778,0.298245614035088,ReadingArea_rsl2-rcl44-esl29-rsm2-rcm69-esm29-rsr2-rcr2-esr29,exr/ReadingArea_rsl2-rcl44-esl29-rsm2-rcm69-esm29-rsr2-rcr2-esr29.exr,ReadingArea_rsl2-rcl44-esl29-rsm2-rcm69-esm29-rsr2-rcr2-esr29.npz,,,,,0,0,0,130,146.335964512825,67.99202585220337,left,green,0.63,156.014878988266,156.4488868713379,1,,1,10,brightness,readingArea,realistic,75,2023-04-01_14h15.04.585,tripletExp_regina_11082022,2022.2.4,120.3368268841792,
9,11,5,2,0.444444444444444,1.0,2,1.0,1.0,2,1.0,0.298245614035088,ReadingArea_rsl2-rcl44-esl100-rsm2-rcm100-esm100-rsr2-rcr100-esr29,exr/ReadingArea_rsl2-rcl44-esl100-rsm2-rcm100-esm100-rsr2-rcr100-esr29.exr,ReadingArea_rsl2-rcl44-esl100-rsm2-rcm100-esm100-rsr2-rcr100-esr29.npz,,,,,0,1,1,142,,,right,red,0.94,158.16515803337097,158.6356258392334,1,,1,10,brightness,readingArea,realistic,75,2023-04-01_14h15.04.585,tripletExp_regina_11082022,2022.2.4,120.3368268841792,
6,13,0,2,0.027777777777778,1.0,2,0.111111111111111,3.10526315789474,2,0.027777777777778,0.298245614035088,ReadingArea_rsl2-rcl2-esl100-rsm2-rcm11-esm310-rsr2-rcr2-esr29,exr/ReadingArea_rsl2-rcl2-esl100-rsm2-rcm11-esm310-rsr2-rcr2-esr29.exr,ReadingArea_rsl2-rcl2-esl100-rsm2-rcm11-esm310-rsr2-rcr2-esr29.npz,,,,,0,2,2,580,,,,red,0.94,163.85905385017395,164.28272891044617,1,163.52643258571624,1,10,brightness,readingArea,realistic,75,2023-04-01_14h15.04.585,tripletExp_regina_11082022,2022.2.4,120.3368268841792,
1,13,2,2,0.111111111111111,0.298245614035088,2,0.111111111111111,3.10526315789474,2,0.25,0.298245614035088,ReadingArea_rsl2-rcl11-esl29-rsm2-rcm11-esm310-rsr2-rcr25-esr29,exr/ReadingArea_rsl2-rcl11-esl29-rsm2-rcm11-esm310-rsr2-rcr25-esr29.exr,ReadingArea_rsl2-rcl11-esl29-rsm2-rcm11-esm310-rsr2-rcr25-esr29.npz,,,,,0,3,3,118,,,right,red,1.14,165.98214983940125,166.50796794891355,1,,1,10,brightness,readingArea,realistic,75,2023-04-01_14h15.04.585,tripletExp_regina_11082022,2022.2.4,120.3368268841792,
5,0,6,2,1.0,0.298245614035088,2,0.027777777777778,0.298245614035088,2,0.027777777777778,1.0,ReadingArea_rsl2-rcl100-esl29-rsm2-rcm2-esm29-rsr2-rcr2-esr100,exr/ReadingArea_rsl2-rcl100-esl29-rsm2-rcm2-esm29-rsr2-rcr2-esr100.exr,ReadingArea_rsl2-rcl100-esl29-rsm2-rcm2-esm29-rsr2-rcr2-esr100.npz,,,,,0,4,4,1,,,right,red,0.71,168.21079897880554,168.6285219192505,1,,1,10,brightness,readingArea,realistic,75,2023-04-01_14h15.04.585,tripletExp_regina_11082022,2022.2.4,120.3368268841792,
11,3,12,2,1.0,1.0,2,0.444444444444444,0.298245614035088,2,0.027777777777778,3.10526315789474,ReadingArea_rsl2-rcl100-esl100-rsm2-rcm44-esm29-rsr2-rcr2-esr310,exr/ReadingArea_rsl2-rcl100-esl100-rsm2-rcm44-esm29-rsr2-rcr2-esr310.exr,ReadingArea_rsl2-rcl100-esl100-rsm2-rcm44-esm29-rsr2-rcr2-esr310.npz,,,,,0,5,5,355,,,right,red,2.21,172.07173681259155,172.4914379119873,1,,1,10,brightness,readingArea,realistic,75,2023-04-01_14h15.04.585,tripletExp_regina_11082022,2022.2.4,120.3368268841792,
5,2,10,2,1.0,0.298245614035088,2,0.25,0.298245614035088,2,0.694444444444444,1.0,ReadingArea_rsl2-rcl100-esl29-rsm2-rcm25-esm29-rsr2-rcr69-esr100,exr/ReadingArea_rsl2-rcl100-esl29-rsm2-rcm25-esm29-rsr2-rcr69-esr100.exr,ReadingArea_rsl2-rcl100-esl29-rsm2-rcm25-esm29-rsr2-rcr69-esr100.npz,,,,,0,6,6,595,,,left,green,2.01,175.96958780288696,176.3900740146637,1,,1,10,brightness,readingArea,realistic,75,2023-04-01_14h15.04.585,tripletExp_regina_11082022,2022.2.4,120.3368268841792,
5,2,14,2,1.0,0.298245614035088,2,0.25,0.298245614035088,2,0.25,3.10526315789474,ReadingArea_rsl2-rcl100-esl29-rsm2-rcm25-esm29-rsr2-rcr25-esr310,exr/ReadingArea_rsl2-rcl100-esl29-rsm2-rcm25-esm29-rsr2-rcr25-esr310.exr,ReadingArea_rsl2-rcl100-esl29-rsm2-rcm25-esm29-rsr2-rcr25-esr310.npz,,,,,0,7,7,462,,,right,red,0.77,178.11249089241028,178.5326600074768,1,,1,10,brightness,readingArea,realistic,75,2023-04-01_14h15.04.585,tripletExp_regina_11082022,2022.2.4,120.3368268841792,
5,9,0,2,1.0,0.298245614035088,2,0.444444444444444,1.0,2,0.027777777777778,0.298245614035088,ReadingArea_rsl2-rcl100-esl29-rsm2-rcm44-esm100-rsr2-rcr2-esr29,exr/ReadingArea_rsl2-rcl100-esl29-rsm2-rcm44-esm100-rsr2-rcr2-esr29.exr,ReadingArea_rsl2-rcl100-esl29-rsm2-rcm44-esm100-rsr2-rcr2-esr29.npz,,,,,0,8,8,575,,,left,green,0.66,180.2314338684082,180.6504249572754,1,,1,10,brightness,readingArea,realistic,75,2023-04-01_14h15.04.585,tripletExp_regina_11082022,2022.2.4,120.3368268841792,
6,4,13,2,0.027777777777778,1.0,2,0.694444444444444,0.298245614035088,2,0.111111111111111,3.10526315789474,ReadingArea_rsl2-rcl2-esl100-rsm2-rcm69-esm29-rsr2-rcr11-esr310,exr/ReadingArea_rsl2-rcl2-esl100-rsm2-rcm69-esm29-rsr2-rcr11-esr310.exr,ReadingArea_rsl2-rcl2-esl100-rsm2-rcm69-esm29-rsr2-rcr11-esr310.npz,,,,,0,9,9,202,,,right,red,0.55,182.35532879829407,182.8637399673462,1,,1,10,brightness,readingArea,realistic,75,2023-04-01_14h15.04.585,tripletExp_regina_11082022,2022.2.4,120.3368268841792,
14,11,4,2,0.25,3.10526315789474,2,1.0,1.0,2,0.694444444444444,0.298245614035088,ReadingArea_rsl2-rcl25-esl310-rsm2-rcm100-esm100-rsr2-rcr69-esr29,exr/ReadingArea_rsl2-rcl25-esl310-rsm2-rcm100-esm100-rsr2-rcr69-esr29.exr,ReadingArea_rsl2-rcl25-esl310-rsm2-rcm100-esm100-rsr2-rcr69-esr29.npz,,,,,0,10,10,370,,,left,green,0.72,184.5635838508606,184.9815599918365,1,,1,10,brightness,readingArea,realistic,75,2023-04-01_14h15.04.585,tripletExp_regina_11082022,2022.2.4,120.3368268841792,
4,8,7,2,0.694444444444444,0.298245614035088,2,0.25,1.0,2,0.111111111111111,1.0,ReadingArea_rsl2-rcl69-esl29-rsm2-rcm25-esm100-rsr2-rcr11-esr100,exr/ReadingArea_rsl2-rcl69-esl29-rsm2-rcm25-esm100-rsr2-rcr11-esr100.exr,ReadingArea_rsl2-rcl69-esl29-rsm2-rcm25-esm100-rsr2-rcr11-esr100.npz,,,,,0,11,11,461,,,right,red,4.53,190.24597692489624,190.6688208580017,1,,1,10,brightness,readingArea,realistic,75,2023-04-01_14h15.04.585,tripletExp_regina_11082022,2022.2.4,120.3368268841792,
7,5,1,2,0.111111111111111,1.0,2,1.0,0.298245614035088,2,0.111111111111111,0.298245614035088,ReadingArea_rsl2-rcl11-esl100-rsm2-rcm100-esm29-rsr2-rcr11-esr29,exr/ReadingArea_rsl2-rcl11-esl100-rsm2-rcm100-esm29-rsr2-rcr11-esr29.exr,ReadingArea_rsl2-rcl11-esl100-rsm2-rcm100-esm29-rsr2-rcr11-esr29.npz,,,,,0,12,12,513,,,left,green,1.21,192.3898429870605,192.80901098251343,1,,1,10,brightness,readingArea,realistic,75,2023-04-01_14h15.04.585,tripletExp_regina_11082022,2022.2.4,120.3368268841792,
0,9,10,2,0.027777777777778,0.298245614035088,2,0.444444444444444,1.0,2,0.694444444444444,1.0,ReadingArea_rsl2-rcl2-esl29-rsm2-rcm44-esm100-rsr2-rcr69-esr100,exr/ReadingArea_rsl2-rcl2-esl29-rsm2-rcm44-esm100-rsr2-rcr69-esr100.exr,ReadingArea_rsl2-rcl2-esl29-rsm2-rcm44-esm100-rsr2-rcr69-esr100.npz,,,,,0,13,13,434,,,right,red,0.53,194.49866890907288,194.9163608551025,1,,1,10,brightness,readingArea,realistic,75,2023-04-01_14h15.04.585,tripletExp_regina_11082022,2022.2.4,120.3368268841792,
9,2,12,2,0.444444444444444,1.0,2,0.25,0.298245614035088,2,0.027777777777778,3.10526315789474,ReadingArea_rsl2-rcl44-esl100-rsm2-rcm25-esm29-rsr2-rcr2-esr310,exr/ReadingArea_rsl2-rcl44-esl100-rsm2-rcm25-esm29-rsr2-rcr2-esr310.exr,ReadingArea_rsl2-rcl44-esl100-rsm2-rcm25-esm29-rsr2-rcr2-esr310.npz,,,,,0,14,14,391,,,right,red,0.63,196.63590693473816,,1,,1,10,brightness,readingArea,realistic,75,2023-04-01_14h15.04.585,tripletExp_regina_11082022,2022.2.4,120.3368268841792,
9,13,5,2,0.444444444444444,1.0,2,0.111111111111111,3.10526315789474,2,1.0,0.298245614035088,ReadingArea_rsl2-rcl44-esl100-rsm2-rcm11-esm310-rsr2-rcr100-esr29,exr/ReadingArea_rsl2-rcl44-esl100-rsm2-rcm11-esm310-rsr2-rcr100-esr29.exr,ReadingArea_rsl2-rcl44-esl100-rsm2-rcm11-esm310-rsr2-rcr100-esr29.npz,,,,,0,15,15,349,,,left,green,0.94,198.749746799469,199.1874840259552,1,,1,10,brightness,readingArea,realistic,75,2023-04-01_14h15.04.585,tripletExp_regina_11082022,2022.2.4,120.3368268841792,
9,6,14,2,0.444444444444444,1.0,2,0.027777777777778,1.0,2,0.25,3.10526315789474,ReadingArea_rsl2-rcl44-esl100-rsm2-rcm2-esm100-rsr2-rcr25-esr310,exr/ReadingArea_rsl2-rcl44-esl100-rsm2-rcm2-esm100-rsr2-rcr25-esr310.exr,ReadingArea_rsl2-rcl44-esl100-rsm2-rcm2-esm100-rsr2-rcr25-esr310.npz,,,,,0,16,16,213,,,left,green,0.94,200.89370679855347,201.3076179027557,1,,1,10,brightness,readingArea,realistic,75,2023-04-01_14h15.04.585,tripletExp_regina_11082022,2022.2.4,120.3368268841792,
6,11,7,2,0.027777777777778,1.0,2,1.0,1.0,2,0.111111111111111,1.0,ReadingArea_rsl2-rcl2-esl100-rsm2-rcm100-esm100-rsr2-rcr11-esr100,exr/ReadingArea_rsl2-rcl2-esl100-rsm2-rcm100-esm100-rsr2-rcr11-esr100.exr,ReadingArea_rsl2-rcl2-esl100-rsm2-rcm100-esm100-rsr2-rcr11-esr100.npz,,,,,0,17,17,571,,,right,red,0.69,203.0359418392181,203.48511290550232,1,,1,10,brightness,readingArea,realistic,75,2023-04-01_14h15.04.585,tripletExp_regina_11082022,2022.2.4,120.3368268841792,
12,7,9,2,0.027777777777778,3.10526315789474,2,0.111111111111111,1.0,2,0.444444444444444,1.0,ReadingArea_rsl2-rcl2-esl310-rsm2-rcm11-esm100-rsr2-rcr44-esr100,exr/ReadingArea_rsl2-rcl2-esl310-rsm2-rcm11-esm100-rsr2-rcr44-esr100.exr,ReadingArea_rsl2-rcl2-esl310-rsm2-rcm11-esm100-rsr2-rcr44-esr100.npz,,,,,0,18,18,124,,,left,green,0.57,205.2069039344788,205.63056683540344,1,,1,10,brightness,readingArea,realistic,75,2023-04-01_14h15.04.585,tripletExp_regina_11082022,2022.2.4,120.3368268841792,
4,3,10,2,0.694444444444444,0.298245614035088,2,0.444444444444444,0.298245614035088,2,0.694444444444444,1.0,ReadingArea_rsl2-rcl69-esl29-rsm2-rcm44-esm29-rsr2-rcr69-esr100,exr/ReadingArea_rsl2-rcl69-esl29-rsm2-rcm44-esm29-rsr2-rcr69-esr100.exr,ReadingArea_rsl2-rcl69-esl29-rsm2-rcm44-esm29-rsr2-rcr69-esr100.npz,,,,,0,19,19,371,,,left,green,0.55,207.35640788078308,207.7781398296356,1,,1,10,brightness,readingArea,realistic,75,2023-04-01_14h15.04.585,tripletExp_regina_11082022,2022.2.4,120.3368268841792,
1,11,14,2,0.111111111111111,0.298245614035088,2,1.0,1.0,2,0.25,3.10526315789474,ReadingArea_rsl2-rcl11-esl29-rsm2-rcm100-esm100-rsr2-rcr25-esr310,exr/ReadingArea_rsl2-rcl11-esl29-rsm2-rcm100-esm100-rsr2-rcr25-esr310.exr,ReadingArea_rsl2-rcl11-esl29-rsm2-rcm100-esm100-rsr2-rcr25-esr310.npz,,,,,0,20,20,399,,,right,red,0.75,209.4669909477234,209.88732600212097,1,,1,10,brightness,readingArea,realistic,75,2023-04-01_14h15.04.585,tripletExp_regina_11082022,2022.2.4,120.3368268841792,
7,2,0,2,0.111111111111111,1.0,2,0.25,0.298245614035088,2,0.027777777777778,0.298245614035088,ReadingArea_rsl2-rcl11-esl100-rsm2-rcm25-esm29-rsr2-rcr2-esr29,exr/ReadingArea_rsl2-rcl11-esl100-rsm2-rcm25-esm29-rsr2-rcr2-esr29.exr,ReadingArea_rsl2-rcl11-esl100-rsm2-rcm25-esm29-rsr2-rcr2-esr29.npz,,,,,0,21,21,520,,,left,green,0.53,211.60409092903137,212.02025198936465,1,,1,10,brightness,readingArea,realistic,75,2023-04-01_14h15.04.585,tripletExp_regina_11082022,2022.2.4,120.3368268841792,
8,9,6,2,0.25,1.0,2,0.444444444444444,1.0,2,0.027777777777778,1.0,ReadingArea_rsl2-rcl25-esl100-rsm2-rcm44-esm100-rsr2-rcr2-esr100,exr/ReadingArea_rsl2-rcl25-esl100-rsm2-rcm44-esm100-rsr2-rcr2-esr100.exr,ReadingArea_rsl2-rcl25-esl100-rsm2-rcm44-esm100-rsr2-rcr2-esr100.npz,,,,,0,22,22,3,,,left,green,0.64,213.72529697418213,214.1470739841461,1,,1,10,brightness,readingArea,realistic,75,2023-04-01_14h15.04.585,tripletExp_regina_11082022,2022.2.4,120.3368268841792,
13,3,12,2,0.111111111111111,3.10526315789474,2,0.444444444444444,0.298245614035088,2,0.027777777777778,3.10526315789474,ReadingArea_rsl2-rcl11-esl310-rsm2-rcm44-esm29-rsr2-rcr2-esr310,exr/ReadingArea_rsl2-rcl11-esl310-rsm2-rcm44-esm29-rsr2-rcr2-esr310.exr,ReadingArea_rsl2-rcl11-esl310-rsm2-rcm44-esm29-rsr2-rcr2-esr310.npz,,,,,0,23,23,80,,,left,green,0.64,215.8482789993286,216.27543187141416,1,,1,10,brightness,readingArea,realistic,75,2023-04-01_14h15.04.585,tripletExp_regina_11082022,2022.2.4,120.3368268841792,
4,5,9,2,0.694444444444444,0.298245614035088,2,1.0,0.298245614035088,2,0.444444444444444,1.0,ReadingArea_rsl2-rcl69-esl29-rsm2-rcm100-esm29-rsr2-rcr44-esr100,exr/ReadingArea_rsl2-rcl69-esl29-rsm2-rcm100-esm29-rsr2-rcr44-esr100.exr,ReadingArea_rsl2-rcl69-esl29-rsm2-rcm100-esm29-rsr2-rcr44-esr100.npz,,,,,0,24,24,211,,,right,red,0.82,217.97026991844177,218.38873291015625,1,,1,10,brightness,readingArea,realistic,75,2023-04-01_14h15.04.585,tripletExp_regina_11082022,2022.2.4,120.3368268841792,
14,10,9,2,0.25,3.10526315789474,2,0.694444444444444,1.0,2,0.444444444444444,1.0,ReadingArea_rsl2-rcl25-esl310-rsm2-rcm69-esm100-rsr2-rcr44-esr100,exr/ReadingArea_rsl2-rcl25-esl310-rsm2-rcm69-esm100-rsr2-rcr44-esr100.exr,ReadingArea_rsl2-rcl25-esl310-rsm2-rcm69-esm100-rsr2-rcr44-esr100.npz,,,,,0,25,25,402,,,left,green,0.92,220.08099794387817,,1,,1,10,brightness,readingArea,realistic,75,2023-04-01_14h15.04.585,tripletExp_regina_11082022,2022.2.4,120.3368268841792,
10,7,4,2,0.694444444444444,1.0,2,0.111111111111111,1.0,2,0.694444444444444,0.298245614035088,ReadingArea_rsl2-rcl69-esl100-rsm2-rcm11-esm100-rsr2-rcr69-esr29,exr/ReadingArea_rsl2-rcl69-esl100-rsm2-rcm11-esm100-rsr2-rcr69-esr29.exr,ReadingArea_rsl2-rcl69-esl100-rsm2-rcm11-esm100-rsr2-rcr69-esr29.npz,,,,,0,26,26,223,,,right,red,1.03,222.2189338207245,222.6388030052185,1,,1,10,brightness,readingArea,realistic,75,2023-04-01_14h15.04.585,tripletExp_regina_11082022,2022.2.4,120.3368268841792,
2,3,13,2,0.25,0.298245614035088,2,0.444444444444444,0.298245614035088,2,0.111111111111111,3.10526315789474,ReadingArea_rsl2-rcl25-esl29-rsm2-rcm44-esm29-rsr2-rcr11-esr310,exr/ReadingArea_rsl2-rcl25-esl29-rsm2-rcm44-esm29-rsr2-rcr11-esr310.exr,ReadingArea_rsl2-rcl25-esl29-rsm2-rcm44-esm29-rsr2-rcr11-esr310.npz,,,,,0,27,27,498,,,left,green,2.93,226.1036388874054,226.52341485023496,1,,1,10,brightness,readingArea,realistic,75,2023-04-01_14h15.04.585,tripletExp_regina_11082022,2022.2.4,120.3368268841792,
8,0,4,2,0.25,1.0,2,0.027777777777778,0.298245614035088,2,0.694444444444444,0.298245614035088,ReadingArea_rsl2-rcl25-esl100-rsm2-rcm2-esm29-rsr2-rcr69-esr29,exr/ReadingArea_rsl2-rcl25-esl100-rsm2-rcm2-esm29-rsr2-rcr69-esr29.exr,ReadingArea_rsl2-rcl25-esl100-rsm2-rcm2-esm29-rsr2-rcr69-esr29.npz,,,,,0,28,28,346,,,left,green,1.23,228.22760701179504,228.7481548786164,1,,1,10,brightness,readingArea,realistic,75,2023-04-01_14h15.04.585,tripletExp_regina_11082022,2022.2.4,120.3368268841792,
10,7,8,2,0.694444444444444,1.0,2,0.111111111111111,1.0,2,0.25,1.0,ReadingArea_rsl2-rcl69-esl100-rsm2-rcm11-esm100-rsr2-rcr25-esr100,exr/ReadingArea_rsl2-rcl69-esl100-rsm2-rcm11-esm100-rsr2-rcr25-esr100.exr,ReadingArea_rsl2-rcl69-esl100-rsm2-rcm11-esm100-rsr2-rcr25-esr100.npz,,,,,0,29,29,57,,,right,red,0.74,230.45063591003407,230.87528896331787,1,,1,10,brightness,readingArea,realistic,75,2023-04-01_14h15.04.585,tripletExp_regina_11082022,2022.2.4,120.3368268841792,
8,9,2,2,0.25,1.0,2,0.444444444444444,1.0,2,0.25,0.298245614035088,ReadingArea_rsl2-rcl25-esl100-rsm2-rcm44-esm100-rsr2-rcr25-esr29,exr/ReadingArea_rsl2-rcl25-esl100-rsm2-rcm44-esm100-rsr2-rcr25-esr29.exr,ReadingArea_rsl2-rcl25-esl100-rsm2-rcm44-esm100-rsr2-rcr25-esr29.npz,,,,,0,30,30,559,,,left,green,0.99,232.5739319324493,233.03963899612427,1,,1,10,brightness,readingArea,realistic,75,2023-04-01_14h15.04.585,tripletExp_regina_11082022,2022.2.4,120.3368268841792,
13,0,4,2,0.111111111111111,3.10526315789474,2,0.027777777777778,0.298245614035088,2,0.694444444444444,0.298245614035088,ReadingArea_rsl2-rcl11-esl310-rsm2-rcm2-esm29-rsr2-rcr69-esr29,exr/ReadingArea_rsl2-rcl11-esl310-rsm2-rcm2-esm29-rsr2-rcr69-esr29.exr,ReadingArea_rsl2-rcl11-esl310-rsm2-rcm2-esm29-rsr2-rcr69-esr29.npz,,,,,0,31,31,270,,,left,green,0.96,234.74193382263184,,1,,1,10,brightness,readingArea,realistic,75,2023-04-01_14h15.04.585,tripletExp_regina_11082022,2022.2.4,120.3368268841792,
2,6,10,2,0.25,0.298245614035088,2,0.027777777777778,1.0,2,0.694444444444444,1.0,ReadingArea_rsl2-rcl25-esl29-rsm2-rcm2-esm100-rsr2-rcr69-esr100,exr/ReadingArea_rsl2-rcl25-esl29-rsm2-rcm2-esm100-rsr2-rcr69-esr100.exr,ReadingArea_rsl2-rcl25-esl29-rsm2-rcm2-esm100-rsr2-rcr69-esr100.npz,,,,,0,32,32,42,,,left,green,0.72,236.8600258827209,237.28310894966123,1,,1,10,brightness,readingArea,realistic,75,2023-04-01_14h15.04.585,tripletExp_regina_11082022,2022.2.4,120.3368268841792,
5,6,0,2,1.0,0.298245614035088,2,0.027777777777778,1.0,2,0.027777777777778,0.298245614035088,ReadingArea_rsl2-rcl100-esl29-rsm2-rcm2-esm100-rsr2-rcr2-esr29,exr/ReadingArea_rsl2-rcl100-esl29-rsm2-rcm2-esm100-rsr2-rcr2-esr29.exr,ReadingArea_rsl2-rcl100-esl29-rsm2-rcm2-esm100-rsr2-rcr2-esr29.npz,,,,,0,33,33,511,,,right,red,0.62,238.97854685783383,239.40090489387512,1,,1,10,brightness,readingArea,realistic,75,2023-04-01_14h15.04.585,tripletExp_regina_11082022,2022.2.4,120.3368268841792,
8,1,6,2,0.25,1.0,2,0.111111111111111,0.298245614035088,2,0.027777777777778,1.0,ReadingArea_rsl2-rcl25-esl100-rsm2-rcm11-esm29-rsr2-rcr2-esr100,exr/ReadingArea_rsl2-rcl25-esl100-rsm2-rcm11-esm29-rsr2-rcr2-esr100.exr,ReadingArea_rsl2-rcl25-esl100-rsm2-rcm11-esm29-rsr2-rcr2-esr100.npz,,,,,0,34,34,62,,,right,red,0.72,241.0912330150604,241.5093479156494,1,,1,10,brightness,readingArea,realistic,75,2023-04-01_14h15.04.585,tripletExp_regina_11082022,2022.2.4,120.3368268841792,
14,6,7,2,0.25,3.10526315789474,2,0.027777777777778,1.0,2,0.111111111111111,1.0,ReadingArea_rsl2-rcl25-esl310-rsm2-rcm2-esm100-rsr2-rcr11-esr100,exr/ReadingArea_rsl2-rcl25-esl310-rsm2-rcm2-esm100-rsr2-rcr11-esr100.exr,ReadingArea_rsl2-rcl25-esl310-rsm2-rcm2-esm100-rsr2-rcr11-esr100.npz,,,,,0,35,35,306,,,right,red,0.68,243.2262058258057,,1,,1,10,brightness,readingArea,realistic,75,2023-04-01_14h15.04.585,tripletExp_regina_11082022,2022.2.4,120.3368268841792,
13,9,6,2,0.111111111111111,3.10526315789474,2,0.444444444444444,1.0,2,0.027777777777778,1.0,ReadingArea_rsl2-rcl11-esl310-rsm2-rcm44-esm100-rsr2-rcr2-esr100,exr/ReadingArea_rsl2-rcl11-esl310-rsm2-rcm44-esm100-rsr2-rcr2-esr100.exr,ReadingArea_rsl2-rcl11-esl310-rsm2-rcm44-esm100-rsr2-rcr2-esr100.npz,,,,,0,36,36,19,,,left,green,0.9,245.36831092834475,,1,,1,10,brightness,readingArea,realistic,75,2023-04-01_14h15.04.585,tripletExp_regina_11082022,2022.2.4,120.3368268841792,
10,13,1,2,0.694444444444444,1.0,2,0.111111111111111,3.10526315789474,2,0.111111111111111,0.298245614035088,ReadingArea_rsl2-rcl69-esl100-rsm2-rcm11-esm310-rsr2-rcr11-esr29,exr/ReadingArea_rsl2-rcl69-esl100-rsm2-rcm11-esm310-rsr2-rcr11-esr29.exr,ReadingArea_rsl2-rcl69-esl100-rsm2-rcm11-esm310-rsr2-rcr11-esr29.npz,,,,,0,37,37,149,,,right,red,0.65,247.48657488822937,247.91351795196533,1,,1,10,brightness,readingArea,realistic,75,2023-04-01_14h15.04.585,tripletExp_regina_11082022,2022.2.4,120.3368268841792,
2,5,3,2,0.25,0.298245614035088,2,1.0,0.298245614035088,2,0.444444444444444,0.298245614035088,ReadingArea_rsl2-rcl25-esl29-rsm2-rcm100-esm29-rsr2-rcr44-esr29,exr/ReadingArea_rsl2-rcl25-esl29-rsm2-rcm100-esm29-rsr2-rcr44-esr29.exr,ReadingArea_rsl2-rcl25-esl29-rsm2-rcm100-esm29-rsr2-rcr44-esr29.npz,,,,,0,38,38,135,,,right,red,0.66,249.60877084732056,250.02863383293152,1,,1,10,brightness,readingArea,realistic,75,2023-04-01_14h15.04.585,tripletExp_regina_11082022,2022.2.4,120.3368268841792,
2,6,0,2,0.25,0.298245614035088,2,0.027777777777778,1.0,2,0.027777777777778,0.298245614035088,ReadingArea_rsl2-rcl25-esl29-rsm2-rcm2-esm100-rsr2-rcr2-esr29,exr/ReadingArea_rsl2-rcl25-esl29-rsm2-rcm2-esm100-rsr2-rcr2-esr29.exr,ReadingArea_rsl2-rcl25-esl29-rsm2-rcm2-esm100-rsr2-rcr2-esr29.npz,,,,,0,39,39,525,,,right,red,0.65,251.72914695739743,252.1519238948822,1,,1,10,brightness,readingArea,realistic,75,2023-04-01_14h15.04.585,tripletExp_regina_11082022,2022.2.4,120.3368268841792,
12,3,5,2,0.027777777777778,3.10526315789474,2,0.444444444444444,0.298245614035088,2,1.0,0.298245614035088,ReadingArea_rsl2-rcl2-esl310-rsm2-rcm44-esm29-rsr2-rcr100-esr29,exr/ReadingArea_rsl2-rcl2-esl310-rsm2-rcm44-esm29-rsr2-rcr100-esr29.exr,ReadingArea_rsl2-rcl2-esl310-rsm2-rcm44-esm29-rsr2-rcr100-esr29.npz,,,,,0,40,40,188,,,right,red,0.75,253.8442068099976,254.31102681159973,1,,1,10,brightness,readingArea,realistic,75,2023-04-01_14h15.04.585,tripletExp_regina_11082022,2022.2.4,120.3368268841792,
10,5,4,2,0.694444444444444,1.0,2,1.0,0.298245614035088,2,0.694444444444444,0.298245614035088,ReadingArea_rsl2-rcl69-esl100-rsm2-rcm100-esm29-rsr2-rcr69-esr29,exr/ReadingArea_rsl2-rcl69-esl100-rsm2-rcm100-esm29-rsr2-rcr69-esr29.exr,ReadingArea_rsl2-rcl69-esl100-rsm2-rcm100-esm29-rsr2-rcr69-esr29.npz,,,,,0,41,41,455,,,left,green,1.1,256.01592993736267,256.4359450340271,1,,1,10,brightness,readingArea,realistic,75,2023-04-01_14h15.04.585,tripletExp_regina_11082022,2022.2.4,120.3368268841792,
1,7,8,2,0.111111111111111,0.298245614035088,2,0.111111111111111,1.0,2,0.25,1.0,ReadingArea_rsl2-rcl11-esl29-rsm2-rcm11-esm100-rsr2-rcr25-esr100,exr/ReadingArea_rsl2-rcl11-esl29-rsm2-rcm11-esm100-rsr2-rcr25-esr100.exr,ReadingArea_rsl2-rcl11-esl29-rsm2-rcm11-esm100-rsr2-rcr25-esr100.npz,,,,,0,42,42,260,,,left,green,0.97,258.12542390823364,258.5464298725128,1,,1,10,brightness,readingArea,realistic,75,2023-04-01_14h15.04.585,tripletExp_regina_11082022,2022.2.4,120.3368268841792,
6,0,4,2,0.027777777777778,1.0,2,0.027777777777778,0.298245614035088,2,0.694444444444444,0.298245614035088,ReadingArea_rsl2-rcl2-esl100-rsm2-rcm2-esm29-rsr2-rcr69-esr29,exr/ReadingArea_rsl2-rcl2-esl100-rsm2-rcm2-esm29-rsr2-rcr69-esr29.exr,ReadingArea_rsl2-rcl2-esl100-rsm2-rcm2-esm29-rsr2-rcr69-esr29.npz,,,,,0,43,43,555,,,left,green,0.63,260.2456378936768,,1,,1,10,brightness,readingArea,realistic,75,2023-04-01_14h15.04.585,tripletExp_regina_11082022,2022.2.4,120.3368268841792,
5,12,7,2,1.0,0.298245614035088,2,0.027777777777778,3.10526315789474,2,0.111111111111111,1.0,ReadingArea_rsl2-rcl100-esl29-rsm2-rcm2-esm310-rsr2-rcr11-esr100,exr/ReadingArea_rsl2-rcl100-esl29-rsm2-rcm2-esm310-rsr2-rcr11-esr100.exr,ReadingArea_rsl2-rcl100-esl29-rsm2-rcm2-esm310-rsr2-rcr11-esr100.npz,,,,,0,44,44,447,,,right,red,0.74,262.3857288360596,262.8033230304718,1,,1,10,brightness,readingArea,realistic,75,2023-04-01_14h15.04.585,tripletExp_regina_11082022,2022.2.4,120.3368268841792,
9,4,14,2,0.444444444444444,1.0,2,0.694444444444444,0.298245614035088,2,0.25,3.10526315789474,ReadingArea_rsl2-rcl44-esl100-rsm2-rcm69-esm29-rsr2-rcr25-esr310,exr/ReadingArea_rsl2-rcl44-esl100-rsm2-rcm69-esm29-rsr2-rcr25-esr310.exr,ReadingArea_rsl2-rcl44-esl100-rsm2-rcm69-esm29-rsr2-rcr25-esr310.npz,,,,,0,45,45,104,,,left,green,4.62,268.0747859477997,268.50282287597656,1,,1,10,brightness,readingArea,realistic,75,2023-04-01_14h15.04.585,tripletExp_regina_11082022,2022.2.4,120.3368268841792,
5,10,0,2,1.0,0.298245614035088,2,0.694444444444444,1.0,2,0.027777777777778,0.298245614035088,ReadingArea_rsl2-rcl100-esl29-rsm2-rcm69-esm100-rsr2-rcr2-esr29,exr/ReadingArea_rsl2-rcl100-esl29-rsm2-rcm69-esm100-rsr2-rcr2-esr29.exr,ReadingArea_rsl2-rcl100-esl29-rsm2-rcm69-esm100-rsr2-rcr2-esr29.npz,,,,,0,46,46,293,,,left,green,0.61,270.2179708480835,270.6409959793091,1,,1,10,brightness,readingArea,realistic,75,2023-04-01_14h15.04.585,tripletExp_regina_11082022,2022.2.4,120.3368268841792,
13,6,4,2,0.111111111111111,3.10526315789474,2,0.027777777777778,1.0,2,0.694444444444444,0.298245614035088,ReadingArea_rsl2-rcl11-esl310-rsm2-rcm2-esm100-rsr2-rcr69-esr29,exr/ReadingArea_rsl2-rcl11-esl310-rsm2-rcm2-esm100-rsr2-rcr69-esr29.exr,ReadingArea_rsl2-rcl11-esl310-rsm2-rcm2-esm100-rsr2-rcr69-esr29.npz,,,,,0,47,47,328,,,left,green,0.87,272.334921836853,272.75710701942444,1,,1,10,brightness,readingArea,realistic,75,2023-04-01_14h15.04.585,tripletExp_regina_11082022,2022.2.4,120.3368268841792,
12,8,9,2,0.027777777777778,3.10526315789474,2,0.25,1.0,2,0.444444444444444,1.0,ReadingArea_rsl2-rcl2-esl310-rsm2-rcm25-esm100-rsr2-rcr44-esr100,exr/ReadingArea_rsl2-rcl2-esl310-rsm2-rcm25-esm100-rsr2-rcr44-esr100.exr,ReadingArea_rsl2-rcl2-esl310-rsm2-rcm25-esm100-rsr2-rcr44-esr100.npz,,,,,0,48,48,517,,,right,red,2.47,276.23419094085693,276.66097497940063,1,,1,10,brightness,readingArea,realistic,75,2023-04-01_14h15.04.585,tripletExp_regina_11082022,2022.2.4,120.3368268841792,
2,8,7,2,0.25,0.298245614035088,2,0.25,1.0,2,0.111111111111111,1.0,ReadingArea_rsl2-rcl25-esl29-rsm2-rcm25-esm100-rsr2-rcr11-esr100,exr/ReadingArea_rsl2-rcl25-esl29-rsm2-rcm25-esm100-rsr2-rcr11-esr100.exr,ReadingArea_rsl2-rcl25-esl29-rsm2-rcm25-esm100-rsr2-rcr11-esr100.npz,,,,,0,49,49,393,,,left,green,4.6,281.87185502052307,282.29555082321167,1,,1,10,brightness,readingArea,realistic,75,2023-04-01_14h15.04.585,tripletExp_regina_11082022,2022.2.4,120.3368268841792,
10,4,9,2,0.694444444444444,1.0,2,0.694444444444444,0.298245614035088,2,0.444444444444444,1.0,ReadingArea_rsl2-rcl69-esl100-rsm2-rcm69-esm29-rsr2-rcr44-esr100,exr/ReadingArea_rsl2-rcl69-esl100-rsm2-rcm69-esm29-rsr2-rcr44-esr100.exr,ReadingArea_rsl2-rcl69-esl100-rsm2-rcm69-esm29-rsr2-rcr44-esr100.npz,,,,,0,50,50,452,,,right,red,1.0,284.01759791374207,284.44322395324707,1,,1,10,brightness,readingArea,realistic,75,2023-04-01_14h15.04.585,tripletExp_regina_11082022,2022.2.4,120.3368268841792,
6,0,10,2,0.027777777777778,1.0,2,0.027777777777778,0.298245614035088,2,0.694444444444444,1.0,ReadingArea_rsl2-rcl2-esl100-rsm2-rcm2-esm29-rsr2-rcr69-esr100,exr/ReadingArea_rsl2-rcl2-esl100-rsm2-rcm2-esm29-rsr2-rcr69-esr100.exr,ReadingArea_rsl2-rcl2-esl100-rsm2-rcm2-esm29-rsr2-rcr69-esr100.npz,,,,,0,51,51,532,,,left,green,0.86,286.1615459918976,286.58619594573975,1,,1,10,brightness,readingArea,realistic,75,2023-04-01_14h15.04.585,tripletExp_regina_11082022,2022.2.4,120.3368268841792,
2,11,7,2,0.25,0.298245614035088,2,1.0,1.0,2,0.111111111111111,1.0,ReadingArea_rsl2-rcl25-esl29-rsm2-rcm100-esm100-rsr2-rcr11-esr100,exr/ReadingArea_rsl2-rcl25-esl29-rsm2-rcm100-esm100-rsr2-rcr11-esr100.exr,ReadingArea_rsl2-rcl25-esl29-rsm2-rcm100-esm100-rsr2-rcr11-esr100.npz,,,,,0,52,52,576,,,left,green,0.87,288.30924701690674,288.7373390197754,1,,1,10,brightness,readingArea,realistic,75,2023-04-01_14h15.04.585,tripletExp_regina_11082022,2022.2.4,120.3368268841792,
10,1,6,2,0.694444444444444,1.0,2,0.111111111111111,0.298245614035088,2,0.027777777777778,1.0,ReadingArea_rsl2-rcl69-esl100-rsm2-rcm11-esm29-rsr2-rcr2-esr100,exr/ReadingArea_rsl2-rcl69-esl100-rsm2-rcm11-esm29-rsr2-rcr2-esr100.exr,ReadingArea_rsl2-rcl69-esl100-rsm2-rcm11-esm29-rsr2-rcr2-esr100.npz,,,,,0,53,53,160,,,right,red,0.6,290.45503187179565,290.8789060115814,1,,1,10,brightness,readingArea,realistic,75,2023-04-01_14h15.04.585,tripletExp_regina_11082022,2022.2.4,120.3368268841792,
14,5,13,2,0.25,3.10526315789474,2,1.0,0.298245614035088,2,0.111111111111111,3.10526315789474,ReadingArea_rsl2-rcl25-esl310-rsm2-rcm100-esm29-rsr2-rcr11-esr310,exr/ReadingArea_rsl2-rcl25-esl310-rsm2-rcm100-esm29-rsr2-rcr11-esr310.exr,ReadingArea_rsl2-rcl25-esl310-rsm2-rcm100-esm29-rsr2-rcr11-esr310.npz,,,,,0,54,54,524,,,left,green,1.39,292.5711238384247,292.9949200153351,1,,1,10,brightness,readingArea,realistic,75,2023-04-01_14h15.04.585,tripletExp_regina_11082022,2022.2.4,120.3368268841792,
14,2,0,2,0.25,3.10526315789474,2,0.25,0.298245614035088,2,0.027777777777778,0.298245614035088,ReadingArea_rsl2-rcl25-esl310-rsm2-rcm25-esm29-rsr2-rcr2-esr29,exr/ReadingArea_rsl2-rcl25-esl310-rsm2-rcm25-esm29-rsr2-rcr2-esr29.exr,ReadingArea_rsl2-rcl25-esl310-rsm2-rcm25-esm29-rsr2-rcr2-esr29.npz,,,,,0,55,55,460,,,right,red,0.93,294.6850929260254,,1,,1,10,brightness,readingArea,realistic,75,2023-04-01_14h15.04.585,tripletExp_regina_11082022,2022.2.4,120.3368268841792,
6,10,11,2,0.027777777777778,1.0,2,0.694444444444444,1.0,2,1.0,1.0,ReadingArea_rsl2-rcl2-esl100-rsm2-rcm69-esm100-rsr2-rcr100-esr100,exr/ReadingArea_rsl2-rcl2-esl100-rsm2-rcm69-esm100-rsr2-rcr100-esr100.exr,ReadingArea_rsl2-rcl2-esl100-rsm2-rcm69-esm100-rsr2-rcr100-esr100.npz,,,,,0,56,56,116,,,right,red,0.8,296.83769488334656,297.2781229019165,1,,1,10,brightness,readingArea,realistic,75,2023-04-01_14h15.04.585,tripletExp_regina_11082022,2022.2.4,120.3368268841792,
8,13,3,2,0.25,1.0,2,0.111111111111111,3.10526315789474,2,0.444444444444444,0.298245614035088,ReadingArea_rsl2-rcl25-esl100-rsm2-rcm11-esm310-rsr2-rcr44-esr29,exr/ReadingArea_rsl2-rcl25-esl100-rsm2-rcm11-esm310-rsr2-rcr44-esr29.exr,ReadingArea_rsl2-rcl25-esl100-rsm2-rcm11-esm310-rsr2-rcr44-esr29.npz,,,,,0,57,57,553,,,left,green,1.03,299.00030493736267,299.42370796203613,1,,1,10,brightness,readingArea,realistic,75,2023-04-01_14h15.04.585,tripletExp_regina_11082022,2022.2.4,120.3368268841792,
11,5,1,2,1.0,1.0,2,1.0,0.298245614035088,2,0.111111111111111,0.298245614035088,ReadingArea_rsl2-rcl100-esl100-rsm2-rcm100-esm29-rsr2-rcr11-esr29,exr/ReadingArea_rsl2-rcl100-esl100-rsm2-rcm100-esm29-rsr2-rcr11-esr29.exr,ReadingArea_rsl2-rcl100-esl100-rsm2-rcm100-esm29-rsr2-rcr11-esr29.npz,,,,,0,58,58,48,,,left,green,0.69,301.1238389015198,301.54758191108704,1,,1,10,brightness,readingArea,realistic,75,2023-04-01_14h15.04.585,tripletExp_regina_11082022,2022.2.4,120.3368268841792,
0,4,6,2,0.027777777777778,0.298245614035088,2,0.694444444444444,0.298245614035088,2,0.027777777777778,1.0,ReadingArea_rsl2-rcl2-esl29-rsm2-rcm69-esm29-rsr2-rcr2-esr100,exr/ReadingArea_rsl2-rcl2-esl29-rsm2-rcm69-esm29-rsr2-rcr2-esr100.exr,ReadingArea_rsl2-rcl2-esl29-rsm2-rcm69-esm29-rsr2-rcr2-esr100.npz,,,,,0,59,59,49,,,right,red,1.11,303.23642802238464,,1,,1,10,brightness,readingArea,realistic,75,2023-04-01_14h15.04.585,tripletExp_regina_11082022,2022.2.4,120.3368268841792,
9,0,6,2,0.444444444444444,1.0,2,0.027777777777778,0.298245614035088,2,0.027777777777778,1.0,ReadingArea_rsl2-rcl44-esl100-rsm2-rcm2-esm29-rsr2-rcr2-esr100,exr/ReadingArea_rsl2-rcl44-esl100-rsm2-rcm2-esm29-rsr2-rcr2-esr100.exr,ReadingArea_rsl2-rcl44-esl100-rsm2-rcm2-esm29-rsr2-rcr2-esr100.npz,,,,,0,60,60,362,,,right,red,0.77,305.36908292770386,305.7908778190613,1,,1,10,brightness,readingArea,realistic,75,2023-04-01_14h15.04.585,tripletExp_regina_11082022,2022.2.4,120.3368268841792,
11,13,1,2,1.0,1.0,2,0.111111111111111,3.10526315789474,2,0.111111111111111,0.298245614035088,ReadingArea_rsl2-rcl100-esl100-rsm2-rcm11-esm310-rsr2-rcr11-esr29,exr/ReadingArea_rsl2-rcl100-esl100-rsm2-rcm11-esm310-rsr2-rcr11-esr29.exr,ReadingArea_rsl2-rcl100-esl100-rsm2-rcm11-esm310-rsr2-rcr11-esr29.npz,,,,,0,61,61,185,,,right,red,1.06,307.4829378128052,307.9059019088745,1,,1,10,brightness,readingArea,realistic,75,2023-04-01_14h15.04.585,tripletExp_regina_11082022,2022.2.4,120.3368268841792,
10,4,13,2,0.694444444444444,1.0,2,0.694444444444444,0.298245614035088,2,0.111111111111111,3.10526315789474,ReadingArea_rsl2-rcl69-esl100-rsm2-rcm69-esm29-rsr2-rcr11-esr310,exr/ReadingArea_rsl2-rcl69-esl100-rsm2-rcm69-esm29-rsr2-rcr11-esr310.exr,ReadingArea_rsl2-rcl69-esl100-rsm2-rcm69-esm29-rsr2-rcr11-esr310.npz,,,,,0,62,62,24,,,,red,1.06,313.1543769836426,,1,312.8229625940323,1,10,brightness,readingArea,realistic,75,2023-04-01_14h15.04.585,tripletExp_regina_11082022,2022.2.4,120.3368268841792,
5,11,14,2,1.0,0.298245614035088,2,1.0,1.0,2,0.25,3.10526315789474,ReadingArea_rsl2-rcl100-esl29-rsm2-rcm100-esm100-rsr2-rcr25-esr310,exr/ReadingArea_rsl2-rcl100-esl29-rsm2-rcm100-esm100-rsr2-rcr25-esr310.exr,ReadingArea_rsl2-rcl100-esl29-rsm2-rcm100-esm100-rsr2-rcr25-esr310.npz,,,,,0,63,63,258,,,right,red,2.58,317.14364886283875,317.5662348270416,1,,1,10,brightness,readingArea,realistic,75,2023-04-01_14h15.04.585,tripletExp_regina_11082022,2022.2.4,120.3368268841792,
1,14,5,2,0.111111111111111,0.298245614035088,2,0.25,3.10526315789474,2,1.0,0.298245614035088,ReadingArea_rsl2-rcl11-esl29-rsm2-rcm25-esm310-rsr2-rcr100-esr29,exr/ReadingArea_rsl2-rcl11-esl29-rsm2-rcm25-esm310-rsr2-rcr100-esr29.exr,ReadingArea_rsl2-rcl11-esl29-rsm2-rcm25-esm310-rsr2-rcr100-esr29.npz,,,,,0,64,64,509,,,right,red,0.71,319.28004789352417,,1,,1,10,brightness,readingArea,realistic,75,2023-04-01_14h15.04.585,tripletExp_regina_11082022,2022.2.4,120.3368268841792,
1,2,12,2,0.111111111111111,0.298245614035088,2,0.25,0.298245614035088,2,0.027777777777778,3.10526315789474,ReadingArea_rsl2-rcl11-esl29-rsm2-rcm25-esm29-rsr2-rcr2-esr310,exr/ReadingArea_rsl2-rcl11-esl29-rsm2-rcm25-esm29-rsr2-rcr2-esr310.exr,ReadingArea_rsl2-rcl11-esl29-rsm2-rcm25-esm29-rsr2-rcr2-esr310.npz,,,,,0,65,65,229,,,left,green,0.82,321.4202048778534,321.840411901474,1,,1,10,brightness,readingArea,realistic,75,2023-04-01_14h15.04.585,tripletExp_regina_11082022,2022.2.4,120.3368268841792,
0,7,13,2,0.027777777777778,0.298245614035088,2,0.111111111111111,1.0,2,0.111111111111111,3.10526315789474,ReadingArea_rsl2-rcl2-esl29-rsm2-rcm11-esm100-rsr2-rcr11-esr310,exr/ReadingArea_rsl2-rcl2-esl29-rsm2-rcm11-esm100-rsr2-rcr11-esr310.exr,ReadingArea_rsl2-rcl2-esl29-rsm2-rcm11-esm100-rsr2-rcr11-esr310.npz,,,,,0,66,66,159,,,right,red,0.54,323.55673480033875,324.0775318145752,1,,1,10,brightness,readingArea,realistic,75,2023-04-01_14h15.04.585,tripletExp_regina_11082022,2022.2.4,120.3368268841792,
2,14,7,2,0.25,0.298245614035088,2,0.25,3.10526315789474,2,0.111111111111111,1.0,ReadingArea_rsl2-rcl25-esl29-rsm2-rcm25-esm310-rsr2-rcr11-esr100,exr/ReadingArea_rsl2-rcl25-esl29-rsm2-rcm25-esm310-rsr2-rcr11-esr100.exr,ReadingArea_rsl2-rcl25-esl29-rsm2-rcm25-esm310-rsr2-rcr11-esr100.npz,,,,,0,67,67,310,,,left,green,0.95,325.7790620326996,326.2261748313904,1,,1,10,brightness,readingArea,realistic,75,2023-04-01_14h15.04.585,tripletExp_regina_11082022,2022.2.4,120.3368268841792,
3,13,10,2,0.444444444444444,0.298245614035088,2,0.111111111111111,3.10526315789474,2,0.694444444444444,1.0,ReadingArea_rsl2-rcl44-esl29-rsm2-rcm11-esm310-rsr2-rcr69-esr100,exr/ReadingArea_rsl2-rcl44-esl29-rsm2-rcm11-esm310-rsr2-rcr69-esr100.exr,ReadingArea_rsl2-rcl44-esl29-rsm2-rcm11-esm310-rsr2-rcr69-esr100.npz,,,,,0,68,68,416,,,left,green,1.05,327.9446988105774,328.37003898620605,1,,1,10,brightness,readingArea,realistic,75,2023-04-01_14h15.04.585,tripletExp_regina_11082022,2022.2.4,120.3368268841792,
6,5,0,2,0.027777777777778,1.0,2,1.0,0.298245614035088,2,0.027777777777778,0.298245614035088,ReadingArea_rsl2-rcl2-esl100-rsm2-rcm100-esm29-rsr2-rcr2-esr29,exr/ReadingArea_rsl2-rcl2-esl100-rsm2-rcm100-esm29-rsr2-rcr2-esr29.exr,ReadingArea_rsl2-rcl2-esl100-rsm2-rcm100-esm29-rsr2-rcr2-esr29.npz,,,,,0,69,69,558,,,left,green,2.73,331.8486499786377,,1,,1,10,brightness,readingArea,realistic,75,2023-04-01_14h15.04.585,tripletExp_regina_11082022,2022.2.4,120.3368268841792,
1,9,11,2,0.111111111111111,0.298245614035088,2,0.444444444444444,1.0,2,1.0,1.0,ReadingArea_rsl2-rcl11-esl29-rsm2-rcm44-esm100-rsr2-rcr100-esr100,exr/ReadingArea_rsl2-rcl11-esl29-rsm2-rcm44-esm100-rsr2-rcr100-esr100.exr,ReadingArea_rsl2-rcl11-esl29-rsm2-rcm44-esm100-rsr2-rcr100-esr100.npz,,,,,0,70,70,215,,,right,red,0.61,333.96867394447327,334.3960108757019,1,,1,10,brightness,readingArea,realistic,75,2023-04-01_14h15.04.585,tripletExp_regina_11082022,2022.2.4,120.3368268841792,
2,14,9,2,0.25,0.298245614035088,2,0.25,3.10526315789474,2,0.444444444444444,1.0,ReadingArea_rsl2-rcl25-esl29-rsm2-rcm25-esm310-rsr2-rcr44-esr100,exr/ReadingArea_rsl2-rcl25-esl29-rsm2-rcm25-esm310-rsr2-rcr44-esr100.exr,ReadingArea_rsl2-rcl25-esl29-rsm2-rcm25-esm310-rsr2-rcr44-esr100.npz,,,,,0,71,71,51,,,right,red,1.08,336.1096308231354,336.5384268760681,1,,1,10,brightness,readingArea,realistic,75,2023-04-01_14h15.04.585,tripletExp_regina_11082022,2022.2.4,120.3368268841792,
11,2,4,2,1.0,1.0,2,0.25,0.298245614035088,2,0.694444444444444,0.298245614035088,ReadingArea_rsl2-rcl100-esl100-rsm2-rcm25-esm29-rsr2-rcr69-esr29,exr/ReadingArea_rsl2-rcl100-esl100-rsm2-rcm25-esm29-rsr2-rcr69-esr29.exr,ReadingArea_rsl2-rcl100-esl100-rsm2-rcm25-esm29-rsr2-rcr69-esr29.npz,,,,,0,72,72,359,,,right,red,0.78,338.2465088367462,338.6719739437103,1,,1,10,brightness,readingArea,realistic,75,2023-04-01_14h15.04.585,tripletExp_regina_11082022,2022.2.4,120.3368268841792,
9,11,2,2,0.444444444444444,1.0,2,1.0,1.0,2,0.25,0.298245614035088,ReadingArea_rsl2-rcl44-esl100-rsm2-rcm100-esm100-rsr2-rcr25-esr29,exr/ReadingArea_rsl2-rcl44-esl100-rsm2-rcm100-esm100-rsr2-rcr25-esr29.exr,ReadingArea_rsl2-rcl44-esl100-rsm2-rcm100-esm100-rsr2-rcr25-esr29.npz,,,,,0,73,73,329,,,left,green,0.65,340.3972308635712,340.8235459327698,1,,1,10,brightness,readingArea,realistic,75,2023-04-01_14h15.04.585,tripletExp_regina_11082022,2022.2.4,120.3368268841792,
11,14,2,2,1.0,1.0,2,0.25,3.10526315789474,2,0.25,0.298245614035088,ReadingArea_rsl2-rcl100-esl100-rsm2-rcm25-esm310-rsr2-rcr25-esr29,exr/ReadingArea_rsl2-rcl100-esl100-rsm2-rcm25-esm310-rsr2-rcr25-esr29.exr,ReadingArea_rsl2-rcl100-esl100-rsm2-rcm25-esm310-rsr2-rcr25-esr29.npz,,,,,0,74,74,419,,,left,green,1.14,342.5172669887543,,1,,1,10,brightness,readingArea,realistic,75,2023-04-01_14h15.04.585,tripletExp_regina_11082022,2022.2.4,120.3368268841792,
2,1,13,2,0.25,0.298245614035088,2,0.111111111111111,0.298245614035088,2,0.111111111111111,3.10526315789474,ReadingArea_rsl2-rcl25-esl29-rsm2-rcm11-esm29-rsr2-rcr11-esr310,exr/ReadingArea_rsl2-rcl25-esl29-rsm2-rcm11-esm29-rsr2-rcr11-esr310.exr,ReadingArea_rsl2-rcl25-esl29-rsm2-rcm11-esm29-rsr2-rcr11-esr310.npz,,,,,0,75,75,290,,,left,green,1.17,345.73604583740234,346.16965794563293,2,,1,10,brightness,readingArea,realistic,75,2023-04-01_14h15.04.585,tripletExp_regina_11082022,2022.2.4,120.3368268841792,
8,4,2,2,0.25,1.0,2,0.694444444444444,0.298245614035088,2,0.25,0.298245614035088,ReadingArea_rsl2-rcl25-esl100-rsm2-rcm69-esm29-rsr2-rcr25-esr29,exr/ReadingArea_rsl2-rcl25-esl100-rsm2-rcm69-esm29-rsr2-rcr25-esr29.exr,ReadingArea_rsl2-rcl25-esl100-rsm2-rcm69-esm29-rsr2-rcr25-esr29.npz,,,,,0,76,76,184,,,left,green,1.0,347.89347887039185,348.3284969329834,2,,1,10,brightness,readingArea,realistic,75,2023-04-01_14h15.04.585,tripletExp_regina_11082022,2022.2.4,120.3368268841792,
13,2,4,2,0.111111111111111,3.10526315789474,2,0.25,0.298245614035088,2,0.694444444444444,0.298245614035088,ReadingArea_rsl2-rcl11-esl310-rsm2-rcm25-esm29-rsr2-rcr69-esr29,exr/ReadingArea_rsl2-rcl11-esl310-rsm2-rcm25-esm29-rsr2-rcr69-esr29.exr,ReadingArea_rsl2-rcl11-esl310-rsm2-rcm25-esm29-rsr2-rcr69-esr29.npz,,,,,0,77,77,307,,,left,green,0.72,350.0280900001526,350.4576439857483,2,,1,10,brightness,readingArea,realistic,75,2023-04-01_14h15.04.585,tripletExp_regina_11082022,2022.2.4,120.3368268841792,
13,1,3,2,0.111111111111111,3.10526315789474,2,0.111111111111111,0.298245614035088,2,0.444444444444444,0.298245614035088,ReadingArea_rsl2-rcl11-esl310-rsm2-rcm11-esm29-rsr2-rcr44-esr29,exr/ReadingArea_rsl2-rcl11-esl310-rsm2-rcm11-esm29-rsr2-rcr44-esr29.exr,ReadingArea_rsl2-rcl11-esl310-rsm2-rcm11-esm29-rsr2-rcr44-esr29.npz,,,,,0,78,78,588,,,left,green,0.63,352.1760039329529,352.60002994537354,2,,1,10,brightness,readingArea,realistic,75,2023-04-01_14h15.04.585,tripletExp_regina_11082022,2022.2.4,120.3368268841792,
11,5,4,2,1.0,1.0,2,1.0,0.298245614035088,2,0.694444444444444,0.298245614035088,ReadingArea_rsl2-rcl100-esl100-rsm2-rcm100-esm29-rsr2-rcr69-esr29,exr/ReadingArea_rsl2-rcl100-esl100-rsm2-rcm100-esm29-rsr2-rcr69-esr29.exr,ReadingArea_rsl2-rcl100-esl100-rsm2-rcm100-esm29-rsr2-rcr69-esr29.npz,,,,,0,79,79,564,,,left,green,0.75,354.2942337989807,,2,,1,10,brightness,readingArea,realistic,75,2023-04-01_14h15.04.585,tripletExp_regina_11082022,2022.2.4,120.3368268841792,
5,8,2,2,1.0,0.298245614035088,2,0.25,1.0,2,0.25,0.298245614035088,ReadingArea_rsl2-rcl100-esl29-rsm2-rcm25-esm100-rsr2-rcr25-esr29,exr/ReadingArea_rsl2-rcl100-esl29-rsm2-rcm25-esm100-rsr2-rcr25-esr29.exr,ReadingArea_rsl2-rcl100-esl29-rsm2-rcm25-esm100-rsr2-rcr25-esr29.npz,,,,,0,80,80,65,,,right,red,0.95,356.5154588222504,356.9416518211365,2,,1,10,brightness,readingArea,realistic,75,2023-04-01_14h15.04.585,tripletExp_regina_11082022,2022.2.4,120.3368268841792,
0,4,12,2,0.027777777777778,0.298245614035088,2,0.694444444444444,0.298245614035088,2,0.027777777777778,3.10526315789474,ReadingArea_rsl2-rcl2-esl29-rsm2-rcm69-esm29-rsr2-rcr2-esr310,exr/ReadingArea_rsl2-rcl2-esl29-rsm2-rcm69-esm29-rsr2-rcr2-esr310.exr,ReadingArea_rsl2-rcl2-esl29-rsm2-rcm69-esm29-rsr2-rcr2-esr310.npz,,,,,0,81,81,150,,,right,red,1.04,358.6348628997803,359.0598568916321,2,,1,10,brightness,readingArea,realistic,75,2023-04-01_14h15.04.585,tripletExp_regina_11082022,2022.2.4,120.3368268841792,
8,1,9,2,0.25,1.0,2,0.111111111111111,0.298245614035088,2,0.444444444444444,1.0,ReadingArea_rsl2-rcl25-esl100-rsm2-rcm11-esm29-rsr2-rcr44-esr100,exr/ReadingArea_rsl2-rcl25-esl100-rsm2-rcm11-esm29-rsr2-rcr44-esr100.exr,ReadingArea_rsl2-rcl25-esl100-rsm2-rcm11-esm29-rsr2-rcr44-esr100.npz,,,,,0,82,82,432,,,left,green,0.92,360.78061389923096,361.20773792266846,2,,1,10,brightness,readingArea,realistic,75,2023-04-01_14h15.04.585,tripletExp_regina_11082022,2022.2.4,120.3368268841792,
12,6,7,2,0.027777777777778,3.10526315789474,2,0.027777777777778,1.0,2,0.111111111111111,1.0,ReadingArea_rsl2-rcl2-esl310-rsm2-rcm2-esm100-rsr2-rcr11-esr100,exr/ReadingArea_rsl2-rcl2-esl310-rsm2-rcm2-esm100-rsr2-rcr11-esr100.exr,ReadingArea_rsl2-rcl2-esl310-rsm2-rcm2-esm100-rsr2-rcr11-esr100.npz,,,,,0,83,83,308,,,left,green,0.85,362.9335768222809,363.3590450286865,2,,1,10,brightness,readingArea,realistic,75,2023-04-01_14h15.04.585,tripletExp_regina_11082022,2022.2.4,120.3368268841792,
11,6,8,2,1.0,1.0,2,0.027777777777778,1.0,2,0.25,1.0,ReadingArea_rsl2-rcl100-esl100-rsm2-rcm2-esm100-rsr2-rcr25-esr100,exr/ReadingArea_rsl2-rcl100-esl100-rsm2-rcm2-esm100-rsr2-rcr25-esr100.exr,ReadingArea_rsl2-rcl100-esl100-rsm2-rcm2-esm100-rsr2-rcr25-esr100.npz,,,,,0,84,84,599,,,right,red,1.89,366.8330399990082,367.2620089054108,2,,1,10,brightness,readingArea,realistic,75,2023-04-01_14h15.04.585,tripletExp_regina_11082022,2022.2.4,120.3368268841792,
1,9,8,2,0.111111111111111,0.298245614035088,2,0.444444444444444,1.0,2,0.25,1.0,ReadingArea_rsl2-rcl11-esl29-rsm2-rcm44-esm100-rsr2-rcr25-esr100,exr/ReadingArea_rsl2-rcl11-esl29-rsm2-rcm44-esm100-rsr2-rcr25-esr100.exr,ReadingArea_rsl2-rcl11-esl29-rsm2-rcm44-esm100-rsr2-rcr25-esr100.npz,,,,,0,85,85,268,,,right,red,0.65,368.9635498523712,369.4008548259735,2,,1,10,brightness,readingArea,realistic,75,2023-04-01_14h15.04.585,tripletExp_regina_11082022,2022.2.4,120.3368268841792,
3,6,13,2,0.444444444444444,0.298245614035088,2,0.027777777777778,1.0,2,0.111111111111111,3.10526315789474,ReadingArea_rsl2-rcl44-esl29-rsm2-rcm2-esm100-rsr2-rcr11-esr310,exr/ReadingArea_rsl2-rcl44-esl29-rsm2-rcm2-esm100-rsr2-rcr11-esr310.exr,ReadingArea_rsl2-rcl44-esl29-rsm2-rcm2-esm100-rsr2-rcr11-esr310.npz,,,,,0,86,86,449,,,left,green,0.96,371.09588289260864,371.5243339538574,2,,1,10,brightness,readingArea,realistic,75,2023-04-01_14h15.04.585,tripletExp_regina_11082022,2022.2.4,120.3368268841792,
12,10,6,2,0.027777777777778,3.10526315789474,2,0.694444444444444,1.0,2,0.027777777777778,1.0,ReadingArea_rsl2-rcl2-esl310-rsm2-rcm69-esm100-rsr2-rcr2-esr100,exr/ReadingArea_rsl2-rcl2-esl310-rsm2-rcm69-esm100-rsr2-rcr2-esr100.exr,ReadingArea_rsl2-rcl2-esl310-rsm2-rcm69-esm100-rsr2-rcr2-esr100.npz,,,,,0,87,87,273,,,left,green,2.1,374.9905250072479,375.4247028827667,2,,1,10,brightness,readingArea,realistic,75,2023-04-01_14h15.04.585,tripletExp_regina_11082022,2022.2.4,120.3368268841792,
13,6,10,2,0.111111111111111,3.10526315789474,2,0.027777777777778,1.0,2,0.694444444444444,1.0,ReadingArea_rsl2-rcl11-esl310-rsm2-rcm2-esm100-rsr2-rcr69-esr100,exr/ReadingArea_rsl2-rcl11-esl310-rsm2-rcm2-esm100-rsr2-rcr69-esr100.exr,ReadingArea_rsl2-rcl11-esl310-rsm2-rcm2-esm100-rsr2-rcr69-esr100.npz,,,,,0,88,88,593,,,left,green,1.03,377.1162118911743,377.5466268062592,2,,1,10,brightness,readingArea,realistic,75,2023-04-01_14h15.04.585,tripletExp_regina_11082022,2022.2.4,120.3368268841792,
14,8,9,2,0.25,3.10526315789474,2,0.25,1.0,2,0.444444444444444,1.0,ReadingArea_rsl2-rcl25-esl310-rsm2-rcm25-esm100-rsr2-rcr44-esr100,exr/ReadingArea_rsl2-rcl25-esl310-rsm2-rcm25-esm100-rsr2-rcr44-esr100.exr,ReadingArea_rsl2-rcl25-esl310-rsm2-rcm25-esm100-rsr2-rcr44-esr100.npz,,,,,0,89,89,518,,,right,red,2.94,381.01965498924255,381.4507930278778,2,,1,10,brightness,readingArea,realistic,75,2023-04-01_14h15.04.585,tripletExp_regina_11082022,2022.2.4,120.3368268841792,
14,6,11,2,0.25,3.10526315789474,2,0.027777777777778,1.0,2,1.0,1.0,ReadingArea_rsl2-rcl25-esl310-rsm2-rcm2-esm100-rsr2-rcr100-esr100,exr/ReadingArea_rsl2-rcl25-esl310-rsm2-rcm2-esm100-rsr2-rcr100-esr100.exr,ReadingArea_rsl2-rcl25-esl310-rsm2-rcm2-esm100-rsr2-rcr100-esr100.npz,,,,,0,90,90,337,,,left,green,1.06,383.1398048400879,383.57427883148193,2,,1,10,brightness,readingArea,realistic,75,2023-04-01_14h15.04.585,tripletExp_regina_11082022,2022.2.4,120.3368268841792,
6,3,13,2,0.027777777777778,1.0,2,0.444444444444444,0.298245614035088,2,0.111111111111111,3.10526315789474,ReadingArea_rsl2-rcl2-esl100-rsm2-rcm44-esm29-rsr2-rcr11-esr310,exr/ReadingArea_rsl2-rcl2-esl100-rsm2-rcm44-esm29-rsr2-rcr11-esr310.exr,ReadingArea_rsl2-rcl2-esl100-rsm2-rcm44-esm29-rsr2-rcr11-esr310.npz,,,,,0,91,91,228,,,right,red,1.09,385.2692840099335,385.7007818222046,2,,1,10,brightness,readingArea,realistic,75,2023-04-01_14h15.04.585,tripletExp_regina_11082022,2022.2.4,120.3368268841792,
7,13,12,2,0.111111111111111,1.0,2,0.111111111111111,3.10526315789474,2,0.027777777777778,3.10526315789474,ReadingArea_rsl2-rcl11-esl100-rsm2-rcm11-esm310-rsr2-rcr2-esr310,exr/ReadingArea_rsl2-rcl11-esl100-rsm2-rcm11-esm310-rsr2-rcr2-esr310.exr,ReadingArea_rsl2-rcl11-esl100-rsm2-rcm11-esm310-rsr2-rcr2-esr310.npz,,,,,0,92,92,438,,,left,green,0.64,387.39685583114624,387.82543992996216,2,,1,10,brightness,readingArea,realistic,75,2023-04-01_14h15.04.585,tripletExp_regina_11082022,2022.2.4,120.3368268841792,
10,0,3,2,0.694444444444444,1.0,2,0.027777777777778,0.298245614035088,2,0.444444444444444,0.298245614035088,ReadingArea_rsl2-rcl69-esl100-rsm2-rcm2-esm29-rsr2-rcr44-esr29,exr/ReadingArea_rsl2-rcl69-esl100-rsm2-rcm2-esm29-rsr2-rcr44-esr29.exr,ReadingArea_rsl2-rcl69-esl100-rsm2-rcm2-esm29-rsr2-rcr44-esr29.npz,,,,,0,93,93,87,,,right,red,1.35,389.52113580703735,389.9451739788056,2,,1,10,brightness,readingArea,realistic,75,2023-04-01_14h15.04.585,tripletExp_regina_11082022,2022.2.4,120.3368268841792,
4,3,9,2,0.694444444444444,0.298245614035088,2,0.444444444444444,0.298245614035088,2,0.444444444444444,1.0,ReadingArea_rsl2-rcl69-esl29-rsm2-rcm44-esm29-rsr2-rcr44-esr100,exr/ReadingArea_rsl2-rcl69-esl29-rsm2-rcm44-esm29-rsr2-rcr44-esr100.exr,ReadingArea_rsl2-rcl69-esl29-rsm2-rcm44-esm29-rsr2-rcr44-esr100.npz,,,,,0,94,94,451,,,left,green,0.97,391.6503438949585,392.08412981033325,2,,1,10,brightness,readingArea,realistic,75,2023-04-01_14h15.04.585,tripletExp_regina_11082022,2022.2.4,120.3368268841792,
0,4,7,2,0.027777777777778,0.298245614035088,2,0.694444444444444,0.298245614035088,2,0.111111111111111,1.0,ReadingArea_rsl2-rcl2-esl29-rsm2-rcm69-esm29-rsr2-rcr11-esr100,exr/ReadingArea_rsl2-rcl2-esl29-rsm2-rcm69-esm29-rsr2-rcr11-esr100.exr,ReadingArea_rsl2-rcl2-esl29-rsm2-rcm69-esm29-rsr2-rcr11-esr100.npz,,,,,0,95,95,200,,,right,red,0.78,393.7862260341644,394.2138409614563,2,,1,10,brightness,readingArea,realistic,75,2023-04-01_14h15.04.585,tripletExp_regina_11082022,2022.2.4,120.3368268841792,
0,9,14,2,0.027777777777778,0.298245614035088,2,0.444444444444444,1.0,2,0.25,3.10526315789474,ReadingArea_rsl2-rcl2-esl29-rsm2-rcm44-esm100-rsr2-rcr25-esr310,exr/ReadingArea_rsl2-rcl2-esl29-rsm2-rcm44-esm100-rsr2-rcr25-esr310.exr,ReadingArea_rsl2-rcl2-esl29-rsm2-rcm44-esm100-rsr2-rcr25-esr310.npz,,,,,0,96,96,433,,,right,red,0.63,395.9359040260315,396.36536693573,2,,1,10,brightness,readingArea,realistic,75,2023-04-01_14h15.04.585,tripletExp_regina_11082022,2022.2.4,120.3368268841792,
0,14,6,2,0.027777777777778,0.298245614035088,2,0.25,3.10526315789474,2,0.027777777777778,1.0,ReadingArea_rsl2-rcl2-esl29-rsm2-rcm25-esm310-rsr2-rcr2-esr100,exr/ReadingArea_rsl2-rcl2-esl29-rsm2-rcm25-esm310-rsr2-rcr2-esr100.exr,ReadingArea_rsl2-rcl2-esl29-rsm2-rcm25-esm310-rsr2-rcr2-esr100.npz,,,,,0,97,97,499,,,right,red,1.09,398.0714888572693,398.5008819103241,2,,1,10,brightness,readingArea,realistic,75,2023-04-01_14h15.04.585,tripletExp_regina_11082022,2022.2.4,120.3368268841792,
0,10,12,2,0.027777777777778,0.298245614035088,2,0.694444444444444,1.0,2,0.027777777777778,3.10526315789474,ReadingArea_rsl2-rcl2-esl29-rsm2-rcm69-esm100-rsr2-rcr2-esr310,exr/ReadingArea_rsl2-rcl2-esl29-rsm2-rcm69-esm100-rsr2-rcr2-esr310.exr,ReadingArea_rsl2-rcl2-esl29-rsm2-rcm69-esm100-rsr2-rcr2-esr310.npz,,,,,0,98,98,531,,,right,red,0.7,400.2205529212952,400.65086102485657,2,,1,10,brightness,readingArea,realistic,75,2023-04-01_14h15.04.585,tripletExp_regina_11082022,2022.2.4,120.3368268841792,
0,7,9,2,0.027777777777778,0.298245614035088,2,0.111111111111111,1.0,2,0.444444444444444,1.0,ReadingArea_rsl2-rcl2-esl29-rsm2-rcm11-esm100-rsr2-rcr44-esr100,exr/ReadingArea_rsl2-rcl2-esl29-rsm2-rcm11-esm100-rsr2-rcr44-esr100.exr,ReadingArea_rsl2-rcl2-esl29-rsm2-rcm11-esm100-rsr2-rcr44-esr100.npz,,,,,0,99,99,463,,,right,red,1.01,402.3538010120392,402.7869980335236,2,,1,10,brightness,readingArea,realistic,75,2023-04-01_14h15.04.585,tripletExp_regina_11082022,2022.2.4,120.3368268841792,
4,5,8,2,0.694444444444444,0.298245614035088,2,1.0,0.298245614035088,2,0.25,1.0,ReadingArea_rsl2-rcl69-esl29-rsm2-rcm100-esm29-rsr2-rcr25-esr100,exr/ReadingArea_rsl2-rcl69-esl29-rsm2-rcm100-esm29-rsr2-rcr25-esr100.exr,ReadingArea_rsl2-rcl69-esl29-rsm2-rcm100-esm29-rsr2-rcr25-esr100.npz,,,,,0,100,100,54,,,left,green,0.91,404.4823839664459,404.9098448753357,2,,1,10,brightness,readingArea,realistic,75,2023-04-01_14h15.04.585,tripletExp_regina_11082022,2022.2.4,120.3368268841792,
12,2,9,2,0.027777777777778,3.10526315789474,2,0.25,0.298245614035088,2,0.444444444444444,1.0,ReadingArea_rsl2-rcl2-esl310-rsm2-rcm25-esm29-rsr2-rcr44-esr100,exr/ReadingArea_rsl2-rcl2-esl310-rsm2-rcm25-esm29-rsr2-rcr44-esr100.exr,ReadingArea_rsl2-rcl2-esl310-rsm2-rcm25-esm29-rsr2-rcr44-esr100.npz,,,,,0,101,101,495,,,left,green,0.64,406.6361138820648,,2,,1,10,brightness,readingArea,realistic,75,2023-04-01_14h15.04.585,tripletExp_regina_11082022,2022.2.4,120.3368268841792,
0,8,12,2,0.027777777777778,0.298245614035088,2,0.25,1.0,2,0.027777777777778,3.10526315789474,ReadingArea_rsl2-rcl2-esl29-rsm2-rcm25-esm100-rsr2-rcr2-esr310,exr/ReadingArea_rsl2-rcl2-esl29-rsm2-rcm25-esm100-rsr2-rcr2-esr310.exr,ReadingArea_rsl2-rcl2-esl29-rsm2-rcm25-esm100-rsr2-rcr2-esr310.npz,,,,,0,102,102,314,,,right,red,0.81,408.7897047996521,409.2181739807129,2,,1,10,brightness,readingArea,realistic,75,2023-04-01_14h15.04.585,tripletExp_regina_11082022,2022.2.4,120.3368268841792,
4,14,12,2,0.694444444444444,0.298245614035088,2,0.25,3.10526315789474,2,0.027777777777778,3.10526315789474,ReadingArea_rsl2-rcl69-esl29-rsm2-rcm25-esm310-rsr2-rcr2-esr310,exr/ReadingArea_rsl2-rcl69-esl29-rsm2-rcm25-esm310-rsr2-rcr2-esr310.exr,ReadingArea_rsl2-rcl69-esl29-rsm2-rcm25-esm310-rsr2-rcr2-esr310.npz,,,,,0,103,103,392,,,left,green,0.84,410.9148328304291,411.34504199028015,2,,1,10,brightness,readingArea,realistic,75,2023-04-01_14h15.04.585,tripletExp_regina_11082022,2022.2.4,120.3368268841792,
10,7,11,2,0.694444444444444,1.0,2,0.111111111111111,1.0,2,1.0,1.0,ReadingArea_rsl2-rcl69-esl100-rsm2-rcm11-esm100-rsr2-rcr100-esr100,exr/ReadingArea_rsl2-rcl69-esl100-rsm2-rcm11-esm100-rsr2-rcr100-esr100.exr,ReadingArea_rsl2-rcl69-esl100-rsm2-rcm11-esm100-rsr2-rcr100-esr100.npz,,,,,0,104,104,542,,,left,green,1.05,413.0681438446045,413.494973897934,2,,1,10,brightness,readingArea,realistic,75,2023-04-01_14h15.04.585,tripletExp_regina_11082022,2022.2.4,120.3368268841792,
9,3,8,2,0.444444444444444,1.0,2,0.444444444444444,0.298245614035088,2,0.25,1.0,ReadingArea_rsl2-rcl44-esl100-rsm2-rcm44-esm29-rsr2-rcr25-esr100,exr/ReadingArea_rsl2-rcl44-esl100-rsm2-rcm44-esm29-rsr2-rcr25-esr100.exr,ReadingArea_rsl2-rcl44-esl100-rsm2-rcm44-esm29-rsr2-rcr25-esr100.npz,,,,,0,105,105,530,,,right,red,0.71,415.18552684783936,415.6139118671417,2,,1,10,brightness,readingArea,realistic,75,2023-04-01_14h15.04.585,tripletExp_regina_11082022,2022.2.4,120.3368268841792,
8,9,13,2,0.25,1.0,2,0.444444444444444,1.0,2,0.111111111111111,3.10526315789474,ReadingArea_rsl2-rcl25-esl100-rsm2-rcm44-esm100-rsr2-rcr11-esr310,exr/ReadingArea_rsl2-rcl25-esl100-rsm2-rcm44-esm100-rsr2-rcr11-esr310.exr,ReadingArea_rsl2-rcl25-esl100-rsm2-rcm44-esm100-rsr2-rcr11-esr310.npz,,,,,0,106,106,519,,,left,green,0.91,417.3037219047546,,2,,1,10,brightness,readingArea,realistic,75,2023-04-01_14h15.04.585,tripletExp_regina_11082022,2022.2.4,120.3368268841792,
4,11,14,2,0.694444444444444,0.298245614035088,2,1.0,1.0,2,0.25,3.10526315789474,ReadingArea_rsl2-rcl69-esl29-rsm2-rcm100-esm100-rsr2-rcr25-esr310,exr/ReadingArea_rsl2-rcl69-esl29-rsm2-rcm100-esm100-rsr2-rcr25-esr310.exr,ReadingArea_rsl2-rcl69-esl29-rsm2-rcm100-esm100-rsr2-rcr25-esr310.npz,,,,,0,107,107,165,,,right,red,0.76,419.4422039985657,419.87224197387695,2,,1,10,brightness,readingArea,realistic,75,2023-04-01_14h15.04.585,tripletExp_regina_11082022,2022.2.4,120.3368268841792,
3,9,10,2,0.444444444444444,0.298245614035088,2,0.444444444444444,1.0,2,0.694444444444444,1.0,ReadingArea_rsl2-rcl44-esl29-rsm2-rcm44-esm100-rsr2-rcr69-esr100,exr/ReadingArea_rsl2-rcl44-esl29-rsm2-rcm44-esm100-rsr2-rcr69-esr100.exr,ReadingArea_rsl2-rcl44-esl29-rsm2-rcm44-esm100-rsr2-rcr69-esr100.npz,,,,,0,108,108,581,,,right,red,0.78,421.57048296928406,421.9956068992615,2,,1,10,brightness,readingArea,realistic,75,2023-04-01_14h15.04.585,tripletExp_regina_11082022,2022.2.4,120.3368268841792,
11,4,2,2,1.0,1.0,2,0.694444444444444,0.298245614035088,2,0.25,0.298245614035088,ReadingArea_rsl2-rcl100-esl100-rsm2-rcm69-esm29-rsr2-rcr25-esr29,exr/ReadingArea_rsl2-rcl100-esl100-rsm2-rcm69-esm29-rsr2-rcr25-esr29.exr,ReadingArea_rsl2-rcl100-esl100-rsm2-rcm69-esm29-rsr2-rcr25-esr29.npz,,,,,0,109,109,280,,,left,green,1.07,423.6901738643646,424.1256568431854,2,,1,10,brightness,readingArea,realistic,75,2023-04-01_14h15.04.585,tripletExp_regina_11082022,2022.2.4,120.3368268841792,
4,12,2,2,0.694444444444444,0.298245614035088,2,0.027777777777778,3.10526315789474,2,0.25,0.298245614035088,ReadingArea_rsl2-rcl69-esl29-rsm2-rcm2-esm310-rsr2-rcr25-esr29,exr/ReadingArea_rsl2-rcl69-esl29-rsm2-rcm2-esm310-rsr2-rcr25-esr29.exr,ReadingArea_rsl2-rcl69-esl29-rsm2-rcm2-esm310-rsr2-rcr25-esr29.npz,,,,,0,110,110,543,,,right,red,0.83,425.8195638656616,426.24589681625366,2,,1,10,brightness,readingArea,realistic,75,2023-04-01_14h15.04.585,tripletExp_regina_11082022,2022.2.4,120.3368268841792,
8,1,3,2,0.25,1.0,2,0.111111111111111,0.298245614035088,2,0.444444444444444,0.298245614035088,ReadingArea_rsl2-rcl25-esl100-rsm2-rcm11-esm29-rsr2-rcr44-esr29,exr/ReadingArea_rsl2-rcl25-esl100-rsm2-rcm11-esm29-rsr2-rcr44-esr29.exr,ReadingArea_rsl2-rcl25-esl100-rsm2-rcm11-esm29-rsr2-rcr44-esr29.npz,,,,,0,111,111,490,,,left,green,0.68,427.9686858654022,428.3963890075684,2,,1,10,brightness,readingArea,realistic,75,2023-04-01_14h15.04.585,tripletExp_regina_11082022,2022.2.4,120.3368268841792,
12,9,14,2,0.027777777777778,3.10526315789474,2,0.444444444444444,1.0,2,0.25,3.10526315789474,ReadingArea_rsl2-rcl2-esl310-rsm2-rcm44-esm100-rsr2-rcr25-esr310,exr/ReadingArea_rsl2-rcl2-esl310-rsm2-rcm44-esm100-rsr2-rcr25-esr310.exr,ReadingArea_rsl2-rcl2-esl310-rsm2-rcm44-esm100-rsr2-rcr25-esr310.npz,,,,,0,112,112,123,,,right,red,4.62,433.6481900215149,,2,,1,10,brightness,readingArea,realistic,75,2023-04-01_14h15.04.585,tripletExp_regina_11082022,2022.2.4,120.3368268841792,
5,8,7,2,1.0,0.298245614035088,2,0.25,1.0,2,0.111111111111111,1.0,ReadingArea_rsl2-rcl100-esl29-rsm2-rcm25-esm100-rsr2-rcr11-esr100,exr/ReadingArea_rsl2-rcl100-esl29-rsm2-rcm25-esm100-rsr2-rcr11-esr100.exr,ReadingArea_rsl2-rcl100-esl29-rsm2-rcm25-esm100-rsr2-rcr11-esr100.npz,,,,,0,113,113,36,,,right,red,0.92,435.7769968509674,436.2090408802033,2,,1,10,brightness,readingArea,realistic,75,2023-04-01_14h15.04.585,tripletExp_regina_11082022,2022.2.4,120.3368268841792,
7,13,6,2,0.111111111111111,1.0,2,0.111111111111111,3.10526315789474,2,0.027777777777778,1.0,ReadingArea_rsl2-rcl11-esl100-rsm2-rcm11-esm310-rsr2-rcr2-esr100,exr/ReadingArea_rsl2-rcl11-esl100-rsm2-rcm11-esm310-rsr2-rcr2-esr100.exr,ReadingArea_rsl2-rcl11-esl100-rsm2-rcm11-esm310-rsr2-rcr2-esr100.npz,,,,,0,114,114,73,,,left,green,0.74,437.93020391464233,438.3577659130096,2,,1,10,brightness,readingArea,realistic,75,2023-04-01_14h15.04.585,tripletExp_regina_11082022,2022.2.4,120.3368268841792,
13,12,5,2,0.111111111111111,3.10526315789474,2,0.027777777777778,3.10526315789474,2,1.0,0.298245614035088,ReadingArea_rsl2-rcl11-esl310-rsm2-rcm2-esm310-rsr2-rcr100-esr29,exr/ReadingArea_rsl2-rcl11-esl310-rsm2-rcm2-esm310-rsr2-rcr100-esr29.exr,ReadingArea_rsl2-rcl11-esl310-rsm2-rcm2-esm310-rsr2-rcr100-esr29.npz,,,,,0,115,115,294,,,left,green,1.02,440.0742619037628,,2,,1,10,brightness,readingArea,realistic,75,2023-04-01_14h15.04.585,tripletExp_regina_11082022,2022.2.4,120.3368268841792,
1,3,4,2,0.111111111111111,0.298245614035088,2,0.444444444444444,0.298245614035088,2,0.694444444444444,0.298245614035088,ReadingArea_rsl2-rcl11-esl29-rsm2-rcm44-esm29-rsr2-rcr69-esr29,exr/ReadingArea_rsl2-rcl11-esl29-rsm2-rcm44-esm29-rsr2-rcr69-esr29.exr,ReadingArea_rsl2-rcl11-esl29-rsm2-rcm44-esm29-rsr2-rcr69-esr29.npz,,,,,0,116,116,153,,,right,red,1.01,442.208902835846,442.6435580253601,2,,1,10,brightness,readingArea,realistic,75,2023-04-01_14h15.04.585,tripletExp_regina_11082022,2022.2.4,120.3368268841792,
5,3,6,2,1.0,0.298245614035088,2,0.444444444444444,0.298245614035088,2,0.027777777777778,1.0,ReadingArea_rsl2-rcl100-esl29-rsm2-rcm44-esm29-rsr2-rcr2-esr100,exr/ReadingArea_rsl2-rcl100-esl29-rsm2-rcm44-esm29-rsr2-rcr2-esr100.exr,ReadingArea_rsl2-rcl100-esl29-rsm2-rcm44-esm29-rsr2-rcr2-esr100.npz,,,,,0,117,117,316,,,right,red,2.24,446.1314549446106,446.6081109046936,2,,1,10,brightness,readingArea,realistic,75,2023-04-01_14h15.04.585,tripletExp_regina_11082022,2022.2.4,120.3368268841792,
13,11,7,2,0.111111111111111,3.10526315789474,2,1.0,1.0,2,0.111111111111111,1.0,ReadingArea_rsl2-rcl11-esl310-rsm2-rcm100-esm100-rsr2-rcr11-esr100,exr/ReadingArea_rsl2-rcl11-esl310-rsm2-rcm100-esm100-rsr2-rcr11-esr100.exr,ReadingArea_rsl2-rcl11-esl310-rsm2-rcm100-esm100-rsr2-rcr11-esr100.npz,,,,,0,118,118,590,,,left,green,0.98,448.2973918914795,448.72823095321655,2,,1,10,brightness,readingArea,realistic,75,2023-04-01_14h15.04.585,tripletExp_regina_11082022,2022.2.4,120.3368268841792,
3,1,0,2,0.444444444444444,0.298245614035088,2,0.111111111111111,0.298245614035088,2,0.027777777777778,0.298245614035088,ReadingArea_rsl2-rcl44-esl29-rsm2-rcm11-esm29-rsr2-rcr2-esr29,exr/ReadingArea_rsl2-rcl44-esl29-rsm2-rcm11-esm29-rsr2-rcr2-esr29.exr,ReadingArea_rsl2-rcl44-esl29-rsm2-rcm11-esm29-rsr2-rcr2-esr29.npz,,,,,0,119,119,343,,,right,red,2.13,452.1980419158936,452.7323009967804,2,,1,10,brightness,readingArea,realistic,75,2023-04-01_14h15.04.585,tripletExp_regina_11082022,2022.2.4,120.3368268841792,
4,12,5,2,0.694444444444444,0.298245614035088,2,0.027777777777778,3.10526315789474,2,1.0,0.298245614035088,ReadingArea_rsl2-rcl69-esl29-rsm2-rcm2-esm310-rsr2-rcr100-esr29,exr/ReadingArea_rsl2-rcl69-esl29-rsm2-rcm2-esm310-rsr2-rcr100-esr29.exr,ReadingArea_rsl2-rcl69-esl29-rsm2-rcm2-esm310-rsr2-rcr100-esr29.npz,,,,,0,120,120,296,,,left,green,0.85,454.4317848682404,454.8634569644928,2,,1,10,brightness,readingArea,realistic,75,2023-04-01_14h15.04.585,tripletExp_regina_11082022,2022.2.4,120.3368268841792,
12,3,13,2,0.027777777777778,3.10526315789474,2,0.444444444444444,0.298245614035088,2,0.111111111111111,3.10526315789474,ReadingArea_rsl2-rcl2-esl310-rsm2-rcm44-esm29-rsr2-rcr11-esr310,exr/ReadingArea_rsl2-rcl2-esl310-rsm2-rcm44-esm29-rsr2-rcr11-esr310.exr,ReadingArea_rsl2-rcl2-esl310-rsm2-rcm44-esm29-rsr2-rcr11-esr310.npz,,,,,0,121,121,383,,,right,red,0.94,456.5599629878998,,2,,1,10,brightness,readingArea,realistic,75,2023-04-01_14h15.04.585,tripletExp_regina_11082022,2022.2.4,120.3368268841792,
6,1,2,2,0.027777777777778,1.0,2,0.111111111111111,0.298245614035088,2,0.25,0.298245614035088,ReadingArea_rsl2-rcl2-esl100-rsm2-rcm11-esm29-rsr2-rcr25-esr29,exr/ReadingArea_rsl2-rcl2-esl100-rsm2-rcm11-esm29-rsr2-rcr25-esr29.exr,ReadingArea_rsl2-rcl2-esl100-rsm2-rcm11-esm29-rsr2-rcr25-esr29.npz,,,,,0,122,122,68,,,left,green,1.05,458.68424892425537,459.11359882354736,2,,1,10,brightness,readingArea,realistic,75,2023-04-01_14h15.04.585,tripletExp_regina_11082022,2022.2.4,120.3368268841792,
7,4,6,2,0.111111111111111,1.0,2,0.694444444444444,0.298245614035088,2,0.027777777777778,1.0,ReadingArea_rsl2-rcl11-esl100-rsm2-rcm69-esm29-rsr2-rcr2-esr100,exr/ReadingArea_rsl2-rcl11-esl100-rsm2-rcm69-esm29-rsr2-rcr2-esr100.exr,ReadingArea_rsl2-rcl11-esl100-rsm2-rcm69-esm29-rsr2-rcr2-esr100.npz,,,,,0,123,123,528,,,left,green,0.67,460.8054449558258,461.2380678653717,2,,1,10,brightness,readingArea,realistic,75,2023-04-01_14h15.04.585,tripletExp_regina_11082022,2022.2.4,120.3368268841792,
8,12,13,2,0.25,1.0,2,0.027777777777778,3.10526315789474,2,0.111111111111111,3.10526315789474,ReadingArea_rsl2-rcl25-esl100-rsm2-rcm2-esm310-rsr2-rcr11-esr310,exr/ReadingArea_rsl2-rcl25-esl100-rsm2-rcm2-esm310-rsr2-rcr11-esr310.exr,ReadingArea_rsl2-rcl25-esl100-rsm2-rcm2-esm310-rsr2-rcr11-esr310.npz,,,,,0,124,124,275,,,left,green,1.11,462.93426489830017,463.3628740310669,2,,1,10,brightness,readingArea,realistic,75,2023-04-01_14h15.04.585,tripletExp_regina_11082022,2022.2.4,120.3368268841792,
5,4,12,2,1.0,0.298245614035088,2,0.694444444444444,0.298245614035088,2,0.027777777777778,3.10526315789474,ReadingArea_rsl2-rcl100-esl29-rsm2-rcm69-esm29-rsr2-rcr2-esr310,exr/ReadingArea_rsl2-rcl100-esl29-rsm2-rcm69-esm29-rsr2-rcr2-esr310.exr,ReadingArea_rsl2-rcl100-esl29-rsm2-rcm69-esm29-rsr2-rcr2-esr310.npz,,,,,0,125,125,82,,,left,green,0.6,465.0533308982849,465.4896550178528,2,,1,10,brightness,readingArea,realistic,75,2023-04-01_14h15.04.585,tripletExp_regina_11082022,2022.2.4,120.3368268841792,
13,6,12,2,0.111111111111111,3.10526315789474,2,0.027777777777778,1.0,2,0.027777777777778,3.10526315789474,ReadingArea_rsl2-rcl11-esl310-rsm2-rcm2-esm100-rsr2-rcr2-esr310,exr/ReadingArea_rsl2-rcl11-esl310-rsm2-rcm2-esm100-rsr2-rcr2-esr310.exr,ReadingArea_rsl2-rcl11-esl310-rsm2-rcm2-esm100-rsr2-rcr2-esr310.npz,,,,,0,126,126,147,,,right,red,0.66,467.18740701675415,467.62106680870056,2,,1,10,brightness,readingArea,realistic,75,2023-04-01_14h15.04.585,tripletExp_regina_11082022,2022.2.4,120.3368268841792,
9,7,3,2,0.444444444444444,1.0,2,0.111111111111111,1.0,2,0.444444444444444,0.298245614035088,ReadingArea_rsl2-rcl44-esl100-rsm2-rcm11-esm100-rsr2-rcr44-esr29,exr/ReadingArea_rsl2-rcl44-esl100-rsm2-rcm11-esm100-rsr2-rcr44-esr29.exr,ReadingArea_rsl2-rcl44-esl100-rsm2-rcm11-esm100-rsr2-rcr44-esr29.npz,,,,,0,127,127,235,,,right,red,0.8,469.343652009964,469.7714128494263,2,,1,10,brightness,readingArea,realistic,75,2023-04-01_14h15.04.585,tripletExp_regina_11082022,2022.2.4,120.3368268841792,
2,12,6,2,0.25,0.298245614035088,2,0.027777777777778,3.10526315789474,2,0.027777777777778,1.0,ReadingArea_rsl2-rcl25-esl29-rsm2-rcm2-esm310-rsr2-rcr2-esr100,exr/ReadingArea_rsl2-rcl25-esl29-rsm2-rcm2-esm310-rsr2-rcr2-esr100.exr,ReadingArea_rsl2-rcl25-esl29-rsm2-rcm2-esm310-rsr2-rcr2-esr100.npz,,,,,0,128,128,400,,,right,red,0.85,471.4606478214264,471.886754989624,2,,1,10,brightness,readingArea,realistic,75,2023-04-01_14h15.04.585,tripletExp_regina_11082022,2022.2.4,120.3368268841792,
12,14,4,2,0.027777777777778,3.10526315789474,2,0.25,3.10526315789474,2,0.694444444444444,0.298245614035088,ReadingArea_rsl2-rcl2-esl310-rsm2-rcm25-esm310-rsr2-rcr69-esr29,exr/ReadingArea_rsl2-rcl2-esl310-rsm2-rcm25-esm310-rsr2-rcr69-esr29.exr,ReadingArea_rsl2-rcl2-esl310-rsm2-rcm25-esm310-rsr2-rcr69-esr29.npz,,,,,0,129,129,315,,,right,red,0.65,473.6006999015808,474.0295968055725,2,,1,10,brightness,readingArea,realistic,75,2023-04-01_14h15.04.585,tripletExp_regina_11082022,2022.2.4,120.3368268841792,
11,8,2,2,1.0,1.0,2,0.25,1.0,2,0.25,0.298245614035088,ReadingArea_rsl2-rcl100-esl100-rsm2-rcm25-esm100-rsr2-rcr25-esr29,exr/ReadingArea_rsl2-rcl100-esl100-rsm2-rcm25-esm100-rsr2-rcr25-esr29.exr,ReadingArea_rsl2-rcl100-esl100-rsm2-rcm25-esm100-rsr2-rcr25-esr29.npz,,,,,0,130,130,406,,,right,red,0.74,475.7415208816528,476.17527294158936,2,,1,10,brightness,readingArea,realistic,75,2023-04-01_14h15.04.585,tripletExp_regina_11082022,2022.2.4,120.3368268841792,
12,13,10,2,0.027777777777778,3.10526315789474,2,0.111111111111111,3.10526315789474,2,0.694444444444444,1.0,ReadingArea_rsl2-rcl2-esl310-rsm2-rcm11-esm310-rsr2-rcr69-esr100,exr/ReadingArea_rsl2-rcl2-esl310-rsm2-rcm11-esm310-rsr2-rcr69-esr100.exr,ReadingArea_rsl2-rcl2-esl310-rsm2-rcm11-esm310-rsr2-rcr69-esr100.npz,,,,,0,131,131,295,,,left,green,2.07,479.651850938797,480.1829969882965,2,,1,10,brightness,readingArea,realistic,75,2023-04-01_14h15.04.585,tripletExp_regina_11082022,2022.2.4,120.3368268841792,
9,6,1,2,0.444444444444444,1.0,2,0.027777777777778,1.0,2,0.111111111111111,0.298245614035088,ReadingArea_rsl2-rcl44-esl100-rsm2-rcm2-esm100-rsr2-rcr11-esr29,exr/ReadingArea_rsl2-rcl44-esl100-rsm2-rcm2-esm100-rsr2-rcr11-esr29.exr,ReadingArea_rsl2-rcl44-esl100-rsm2-rcm2-esm100-rsr2-rcr11-esr29.npz,,,,,0,132,132,526,,,right,red,0.63,481.8844609260559,482.3175628185272,2,,1,10,brightness,readingArea,realistic,75,2023-04-01_14h15.04.585,tripletExp_regina_11082022,2022.2.4,120.3368268841792,
14,6,13,2,0.25,3.10526315789474,2,0.027777777777778,1.0,2,0.111111111111111,3.10526315789474,ReadingArea_rsl2-rcl25-esl310-rsm2-rcm2-esm100-rsr2-rcr11-esr310,exr/ReadingArea_rsl2-rcl25-esl310-rsm2-rcm2-esm100-rsr2-rcr11-esr310.exr,ReadingArea_rsl2-rcl25-esl310-rsm2-rcm2-esm100-rsr2-rcr11-esr310.npz,,,,,0,133,133,91,,,right,red,0.59,484.0384049415589,484.4689500331879,2,,1,10,brightness,readingArea,realistic,75,2023-04-01_14h15.04.585,tripletExp_regina_11082022,2022.2.4,120.3368268841792,
11,12,2,2,1.0,1.0,2,0.027777777777778,3.10526315789474,2,0.25,0.298245614035088,ReadingArea_rsl2-rcl100-esl100-rsm2-rcm2-esm310-rsr2-rcr25-esr29,exr/ReadingArea_rsl2-rcl100-esl100-rsm2-rcm2-esm310-rsr2-rcr25-esr29.exr,ReadingArea_rsl2-rcl100-esl100-rsm2-rcm2-esm310-rsr2-rcr25-esr29.npz,,,,,0,134,134,423,,,right,red,2.16,487.9704999923706,488.402510881424,2,,1,10,brightness,readingArea,realistic,75,2023-04-01_14h15.04.585,tripletExp_regina_11082022,2022.2.4,120.3368268841792,
5,7,14,2,1.0,0.298245614035088,2,0.111111111111111,1.0,2,0.25,3.10526315789474,ReadingArea_rsl2-rcl100-esl29-rsm2-rcm11-esm100-rsr2-rcr25-esr310,exr/ReadingArea_rsl2-rcl100-esl29-rsm2-rcm11-esm100-rsr2-rcr25-esr310.exr,ReadingArea_rsl2-rcl100-esl29-rsm2-rcm11-esm100-rsr2-rcr25-esr310.npz,,,,,0,135,135,210,,,left,green,1.01,490.1018488407135,490.5354919433594,2,,1,10,brightness,readingArea,realistic,75,2023-04-01_14h15.04.585,tripletExp_regina_11082022,2022.2.4,120.3368268841792,
14,7,8,2,0.25,3.10526315789474,2,0.111111111111111,1.0,2,0.25,1.0,ReadingArea_rsl2-rcl25-esl310-rsm2-rcm11-esm100-rsr2-rcr25-esr100,exr/ReadingArea_rsl2-rcl25-esl310-rsm2-rcm11-esm100-rsr2-rcr25-esr100.exr,ReadingArea_rsl2-rcl25-esl310-rsm2-rcm11-esm100-rsr2-rcr25-esr100.npz,,,,,0,136,136,326,,,right,red,0.64,492.2276759147644,492.6630170345306,2,,1,10,brightness,readingArea,realistic,75,2023-04-01_14h15.04.585,tripletExp_regina_11082022,2022.2.4,120.3368268841792,
5,14,4,2,1.0,0.298245614035088,2,0.25,3.10526315789474,2,0.694444444444444,0.298245614035088,ReadingArea_rsl2-rcl100-esl29-rsm2-rcm25-esm310-rsr2-rcr69-esr29,exr/ReadingArea_rsl2-rcl100-esl29-rsm2-rcm25-esm310-rsr2-rcr69-esr29.exr,ReadingArea_rsl2-rcl100-esl29-rsm2-rcm25-esm310-rsr2-rcr69-esr29.npz,,,,,0,137,137,69,,,left,green,2.51,496.1372809410095,496.570858001709,2,,1,10,brightness,readingArea,realistic,75,2023-04-01_14h15.04.585,tripletExp_regina_11082022,2022.2.4,120.3368268841792,
9,13,6,2,0.444444444444444,1.0,2,0.111111111111111,3.10526315789474,2,0.027777777777778,1.0,ReadingArea_rsl2-rcl44-esl100-rsm2-rcm11-esm310-rsr2-rcr2-esr100,exr/ReadingArea_rsl2-rcl44-esl100-rsm2-rcm11-esm310-rsr2-rcr2-esr100.exr,ReadingArea_rsl2-rcl44-esl100-rsm2-rcm11-esm310-rsr2-rcr2-esr100.npz,,,,,0,138,138,13,,,right,red,0.98,498.28972697258,498.82065296173096,2,,1,10,brightness,readingArea,realistic,75,2023-04-01_14h15.04.585,tripletExp_regina_11082022,2022.2.4,120.3368268841792,
9,4,11,2,0.444444444444444,1.0,2,0.694444444444444,0.298245614035088,2,1.0,1.0,ReadingArea_rsl2-rcl44-esl100-rsm2-rcm69-esm29-rsr2-rcr100-esr100,exr/ReadingArea_rsl2-rcl44-esl100-rsm2-rcm69-esm29-rsr2-rcr100-esr100.exr,ReadingArea_rsl2-rcl44-esl100-rsm2-rcm69-esm29-rsr2-rcr100-esr100.npz,,,,,0,139,139,133,,,left,green,0.87,500.5154340267181,500.948117017746,2,,1,10,brightness,readingArea,realistic,75,2023-04-01_14h15.04.585,tripletExp_regina_11082022,2022.2.4,120.3368268841792,
9,0,11,2,0.444444444444444,1.0,2,0.027777777777778,0.298245614035088,2,1.0,1.0,ReadingArea_rsl2-rcl44-esl100-rsm2-rcm2-esm29-rsr2-rcr100-esr100,exr/ReadingArea_rsl2-rcl44-esl100-rsm2-rcm2-esm29-rsr2-rcr100-esr100.exr,ReadingArea_rsl2-rcl44-esl100-rsm2-rcm2-esm29-rsr2-rcr100-esr100.npz,,,,,0,140,140,319,,,left,green,0.83,502.6428430080414,,2,,1,10,brightness,readingArea,realistic,75,2023-04-01_14h15.04.585,tripletExp_regina_11082022,2022.2.4,120.3368268841792,
2,7,11,2,0.25,0.298245614035088,2,0.111111111111111,1.0,2,1.0,1.0,ReadingArea_rsl2-rcl25-esl29-rsm2-rcm11-esm100-rsr2-rcr100-esr100,exr/ReadingArea_rsl2-rcl25-esl29-rsm2-rcm11-esm100-rsr2-rcr100-esr100.exr,ReadingArea_rsl2-rcl25-esl29-rsm2-rcm11-esm100-rsr2-rcr100-esr100.npz,,,,,0,141,141,194,,,left,green,0.6,504.7791609764099,505.2150948047638,2,,1,10,brightness,readingArea,realistic,75,2023-04-01_14h15.04.585,tripletExp_regina_11082022,2022.2.4,120.3368268841792,
3,13,1,2,0.444444444444444,0.298245614035088,2,0.111111111111111,3.10526315789474,2,0.111111111111111,0.298245614035088,ReadingArea_rsl2-rcl44-esl29-rsm2-rcm11-esm310-rsr2-rcr11-esr29,exr/ReadingArea_rsl2-rcl44-esl29-rsm2-rcm11-esm310-rsr2-rcr11-esr29.exr,ReadingArea_rsl2-rcl44-esl29-rsm2-rcm11-esm310-rsr2-rcr11-esr29.npz,,,,,0,142,142,421,,,left,green,0.93,506.9067590236664,507.3418560028076,2,,1,10,brightness,readingArea,realistic,75,2023-04-01_14h15.04.585,tripletExp_regina_11082022,2022.2.4,120.3368268841792,
2,0,13,2,0.25,0.298245614035088,2,0.027777777777778,0.298245614035088,2,0.111111111111111,3.10526315789474,ReadingArea_rsl2-rcl25-esl29-rsm2-rcm2-esm29-rsr2-rcr11-esr310,exr/ReadingArea_rsl2-rcl25-esl29-rsm2-rcm2-esm29-rsr2-rcr11-esr310.exr,ReadingArea_rsl2-rcl25-esl29-rsm2-rcm2-esm29-rsr2-rcr11-esr310.npz,,,,,0,143,143,50,,,left,green,0.99,509.0405960083008,509.4721169471741,2,,1,10,brightness,readingArea,realistic,75,2023-04-01_14h15.04.585,tripletExp_regina_11082022,2022.2.4,120.3368268841792,
0,9,11,2,0.027777777777778,0.298245614035088,2,0.444444444444444,1.0,2,1.0,1.0,ReadingArea_rsl2-rcl2-esl29-rsm2-rcm44-esm100-rsr2-rcr100-esr100,exr/ReadingArea_rsl2-rcl2-esl29-rsm2-rcm44-esm100-rsr2-rcr100-esr100.exr,ReadingArea_rsl2-rcl2-esl29-rsm2-rcm44-esm100-rsr2-rcr100-esr100.npz,,,,,0,144,144,448,,,right,red,2.96,512.9773290157318,,2,,1,10,brightness,readingArea,realistic,75,2023-04-01_14h15.04.585,tripletExp_regina_11082022,2022.2.4,120.3368268841792,
13,3,7,2,0.111111111111111,3.10526315789474,2,0.444444444444444,0.298245614035088,2,0.111111111111111,1.0,ReadingArea_rsl2-rcl11-esl310-rsm2-rcm44-esm29-rsr2-rcr11-esr100,exr/ReadingArea_rsl2-rcl11-esl310-rsm2-rcm44-esm29-rsr2-rcr11-esr100.exr,ReadingArea_rsl2-rcl11-esl310-rsm2-rcm44-esm29-rsr2-rcr11-esr100.npz,,,,,0,145,145,497,,,,red,2.96,518.673614025116,519.1122720241547,2,518.3032336950303,1,10,brightness,readingArea,realistic,75,2023-04-01_14h15.04.585,tripletExp_regina_11082022,2022.2.4,120.3368268841792,
7,0,2,2,0.111111111111111,1.0,2,0.027777777777778,0.298245614035088,2,0.25,0.298245614035088,ReadingArea_rsl2-rcl11-esl100-rsm2-rcm2-esm29-rsr2-rcr25-esr29,exr/ReadingArea_rsl2-rcl11-esl100-rsm2-rcm2-esm29-rsr2-rcr25-esr29.exr,ReadingArea_rsl2-rcl11-esl100-rsm2-rcm2-esm29-rsr2-rcr25-esr29.npz,,,,,0,146,146,347,,,left,green,0.96,520.8063378334045,521.2431859970093,2,,1,10,brightness,readingArea,realistic,75,2023-04-01_14h15.04.585,tripletExp_regina_11082022,2022.2.4,120.3368268841792,
4,13,1,2,0.694444444444444,0.298245614035088,2,0.111111111111111,3.10526315789474,2,0.111111111111111,0.298245614035088,ReadingArea_rsl2-rcl69-esl29-rsm2-rcm11-esm310-rsr2-rcr11-esr29,exr/ReadingArea_rsl2-rcl69-esl29-rsm2-rcm11-esm310-rsr2-rcr11-esr29.exr,ReadingArea_rsl2-rcl69-esl29-rsm2-rcm11-esm310-rsr2-rcr11-esr29.npz,,,,,0,147,147,192,,,right,red,3.66,526.4544909000397,,2,,1,10,brightness,readingArea,realistic,75,2023-04-01_14h15.04.585,tripletExp_regina_11082022,2022.2.4,120.3368268841792,
7,8,11,2,0.111111111111111,1.0,2,0.25,1.0,2,1.0,1.0,ReadingArea_rsl2-rcl11-esl100-rsm2-rcm25-esm100-rsr2-rcr100-esr100,exr/ReadingArea_rsl2-rcl11-esl100-rsm2-rcm25-esm100-rsr2-rcr100-esr100.exr,ReadingArea_rsl2-rcl11-esl100-rsm2-rcm25-esm100-rsr2-rcr100-esr100.npz,,,,,0,148,148,363,,,left,green,0.8,528.6216189861298,,2,,1,10,brightness,readingArea,realistic,75,2023-04-01_14h15.04.585,tripletExp_regina_11082022,2022.2.4,120.3368268841792,
10,14,13,2,0.694444444444444,1.0,2,0.25,3.10526315789474,2,0.111111111111111,3.10526315789474,ReadingArea_rsl2-rcl69-esl100-rsm2-rcm25-esm310-rsr2-rcr11-esr310,exr/ReadingArea_rsl2-rcl69-esl100-rsm2-rcm25-esm310-rsr2-rcr11-esr310.exr,ReadingArea_rsl2-rcl69-esl100-rsm2-rcm25-esm310-rsr2-rcr11-esr310.npz,,,,,0,149,149,168,,,left,green,0.78,530.7647089958191,530.97052693367,2,,1,10,brightness,readingArea,realistic,75,2023-04-01_14h15.04.585,tripletExp_regina_11082022,2022.2.4,120.3368268841792,
14,6,2,2,0.25,3.10526315789474,2,0.027777777777778,1.0,2,0.25,0.298245614035088,ReadingArea_rsl2-rcl25-esl310-rsm2-rcm2-esm100-rsr2-rcr25-esr29,exr/ReadingArea_rsl2-rcl25-esl310-rsm2-rcm2-esm100-rsr2-rcr25-esr29.exr,ReadingArea_rsl2-rcl25-esl310-rsm2-rcm2-esm100-rsr2-rcr25-esr29.npz,,,,,0,150,150,272,,,right,red,1.0,785.2865908145905,,3,,1,10,brightness,readingArea,realistic,75,2023-04-01_14h15.04.585,tripletExp_regina_11082022,2022.2.4,120.3368268841792,
4,6,3,2,0.694444444444444,0.298245614035088,2,0.027777777777778,1.0,2,0.444444444444444,0.298245614035088,ReadingArea_rsl2-rcl69-esl29-rsm2-rcm2-esm100-rsr2-rcr44-esr29,exr/ReadingArea_rsl2-rcl69-esl29-rsm2-rcm2-esm100-rsr2-rcr44-esr29.exr,ReadingArea_rsl2-rcl69-esl29-rsm2-rcm2-esm100-rsr2-rcr44-esr29.npz,,,,,0,151,151,344,,,right,red,1.09,787.4329369068146,787.8705558776855,3,,1,10,brightness,readingArea,realistic,75,2023-04-01_14h15.04.585,tripletExp_regina_11082022,2022.2.4,120.3368268841792,
10,0,14,2,0.694444444444444,1.0,2,0.027777777777778,0.298245614035088,2,0.25,3.10526315789474,ReadingArea_rsl2-rcl69-esl100-rsm2-rcm2-esm29-rsr2-rcr25-esr310,exr/ReadingArea_rsl2-rcl69-esl100-rsm2-rcm2-esm29-rsr2-rcr25-esr310.exr,ReadingArea_rsl2-rcl69-esl100-rsm2-rcm2-esm29-rsr2-rcr25-esr310.npz,,,,,0,152,152,95,,,right,red,1.22,789.5600500106812,789.9928209781647,3,,1,10,brightness,readingArea,realistic,75,2023-04-01_14h15.04.585,tripletExp_regina_11082022,2022.2.4,120.3368268841792,
12,10,5,2,0.027777777777778,3.10526315789474,2,0.694444444444444,1.0,2,1.0,0.298245614035088,ReadingArea_rsl2-rcl2-esl310-rsm2-rcm69-esm100-rsr2-rcr100-esr29,exr/ReadingArea_rsl2-rcl2-esl310-rsm2-rcm69-esm100-rsr2-rcr100-esr29.exr,ReadingArea_rsl2-rcl2-esl310-rsm2-rcm69-esm100-rsr2-rcr100-esr29.npz,,,,,0,153,153,470,,,right,red,0.65,791.689258813858,792.1279628276825,3,,1,10,brightness,readingArea,realistic,75,2023-04-01_14h15.04.585,tripletExp_regina_11082022,2022.2.4,120.3368268841792,
11,1,12,2,1.0,1.0,2,0.111111111111111,0.298245614035088,2,0.027777777777778,3.10526315789474,ReadingArea_rsl2-rcl100-esl100-rsm2-rcm11-esm29-rsr2-rcr2-esr310,exr/ReadingArea_rsl2-rcl100-esl100-rsm2-rcm11-esm29-rsr2-rcr2-esr310.exr,ReadingArea_rsl2-rcl100-esl100-rsm2-rcm11-esm29-rsr2-rcr2-esr310.npz,,,,,0,154,154,339,,,right,red,2.13,795.5960040092468,796.0302729606628,3,,1,10,brightness,readingArea,realistic,75,2023-04-01_14h15.04.585,tripletExp_regina_11082022,2022.2.4,120.3368268841792,
7,3,0,2,0.111111111111111,1.0,2,0.444444444444444,0.298245614035088,2,0.027777777777778,0.298245614035088,ReadingArea_rsl2-rcl11-esl100-rsm2-rcm44-esm29-rsr2-rcr2-esr29,exr/ReadingArea_rsl2-rcl11-esl100-rsm2-rcm44-esm29-rsr2-rcr2-esr29.exr,ReadingArea_rsl2-rcl11-esl100-rsm2-rcm44-esm29-rsr2-rcr2-esr29.npz,,,,,0,155,155,318,,,left,green,0.72,797.7299008369446,798.1627910137177,3,,1,10,brightness,readingArea,realistic,75,2023-04-01_14h15.04.585,tripletExp_regina_11082022,2022.2.4,120.3368268841792,
1,14,7,2,0.111111111111111,0.298245614035088,2,0.25,3.10526315789474,2,0.111111111111111,1.0,ReadingArea_rsl2-rcl11-esl29-rsm2-rcm25-esm310-rsr2-rcr11-esr100,exr/ReadingArea_rsl2-rcl11-esl29-rsm2-rcm25-esm310-rsr2-rcr11-esr100.exr,ReadingArea_rsl2-rcl11-esl29-rsm2-rcm25-esm310-rsr2-rcr11-esr100.npz,,,,,0,156,156,583,,,right,red,0.86,799.858747959137,800.2961659431458,3,,1,10,brightness,readingArea,realistic,75,2023-04-01_14h15.04.585,tripletExp_regina_11082022,2022.2.4,120.3368268841792,
0,13,12,2,0.027777777777778,0.298245614035088,2,0.111111111111111,3.10526315789474,2,0.027777777777778,3.10526315789474,ReadingArea_rsl2-rcl2-esl29-rsm2-rcm11-esm310-rsr2-rcr2-esr310,exr/ReadingArea_rsl2-rcl2-esl29-rsm2-rcm11-esm310-rsr2-rcr2-esr310.exr,ReadingArea_rsl2-rcl2-esl29-rsm2-rcm11-esm310-rsr2-rcr2-esr310.npz,,,,,0,157,157,501,,,right,red,0.83,802.0039319992065,802.4398679733276,3,,1,10,brightness,readingArea,realistic,75,2023-04-01_14h15.04.585,tripletExp_regina_11082022,2022.2.4,120.3368268841792,
7,13,4,2,0.111111111111111,1.0,2,0.111111111111111,3.10526315789474,2,0.694444444444444,0.298245614035088,ReadingArea_rsl2-rcl11-esl100-rsm2-rcm11-esm310-rsr2-rcr69-esr29,exr/ReadingArea_rsl2-rcl11-esl100-rsm2-rcm11-esm310-rsr2-rcr69-esr29.exr,ReadingArea_rsl2-rcl11-esl100-rsm2-rcm11-esm310-rsr2-rcr69-esr29.npz,,,,,0,158,158,456,,,left,green,1.06,804.1470918655396,804.5814728736877,3,,1,10,brightness,readingArea,realistic,75,2023-04-01_14h15.04.585,tripletExp_regina_11082022,2022.2.4,120.3368268841792,
11,5,8,2,1.0,1.0,2,1.0,0.298245614035088,2,0.25,1.0,ReadingArea_rsl2-rcl100-esl100-rsm2-rcm100-esm29-rsr2-rcr25-esr100,exr/ReadingArea_rsl2-rcl100-esl100-rsm2-rcm100-esm29-rsr2-rcr25-esr100.exr,ReadingArea_rsl2-rcl100-esl100-rsm2-rcm100-esm29-rsr2-rcr25-esr100.npz,,,,,0,159,159,86,,,left,green,0.94,806.2784478664398,806.7129938602448,3,,1,10,brightness,readingArea,realistic,75,2023-04-01_14h15.04.585,tripletExp_regina_11082022,2022.2.4,120.3368268841792,
8,9,1,2,0.25,1.0,2,0.444444444444444,1.0,2,0.111111111111111,0.298245614035088,ReadingArea_rsl2-rcl25-esl100-rsm2-rcm44-esm100-rsr2-rcr11-esr29,exr/ReadingArea_rsl2-rcl25-esl100-rsm2-rcm44-esm100-rsr2-rcr11-esr29.exr,ReadingArea_rsl2-rcl25-esl100-rsm2-rcm44-esm100-rsr2-rcr11-esr29.npz,,,,,0,160,160,266,,,left,green,0.84,808.4032850265503,808.8401968479156,3,,1,10,brightness,readingArea,realistic,75,2023-04-01_14h15.04.585,tripletExp_regina_11082022,2022.2.4,120.3368268841792,
11,8,0,2,1.0,1.0,2,0.25,1.0,2,0.027777777777778,0.298245614035088,ReadingArea_rsl2-rcl100-esl100-rsm2-rcm25-esm100-rsr2-rcr2-esr29,exr/ReadingArea_rsl2-rcl100-esl100-rsm2-rcm25-esm100-rsr2-rcr2-esr29.exr,ReadingArea_rsl2-rcl100-esl100-rsm2-rcm25-esm100-rsr2-rcr2-esr29.npz,,,,,0,161,161,81,,,right,red,2.57,812.3117649555206,812.7549209594727,3,,1,10,brightness,readingArea,realistic,75,2023-04-01_14h15.04.585,tripletExp_regina_11082022,2022.2.4,120.3368268841792,
7,5,11,2,0.111111111111111,1.0,2,1.0,0.298245614035088,2,1.0,1.0,ReadingArea_rsl2-rcl11-esl100-rsm2-rcm100-esm29-rsr2-rcr100-esr100,exr/ReadingArea_rsl2-rcl11-esl100-rsm2-rcm100-esm29-rsr2-rcr100-esr100.exr,ReadingArea_rsl2-rcl11-esl100-rsm2-rcm100-esm29-rsr2-rcr100-esr100.npz,,,,,0,162,162,10,,,right,red,0.75,814.4561758041382,814.8909590244293,3,,1,10,brightness,readingArea,realistic,75,2023-04-01_14h15.04.585,tripletExp_regina_11082022,2022.2.4,120.3368268841792,
14,6,12,2,0.25,3.10526315789474,2,0.027777777777778,1.0,2,0.027777777777778,3.10526315789474,ReadingArea_rsl2-rcl25-esl310-rsm2-rcm2-esm100-rsr2-rcr2-esr310,exr/ReadingArea_rsl2-rcl25-esl310-rsm2-rcm2-esm100-rsr2-rcr2-esr310.exr,ReadingArea_rsl2-rcl25-esl310-rsm2-rcm2-esm100-rsr2-rcr2-esr310.npz,,,,,0,163,163,242,,,right,red,0.56,816.5857949256897,817.024169921875,3,,1,10,brightness,readingArea,realistic,75,2023-04-01_14h15.04.585,tripletExp_regina_11082022,2022.2.4,120.3368268841792,
14,7,0,2,0.25,3.10526315789474,2,0.111111111111111,1.0,2,0.027777777777778,0.298245614035088,ReadingArea_rsl2-rcl25-esl310-rsm2-rcm11-esm100-rsr2-rcr2-esr29,exr/ReadingArea_rsl2-rcl25-esl310-rsm2-rcm11-esm100-rsr2-rcr2-esr29.exr,ReadingArea_rsl2-rcl25-esl310-rsm2-rcm11-esm100-rsr2-rcr2-esr29.npz,,,,,0,164,164,412,,,right,red,0.7,818.720027923584,819.1593849658966,3,,1,10,brightness,readingArea,realistic,75,2023-04-01_14h15.04.585,tripletExp_regina_11082022,2022.2.4,120.3368268841792,
9,13,0,2,0.444444444444444,1.0,2,0.111111111111111,3.10526315789474,2,0.027777777777778,0.298245614035088,ReadingArea_rsl2-rcl44-esl100-rsm2-rcm11-esm310-rsr2-rcr2-esr29,exr/ReadingArea_rsl2-rcl44-esl100-rsm2-rcm11-esm310-rsr2-rcr2-esr29.exr,ReadingArea_rsl2-rcl44-esl100-rsm2-rcm11-esm310-rsr2-rcr2-esr29.npz,,,,,0,165,165,205,,,left,green,0.55,820.8648908138275,821.2998149394989,3,,1,10,brightness,readingArea,realistic,75,2023-04-01_14h15.04.585,tripletExp_regina_11082022,2022.2.4,120.3368268841792,
11,12,4,2,1.0,1.0,2,0.027777777777778,3.10526315789474,2,0.694444444444444,0.298245614035088,ReadingArea_rsl2-rcl100-esl100-rsm2-rcm2-esm310-rsr2-rcr69-esr29,exr/ReadingArea_rsl2-rcl100-esl100-rsm2-rcm2-esm310-rsr2-rcr69-esr29.exr,ReadingArea_rsl2-rcl100-esl100-rsm2-rcm2-esm310-rsr2-rcr69-esr29.npz,,,,,0,166,166,250,,,right,red,0.68,822.9958620071411,823.4327349662781,3,,1,10,brightness,readingArea,realistic,75,2023-04-01_14h15.04.585,tripletExp_regina_11082022,2022.2.4,120.3368268841792,
0,5,11,2,0.027777777777778,0.298245614035088,2,1.0,0.298245614035088,2,1.0,1.0,ReadingArea_rsl2-rcl2-esl29-rsm2-rcm100-esm29-rsr2-rcr100-esr100,exr/ReadingArea_rsl2-rcl2-esl29-rsm2-rcm100-esm29-rsr2-rcr100-esr100.exr,ReadingArea_rsl2-rcl2-esl29-rsm2-rcm100-esm29-rsr2-rcr100-esr100.npz,,,,,0,167,167,422,,,right,red,0.54,825.1349649429321,,3,,1,10,brightness,readingArea,realistic,75,2023-04-01_14h15.04.585,tripletExp_regina_11082022,2022.2.4,120.3368268841792,
7,3,12,2,0.111111111111111,1.0,2,0.444444444444444,0.298245614035088,2,0.027777777777778,3.10526315789474,ReadingArea_rsl2-rcl11-esl100-rsm2-rcm44-esm29-rsr2-rcr2-esr310,exr/ReadingArea_rsl2-rcl11-esl100-rsm2-rcm44-esm29-rsr2-rcr2-esr310.exr,ReadingArea_rsl2-rcl11-esl100-rsm2-rcm44-esm29-rsr2-rcr2-esr310.npz,,,,,0,168,168,443,,,left,green,0.62,827.2757790088654,827.7139408588409,3,,1,10,brightness,readingArea,realistic,75,2023-04-01_14h15.04.585,tripletExp_regina_11082022,2022.2.4,120.3368268841792,
5,10,2,2,1.0,0.298245614035088,2,0.694444444444444,1.0,2,0.25,0.298245614035088,ReadingArea_rsl2-rcl100-esl29-rsm2-rcm69-esm100-rsr2-rcr25-esr29,exr/ReadingArea_rsl2-rcl100-esl29-rsm2-rcm69-esm100-rsr2-rcr25-esr29.exr,ReadingArea_rsl2-rcl100-esl29-rsm2-rcm69-esm100-rsr2-rcr25-esr29.npz,,,,,0,169,169,489,,,left,green,0.69,829.4160249233246,829.8515310287476,3,,1,10,brightness,readingArea,realistic,75,2023-04-01_14h15.04.585,tripletExp_regina_11082022,2022.2.4,120.3368268841792,
3,7,0,2,0.444444444444444,0.298245614035088,2,0.111111111111111,1.0,2,0.027777777777778,0.298245614035088,ReadingArea_rsl2-rcl44-esl29-rsm2-rcm11-esm100-rsr2-rcr2-esr29,exr/ReadingArea_rsl2-rcl44-esl29-rsm2-rcm11-esm100-rsr2-rcr2-esr29.exr,ReadingArea_rsl2-rcl44-esl29-rsm2-rcm11-esm100-rsr2-rcr2-esr29.npz,,,,,0,170,170,327,,,left,green,0.66,831.5473809242249,831.9849088191986,3,,1,10,brightness,readingArea,realistic,75,2023-04-01_14h15.04.585,tripletExp_regina_11082022,2022.2.4,120.3368268841792,
2,0,3,2,0.25,0.298245614035088,2,0.027777777777778,0.298245614035088,2,0.444444444444444,0.298245614035088,ReadingArea_rsl2-rcl25-esl29-rsm2-rcm2-esm29-rsr2-rcr44-esr29,exr/ReadingArea_rsl2-rcl25-esl29-rsm2-rcm2-esm29-rsr2-rcr44-esr29.exr,ReadingArea_rsl2-rcl25-esl29-rsm2-rcm2-esm29-rsr2-rcr44-esr29.npz,,,,,0,171,171,338,,,left,green,0.68,833.68519282341,834.1205499172211,3,,1,10,brightness,readingArea,realistic,75,2023-04-01_14h15.04.585,tripletExp_regina_11082022,2022.2.4,120.3368268841792,
8,6,13,2,0.25,1.0,2,0.027777777777778,1.0,2,0.111111111111111,3.10526315789474,ReadingArea_rsl2-rcl25-esl100-rsm2-rcm2-esm100-rsr2-rcr11-esr310,exr/ReadingArea_rsl2-rcl25-esl100-rsm2-rcm2-esm100-rsr2-rcr11-esr310.exr,ReadingArea_rsl2-rcl25-esl100-rsm2-rcm2-esm100-rsr2-rcr11-esr310.npz,,,,,0,172,172,440,,,left,green,1.04,835.8234310150146,836.2660508155823,3,,1,10,brightness,readingArea,realistic,75,2023-04-01_14h15.04.585,tripletExp_regina_11082022,2022.2.4,120.3368268841792,
10,7,2,2,0.694444444444444,1.0,2,0.111111111111111,1.0,2,0.25,0.298245614035088,ReadingArea_rsl2-rcl69-esl100-rsm2-rcm11-esm100-rsr2-rcr25-esr29,exr/ReadingArea_rsl2-rcl69-esl100-rsm2-rcm11-esm100-rsr2-rcr25-esr29.exr,ReadingArea_rsl2-rcl69-esl100-rsm2-rcm11-esm100-rsr2-rcr25-esr29.npz,,,,,0,173,173,523,,,right,red,0.53,837.9550378322601,838.395665884018,3,,1,10,brightness,readingArea,realistic,75,2023-04-01_14h15.04.585,tripletExp_regina_11082022,2022.2.4,120.3368268841792,
6,12,7,2,0.027777777777778,1.0,2,0.027777777777778,3.10526315789474,2,0.111111111111111,1.0,ReadingArea_rsl2-rcl2-esl100-rsm2-rcm2-esm310-rsr2-rcr11-esr100,exr/ReadingArea_rsl2-rcl2-esl100-rsm2-rcm2-esm310-rsr2-rcr11-esr100.exr,ReadingArea_rsl2-rcl2-esl100-rsm2-rcm2-esm310-rsr2-rcr11-esr100.npz,,,,,0,174,174,157,,,left,green,0.72,840.0956528186798,,3,,1,10,brightness,readingArea,realistic,75,2023-04-01_14h15.04.585,tripletExp_regina_11082022,2022.2.4,120.3368268841792,
7,10,5,2,0.111111111111111,1.0,2,0.694444444444444,1.0,2,1.0,0.298245614035088,ReadingArea_rsl2-rcl11-esl100-rsm2-rcm69-esm100-rsr2-rcr100-esr29,exr/ReadingArea_rsl2-rcl11-esl100-rsm2-rcm69-esm100-rsr2-rcr100-esr29.exr,ReadingArea_rsl2-rcl11-esl100-rsm2-rcm69-esm100-rsr2-rcr100-esr29.npz,,,,,0,175,175,395,,,right,red,0.58,842.2477369308472,842.6902208328247,3,,1,10,brightness,readingArea,realistic,75,2023-04-01_14h15.04.585,tripletExp_regina_11082022,2022.2.4,120.3368268841792,
5,2,7,2,1.0,0.298245614035088,2,0.25,0.298245614035088,2,0.111111111111111,1.0,ReadingArea_rsl2-rcl100-esl29-rsm2-rcm25-esm29-rsr2-rcr11-esr100,exr/ReadingArea_rsl2-rcl100-esl29-rsm2-rcm25-esm29-rsr2-rcr11-esr100.exr,ReadingArea_rsl2-rcl100-esl29-rsm2-rcm25-esm29-rsr2-rcr11-esr100.npz,,,,,0,176,176,179,,,right,red,0.51,844.4140818119049,844.8543338775635,3,,1,10,brightness,readingArea,realistic,75,2023-04-01_14h15.04.585,tripletExp_regina_11082022,2022.2.4,120.3368268841792,
3,14,5,2,0.444444444444444,0.298245614035088,2,0.25,3.10526315789474,2,1.0,0.298245614035088,ReadingArea_rsl2-rcl44-esl29-rsm2-rcm25-esm310-rsr2-rcr100-esr29,exr/ReadingArea_rsl2-rcl44-esl29-rsm2-rcm25-esm310-rsr2-rcr100-esr29.exr,ReadingArea_rsl2-rcl44-esl29-rsm2-rcm25-esm310-rsr2-rcr100-esr29.npz,,,,,0,177,177,131,,,right,red,0.7,846.5428259372711,846.9857950210571,3,,1,10,brightness,readingArea,realistic,75,2023-04-01_14h15.04.585,tripletExp_regina_11082022,2022.2.4,120.3368268841792,
0,13,1,2,0.027777777777778,0.298245614035088,2,0.111111111111111,3.10526315789474,2,0.111111111111111,0.298245614035088,ReadingArea_rsl2-rcl2-esl29-rsm2-rcm11-esm310-rsr2-rcr11-esr29,exr/ReadingArea_rsl2-rcl2-esl29-rsm2-rcm11-esm310-rsr2-rcr11-esr29.exr,ReadingArea_rsl2-rcl2-esl29-rsm2-rcm11-esm310-rsr2-rcr11-esr29.npz,,,,,0,178,178,458,,,right,red,0.62,848.682667016983,849.1255888938904,3,,1,10,brightness,readingArea,realistic,75,2023-04-01_14h15.04.585,tripletExp_regina_11082022,2022.2.4,120.3368268841792,
5,3,10,2,1.0,0.298245614035088,2,0.444444444444444,0.298245614035088,2,0.694444444444444,1.0,ReadingArea_rsl2-rcl100-esl29-rsm2-rcm44-esm29-rsr2-rcr69-esr100,exr/ReadingArea_rsl2-rcl100-esl29-rsm2-rcm44-esm29-rsr2-rcr69-esr100.exr,ReadingArea_rsl2-rcl100-esl29-rsm2-rcm44-esm29-rsr2-rcr69-esr100.npz,,,,,0,179,179,546,,,left,green,0.96,850.8252568244934,851.2667689323425,3,,1,10,brightness,readingArea,realistic,75,2023-04-01_14h15.04.585,tripletExp_regina_11082022,2022.2.4,120.3368268841792,
0,1,6,2,0.027777777777778,0.298245614035088,2,0.111111111111111,0.298245614035088,2,0.027777777777778,1.0,ReadingArea_rsl2-rcl2-esl29-rsm2-rcm11-esm29-rsr2-rcr2-esr100,exr/ReadingArea_rsl2-rcl2-esl29-rsm2-rcm11-esm29-rsr2-rcr2-esr100.exr,ReadingArea_rsl2-rcl2-esl29-rsm2-rcm11-esm29-rsr2-rcr2-esr100.npz,,,,,0,180,180,375,,,right,red,2.06,854.7349648475647,855.1745598316193,3,,1,10,brightness,readingArea,realistic,75,2023-04-01_14h15.04.585,tripletExp_regina_11082022,2022.2.4,120.3368268841792,
7,10,4,2,0.111111111111111,1.0,2,0.694444444444444,1.0,2,0.694444444444444,0.298245614035088,ReadingArea_rsl2-rcl11-esl100-rsm2-rcm69-esm100-rsr2-rcr69-esr29,exr/ReadingArea_rsl2-rcl11-esl100-rsm2-rcm69-esm100-rsr2-rcr69-esr29.exr,ReadingArea_rsl2-rcl11-esl100-rsm2-rcm69-esm100-rsr2-rcr69-esr29.npz,,,,,0,181,181,46,,,right,red,0.51,856.8691039085388,857.3065948486328,3,,1,10,brightness,readingArea,realistic,75,2023-04-01_14h15.04.585,tripletExp_regina_11082022,2022.2.4,120.3368268841792,
13,0,10,2,0.111111111111111,3.10526315789474,2,0.027777777777778,0.298245614035088,2,0.694444444444444,1.0,ReadingArea_rsl2-rcl11-esl310-rsm2-rcm2-esm29-rsr2-rcr69-esr100,exr/ReadingArea_rsl2-rcl11-esl310-rsm2-rcm2-esm29-rsr2-rcr69-esr100.exr,ReadingArea_rsl2-rcl11-esl310-rsm2-rcm2-esm29-rsr2-rcr69-esr100.npz,,,,,0,182,182,505,,,left,green,0.85,859.00865483284,859.4505598545074,3,,1,10,brightness,readingArea,realistic,75,2023-04-01_14h15.04.585,tripletExp_regina_11082022,2022.2.4,120.3368268841792,
2,14,8,2,0.25,0.298245614035088,2,0.25,3.10526315789474,2,0.25,1.0,ReadingArea_rsl2-rcl25-esl29-rsm2-rcm25-esm310-rsr2-rcr25-esr100,exr/ReadingArea_rsl2-rcl25-esl29-rsm2-rcm25-esm310-rsr2-rcr25-esr100.exr,ReadingArea_rsl2-rcl25-esl29-rsm2-rcm25-esm310-rsr2-rcr25-esr100.npz,,,,,0,183,183,255,,,right,red,0.73,861.1426289081573,861.5864968299866,3,,1,10,brightness,readingArea,realistic,75,2023-04-01_14h15.04.585,tripletExp_regina_11082022,2022.2.4,120.3368268841792,
2,6,12,2,0.25,0.298245614035088,2,0.027777777777778,1.0,2,0.027777777777778,3.10526315789474,ReadingArea_rsl2-rcl25-esl29-rsm2-rcm2-esm100-rsr2-rcr2-esr310,exr/ReadingArea_rsl2-rcl25-esl29-rsm2-rcm2-esm100-rsr2-rcr2-esr310.exr,ReadingArea_rsl2-rcl25-esl29-rsm2-rcm2-esm100-rsr2-rcr2-esr310.npz,,,,,0,184,184,97,,,right,red,0.57,863.2769968509674,863.720016002655,3,,1,10,brightness,readingArea,realistic,75,2023-04-01_14h15.04.585,tripletExp_regina_11082022,2022.2.4,120.3368268841792,
13,11,10,2,0.111111111111111,3.10526315789474,2,1.0,1.0,2,0.694444444444444,1.0,ReadingArea_rsl2-rcl11-esl310-rsm2-rcm100-esm100-rsr2-rcr69-esr100,exr/ReadingArea_rsl2-rcl11-esl310-rsm2-rcm100-esm100-rsr2-rcr69-esr100.exr,ReadingArea_rsl2-rcl11-esl310-rsm2-rcm100-esm100-rsr2-rcr69-esr100.npz,,,,,0,185,185,577,,,right,red,0.53,865.4149489402771,865.8500950336456,3,,1,10,brightness,readingArea,realistic,75,2023-04-01_14h15.04.585,tripletExp_regina_11082022,2022.2.4,120.3368268841792,
13,3,14,2,0.111111111111111,3.10526315789474,2,0.444444444444444,0.298245614035088,2,0.25,3.10526315789474,ReadingArea_rsl2-rcl11-esl310-rsm2-rcm44-esm29-rsr2-rcr25-esr310,exr/ReadingArea_rsl2-rcl11-esl310-rsm2-rcm44-esm29-rsr2-rcr25-esr310.exr,ReadingArea_rsl2-rcl11-esl310-rsm2-rcm44-esm29-rsr2-rcr25-esr310.npz,,,,,0,186,186,38,,,left,green,0.84,867.5418019294739,867.9817090034485,3,,1,10,brightness,readingArea,realistic,75,2023-04-01_14h15.04.585,tripletExp_regina_11082022,2022.2.4,120.3368268841792,
5,14,8,2,1.0,0.298245614035088,2,0.25,3.10526315789474,2,0.25,1.0,ReadingArea_rsl2-rcl100-esl29-rsm2-rcm25-esm310-rsr2-rcr25-esr100,exr/ReadingArea_rsl2-rcl100-esl29-rsm2-rcm25-esm310-rsr2-rcr25-esr100.exr,ReadingArea_rsl2-rcl100-esl29-rsm2-rcm25-esm310-rsr2-rcr25-esr100.npz,,,,,0,187,187,14,,,left,green,0.69,869.6853938102722,870.1269288063049,3,,1,10,brightness,readingArea,realistic,75,2023-04-01_14h15.04.585,tripletExp_regina_11082022,2022.2.4,120.3368268841792,
6,0,11,2,0.027777777777778,1.0,2,0.027777777777778,0.298245614035088,2,1.0,1.0,ReadingArea_rsl2-rcl2-esl100-rsm2-rcm2-esm29-rsr2-rcr100-esr100,exr/ReadingArea_rsl2-rcl2-esl100-rsm2-rcm2-esm29-rsr2-rcr100-esr100.exr,ReadingArea_rsl2-rcl2-esl100-rsm2-rcm2-esm29-rsr2-rcr100-esr100.npz,,,,,0,188,188,245,,,left,green,0.49,871.8503549098969,,3,,1,10,brightness,readingArea,realistic,75,2023-04-01_14h15.04.585,tripletExp_regina_11082022,2022.2.4,120.3368268841792,
10,11,12,2,0.694444444444444,1.0,2,1.0,1.0,2,0.027777777777778,3.10526315789474,ReadingArea_rsl2-rcl69-esl100-rsm2-rcm100-esm100-rsr2-rcr2-esr310,exr/ReadingArea_rsl2-rcl69-esl100-rsm2-rcm100-esm100-rsr2-rcr2-esr310.exr,ReadingArea_rsl2-rcl69-esl100-rsm2-rcm100-esm100-rsr2-rcr2-esr310.npz,,,,,0,189,189,533,,,left,green,0.5,874.0118570327759,874.4554798603058,3,,1,10,brightness,readingArea,realistic,75,2023-04-01_14h15.04.585,tripletExp_regina_11082022,2022.2.4,120.3368268841792,
0,5,12,2,0.027777777777778,0.298245614035088,2,1.0,0.298245614035088,2,0.027777777777778,3.10526315789474,ReadingArea_rsl2-rcl2-esl29-rsm2-rcm100-esm29-rsr2-rcr2-esr310,exr/ReadingArea_rsl2-rcl2-esl29-rsm2-rcm100-esm29-rsr2-rcr2-esr310.exr,ReadingArea_rsl2-rcl2-esl29-rsm2-rcm100-esm29-rsr2-rcr2-esr310.npz,,,,,0,190,190,366,,,right,red,0.56,876.1506810188293,,3,,1,10,brightness,readingArea,realistic,75,2023-04-01_14h15.04.585,tripletExp_regina_11082022,2022.2.4,120.3368268841792,
10,0,11,2,0.694444444444444,1.0,2,0.027777777777778,0.298245614035088,2,1.0,1.0,ReadingArea_rsl2-rcl69-esl100-rsm2-rcm2-esm29-rsr2-rcr100-esr100,exr/ReadingArea_rsl2-rcl69-esl100-rsm2-rcm2-esm29-rsr2-rcr100-esr100.exr,ReadingArea_rsl2-rcl69-esl100-rsm2-rcm2-esm29-rsr2-rcr100-esr100.npz,,,,,0,191,191,573,,,left,green,1.3,878.3012018203735,,3,,1,10,brightness,readingArea,realistic,75,2023-04-01_14h15.04.585,tripletExp_regina_11082022,2022.2.4,120.3368268841792,
5,2,0,2,1.0,0.298245614035088,2,0.25,0.298245614035088,2,0.027777777777778,0.298245614035088,ReadingArea_rsl2-rcl100-esl29-rsm2-rcm25-esm29-rsr2-rcr2-esr29,exr/ReadingArea_rsl2-rcl100-esl29-rsm2-rcm25-esm29-rsr2-rcr2-esr29.exr,ReadingArea_rsl2-rcl100-esl29-rsm2-rcm25-esm29-rsr2-rcr2-esr29.npz,,,,,0,192,192,476,,,right,red,0.64,880.4432408809662,,3,,1,10,brightness,readingArea,realistic,75,2023-04-01_14h15.04.585,tripletExp_regina_11082022,2022.2.4,120.3368268841792,
4,10,11,2,0.694444444444444,0.298245614035088,2,0.694444444444444,1.0,2,1.0,1.0,ReadingArea_rsl2-rcl69-esl29-rsm2-rcm69-esm100-rsr2-rcr100-esr100,exr/ReadingArea_rsl2-rcl69-esl29-rsm2-rcm69-esm100-rsr2-rcr100-esr100.exr,ReadingArea_rsl2-rcl69-esl29-rsm2-rcm69-esm100-rsr2-rcr100-esr100.npz,,,,,0,193,193,180,,,right,red,0.64,882.584095954895,883.023365020752,3,,1,10,brightness,readingArea,realistic,75,2023-04-01_14h15.04.585,tripletExp_regina_11082022,2022.2.4,120.3368268841792,
4,2,13,2,0.694444444444444,0.298245614035088,2,0.25,0.298245614035088,2,0.111111111111111,3.10526315789474,ReadingArea_rsl2-rcl69-esl29-rsm2-rcm25-esm29-rsr2-rcr11-esr310,exr/ReadingArea_rsl2-rcl69-esl29-rsm2-rcm25-esm29-rsr2-rcr11-esr310.exr,ReadingArea_rsl2-rcl69-esl29-rsm2-rcm25-esm29-rsr2-rcr11-esr310.npz,,,,,0,194,194,304,,,right,red,0.79,884.7180879116058,885.1519079208374,3,,1,10,brightness,readingArea,realistic,75,2023-04-01_14h15.04.585,tripletExp_regina_11082022,2022.2.4,120.3368268841792,
3,6,4,2,0.444444444444444,0.298245614035088,2,0.027777777777778,1.0,2,0.694444444444444,0.298245614035088,ReadingArea_rsl2-rcl44-esl29-rsm2-rcm2-esm100-rsr2-rcr69-esr29,exr/ReadingArea_rsl2-rcl44-esl29-rsm2-rcm2-esm100-rsr2-rcr69-esr29.exr,ReadingArea_rsl2-rcl44-esl29-rsm2-rcm2-esm100-rsr2-rcr69-esr29.npz,,,,,0,195,195,154,,,left,green,0.77,886.8415758609772,887.2793009281158,3,,1,10,brightness,readingArea,realistic,75,2023-04-01_14h15.04.585,tripletExp_regina_11082022,2022.2.4,120.3368268841792,
12,6,3,2,0.027777777777778,3.10526315789474,2,0.027777777777778,1.0,2,0.444444444444444,0.298245614035088,ReadingArea_rsl2-rcl2-esl310-rsm2-rcm2-esm100-rsr2-rcr44-esr29,exr/ReadingArea_rsl2-rcl2-esl310-rsm2-rcm2-esm100-rsr2-rcr44-esr29.exr,ReadingArea_rsl2-rcl2-esl310-rsm2-rcm2-esm100-rsr2-rcr44-esr29.npz,,,,,0,196,196,139,,,left,green,0.6,888.9677958488464,889.403196811676,3,,1,10,brightness,readingArea,realistic,75,2023-04-01_14h15.04.585,tripletExp_regina_11082022,2022.2.4,120.3368268841792,
3,7,8,2,0.444444444444444,0.298245614035088,2,0.111111111111111,1.0,2,0.25,1.0,ReadingArea_rsl2-rcl44-esl29-rsm2-rcm11-esm100-rsr2-rcr25-esr100,exr/ReadingArea_rsl2-rcl44-esl29-rsm2-rcm11-esm100-rsr2-rcr25-esr100.exr,ReadingArea_rsl2-rcl44-esl29-rsm2-rcm11-esm100-rsr2-rcr25-esr100.npz,,,,,0,197,197,246,,,right,red,0.94,891.1034739017487,,3,,1,10,brightness,readingArea,realistic,75,2023-04-01_14h15.04.585,tripletExp_regina_11082022,2022.2.4,120.3368268841792,
2,11,8,2,0.25,0.298245614035088,2,1.0,1.0,2,0.25,1.0,ReadingArea_rsl2-rcl25-esl29-rsm2-rcm100-esm100-rsr2-rcr25-esr100,exr/ReadingArea_rsl2-rcl25-esl29-rsm2-rcm100-esm100-rsr2-rcr25-esr100.exr,ReadingArea_rsl2-rcl25-esl29-rsm2-rcm100-esm100-rsr2-rcr25-esr100.npz,,,,,0,198,198,364,,,right,red,0.72,893.2387309074402,893.6756069660187,3,,1,10,brightness,readingArea,realistic,75,2023-04-01_14h15.04.585,tripletExp_regina_11082022,2022.2.4,120.3368268841792,
5,3,0,2,1.0,0.298245614035088,2,0.444444444444444,0.298245614035088,2,0.027777777777778,0.298245614035088,ReadingArea_rsl2-rcl100-esl29-rsm2-rcm44-esm29-rsr2-rcr2-esr29,exr/ReadingArea_rsl2-rcl100-esl29-rsm2-rcm44-esm29-rsr2-rcr2-esr29.exr,ReadingArea_rsl2-rcl100-esl29-rsm2-rcm44-esm29-rsr2-rcr2-esr29.npz,,,,,0,199,199,303,,,right,red,1.33,895.3842480182648,895.817214012146,3,,1,10,brightness,readingArea,realistic,75,2023-04-01_14h15.04.585,tripletExp_regina_11082022,2022.2.4,120.3368268841792,
14,10,13,2,0.25,3.10526315789474,2,0.694444444444444,1.0,2,0.111111111111111,3.10526315789474,ReadingArea_rsl2-rcl25-esl310-rsm2-rcm69-esm100-rsr2-rcr11-esr310,exr/ReadingArea_rsl2-rcl25-esl310-rsm2-rcm69-esm100-rsr2-rcr11-esr310.exr,ReadingArea_rsl2-rcl25-esl310-rsm2-rcm69-esm100-rsr2-rcr11-esr310.npz,,,,,0,200,200,204,,,left,green,0.59,897.5243098735809,897.9620048999786,3,,1,10,brightness,readingArea,realistic,75,2023-04-01_14h15.04.585,tripletExp_regina_11082022,2022.2.4,120.3368268841792,
0,14,10,2,0.027777777777778,0.298245614035088,2,0.25,3.10526315789474,2,0.694444444444444,1.0,ReadingArea_rsl2-rcl2-esl29-rsm2-rcm25-esm310-rsr2-rcr69-esr100,exr/ReadingArea_rsl2-rcl2-esl29-rsm2-rcm25-esm310-rsr2-rcr69-esr100.exr,ReadingArea_rsl2-rcl2-esl29-rsm2-rcm25-esm310-rsr2-rcr69-esr100.npz,,,,,0,201,201,128,,,right,red,0.51,899.6849210262299,900.1188929080963,3,,1,10,brightness,readingArea,realistic,75,2023-04-01_14h15.04.585,tripletExp_regina_11082022,2022.2.4,120.3368268841792,
11,7,13,2,1.0,1.0,2,0.111111111111111,1.0,2,0.111111111111111,3.10526315789474,ReadingArea_rsl2-rcl100-esl100-rsm2-rcm11-esm100-rsr2-rcr11-esr310,exr/ReadingArea_rsl2-rcl100-esl100-rsm2-rcm11-esm100-rsr2-rcr11-esr310.exr,ReadingArea_rsl2-rcl100-esl100-rsm2-rcm11-esm100-rsr2-rcr11-esr310.npz,,,,,0,202,202,431,,,right,red,0.6,901.8405129909517,902.282634973526,3,,1,10,brightness,readingArea,realistic,75,2023-04-01_14h15.04.585,tripletExp_regina_11082022,2022.2.4,120.3368268841792,
