index_left,index_middle,index_right,reflectance_surround_left,reflectance_center_left,emission_spot_left,reflectance_surround_middle,reflectance_center_middle,emission_spot_middle,reflectance_surround_right,reflectance_center_right,emission_spot_right,ImageName,ImageExr,ImageNpy,trials_2.thisRepN,trials_2.thisTrialN,trials_2.thisN,trials_2.thisIndex,trials.thisRepN,trials.thisTrialN,trials.thisN,trials.thisIndex,sound_1.started,BB_Trial.resp,BB_Trial.color,BB_Trial.rt,text.started,text.stopped,sound_2.started,sound_1.stopped,block,participant,session,L/B,scene,condition,nTrialsPerBlock,date,expName,psychopyVersion,frameRate,Unnamed: 42
13,9,8,0,0.111111111111111,3.10526315789474,0,0.444444444444444,1.0,0,0.25,1.0,ReadingArea_rsl0-rcl11-esl310-rsm0-rcm44-esm100-rsr0-rcr25-esr100,exr/ReadingArea_rsl0-rcl11-esl310-rsm0-rcm44-esm100-rsr0-rcr25-esr100.exr,ReadingArea_rsl0-rcl11-esl310-rsm0-rcm44-esm100-rsr0-rcr25-esr100.npz,,,,,0,0,0,217,109.57473723888396,left,green,1.66,125.75627994537354,126.1225528717041,101.4071673631668,95.60733199119568,1,AS,1,lightness,readingArea,mean,72,2023-03-10_14h13.04.417,tripletExp_regina_11082022,2022.2.4,120.20646270688545,
11,2,10,0,1.0,1.0,0,0.25,0.298245614035088,0,0.694444444444444,1.0,ReadingArea_rsl0-rcl100-esl100-rsm0-rcm25-esm29-rsr0-rcr69-esr100,exr/ReadingArea_rsl0-rcl100-esl100-rsm0-rcm25-esm29-rsr0-rcr69-esr100.exr,ReadingArea_rsl0-rcl100-esl100-rsm0-rcm25-esm29-rsr0-rcr69-esr100.npz,,,,,0,1,1,431,,left,green,1.18,127.8334379196167,128.7184031009674,,,1,AS,1,lightness,readingArea,mean,72,2023-03-10_14h13.04.417,tripletExp_regina_11082022,2022.2.4,120.20646270688545,
13,7,3,0,0.111111111111111,3.10526315789474,0,0.111111111111111,1.0,0,0.444444444444444,0.298245614035088,ReadingArea_rsl0-rcl11-esl310-rsm0-rcm11-esm100-rsr0-rcr44-esr29,exr/ReadingArea_rsl0-rcl11-esl310-rsm0-rcm11-esm100-rsr0-rcr44-esr29.exr,ReadingArea_rsl0-rcl11-esl310-rsm0-rcm11-esm100-rsr0-rcr44-esr29.npz,,,,,0,2,2,196,,right,red,0.73,130.4258840084076,130.7634038925171,,,1,AS,1,lightness,readingArea,mean,72,2023-03-10_14h13.04.417,tripletExp_regina_11082022,2022.2.4,120.20646270688545,
5,9,11,0,1.0,0.298245614035088,0,0.444444444444444,1.0,0,1.0,1.0,ReadingArea_rsl0-rcl100-esl29-rsm0-rcm44-esm100-rsr0-rcr100-esr100,exr/ReadingArea_rsl0-rcl100-esl29-rsm0-rcm44-esm100-rsr0-rcr100-esr100.exr,ReadingArea_rsl0-rcl100-esl29-rsm0-rcm44-esm100-rsr0-rcr100-esr100.npz,,,,,0,3,3,236,,right,red,1.1,132.47949409484863,132.82644510269165,,,1,AS,1,lightness,readingArea,mean,72,2023-03-10_14h13.04.417,tripletExp_regina_11082022,2022.2.4,120.20646270688545,
10,0,13,0,0.694444444444444,1.0,0,0.027777777777778,0.298245614035088,0,0.111111111111111,3.10526315789474,ReadingArea_rsl0-rcl69-esl100-rsm0-rcm2-esm29-rsr0-rcr11-esr310,exr/ReadingArea_rsl0-rcl69-esl100-rsm0-rcm2-esm29-rsr0-rcr11-esr310.exr,ReadingArea_rsl0-rcl69-esl100-rsm0-rcm2-esm29-rsr0-rcr11-esr310.npz,,,,,0,4,4,86,,right,red,1.2,134.53386092185974,135.0569999217987,,,1,AS,1,lightness,readingArea,mean,72,2023-03-10_14h13.04.417,tripletExp_regina_11082022,2022.2.4,120.20646270688545,
5,11,10,0,1.0,0.298245614035088,0,1.0,1.0,0,0.694444444444444,1.0,ReadingArea_rsl0-rcl100-esl29-rsm0-rcm100-esm100-rsr0-rcr69-esr100,exr/ReadingArea_rsl0-rcl100-esl29-rsm0-rcm100-esm100-rsr0-rcr69-esr100.exr,ReadingArea_rsl0-rcl100-esl29-rsm0-rcm100-esm100-rsr0-rcr69-esr100.npz,,,,,0,5,5,186,,right,red,1.02,136.74593901634216,137.15555906295776,,,1,AS,1,lightness,readingArea,mean,72,2023-03-10_14h13.04.417,tripletExp_regina_11082022,2022.2.4,120.20646270688545,
3,4,1,0,0.444444444444444,0.298245614035088,0,0.694444444444444,0.298245614035088,0,0.111111111111111,0.298245614035088,ReadingArea_rsl0-rcl44-esl29-rsm0-rcm69-esm29-rsr0-rcr11-esr29,exr/ReadingArea_rsl0-rcl44-esl29-rsm0-rcm69-esm29-rsr0-rcr11-esr29.exr,ReadingArea_rsl0-rcl44-esl29-rsm0-rcm69-esm29-rsr0-rcr11-esr29.npz,,,,,0,6,6,230,,left,green,1.17,138.84168791770935,139.17771196365356,,,1,AS,1,lightness,readingArea,mean,72,2023-03-10_14h13.04.417,tripletExp_regina_11082022,2022.2.4,120.20646270688545,
10,12,5,0,0.694444444444444,1.0,0,0.027777777777778,3.10526315789474,0,1.0,0.298245614035088,ReadingArea_rsl0-rcl69-esl100-rsm0-rcm2-esm310-rsr0-rcr100-esr29,exr/ReadingArea_rsl0-rcl69-esl100-rsm0-rcm2-esm310-rsr0-rcr100-esr29.exr,ReadingArea_rsl0-rcl69-esl100-rsm0-rcm2-esm310-rsr0-rcr100-esr29.npz,,,,,0,7,7,261,,right,red,1.08,140.86516308784485,,,,1,AS,1,lightness,readingArea,mean,72,2023-03-10_14h13.04.417,tripletExp_regina_11082022,2022.2.4,120.20646270688545,
13,3,6,0,0.111111111111111,3.10526315789474,0,0.444444444444444,0.298245614035088,0,0.027777777777778,1.0,ReadingArea_rsl0-rcl11-esl310-rsm0-rcm44-esm29-rsr0-rcr2-esr100,exr/ReadingArea_rsl0-rcl11-esl310-rsm0-rcm44-esm29-rsr0-rcr2-esr100.exr,ReadingArea_rsl0-rcl11-esl310-rsm0-rcm44-esm29-rsr0-rcr2-esr100.npz,,,,,0,8,8,133,,right,red,1.14,142.9092960357666,143.24947905540466,,,1,AS,1,lightness,readingArea,mean,72,2023-03-10_14h13.04.417,tripletExp_regina_11082022,2022.2.4,120.20646270688545,
10,5,7,0,0.694444444444444,1.0,0,1.0,0.298245614035088,0,0.111111111111111,1.0,ReadingArea_rsl0-rcl69-esl100-rsm0-rcm100-esm29-rsr0-rcr11-esr100,exr/ReadingArea_rsl0-rcl69-esl100-rsm0-rcm100-esm29-rsr0-rcr11-esr100.exr,ReadingArea_rsl0-rcl69-esl100-rsm0-rcm100-esm29-rsr0-rcr11-esr100.npz,,,,,0,9,9,318,,right,red,1.32,144.9424750804901,145.36661195755005,,,1,AS,1,lightness,readingArea,mean,72,2023-03-10_14h13.04.417,tripletExp_regina_11082022,2022.2.4,120.20646270688545,
2,0,14,0,0.25,0.298245614035088,0,0.027777777777778,0.298245614035088,0,0.25,3.10526315789474,ReadingArea_rsl0-rcl25-esl29-rsm0-rcm2-esm29-rsr0-rcr25-esr310,exr/ReadingArea_rsl0-rcl25-esl29-rsm0-rcm2-esm29-rsr0-rcr25-esr310.exr,ReadingArea_rsl0-rcl25-esl29-rsm0-rcm2-esm29-rsr0-rcr25-esr310.npz,,,,,0,10,10,362,,left,green,0.92,147.08744597434998,147.41611790657043,,,1,AS,1,lightness,readingArea,mean,72,2023-03-10_14h13.04.417,tripletExp_regina_11082022,2022.2.4,120.20646270688545,
2,3,1,0,0.25,0.298245614035088,0,0.444444444444444,0.298245614035088,0,0.111111111111111,0.298245614035088,ReadingArea_rsl0-rcl25-esl29-rsm0-rcm44-esm29-rsr0-rcr11-esr29,exr/ReadingArea_rsl0-rcl25-esl29-rsm0-rcm44-esm29-rsr0-rcr11-esr29.exr,ReadingArea_rsl0-rcl25-esl29-rsm0-rcm44-esm29-rsr0-rcr11-esr29.npz,,,,,0,11,11,316,,left,green,0.94,149.11667704582214,149.46331596374512,,,1,AS,1,lightness,readingArea,mean,72,2023-03-10_14h13.04.417,tripletExp_regina_11082022,2022.2.4,120.20646270688545,
5,6,3,0,1.0,0.298245614035088,0,0.027777777777778,1.0,0,0.444444444444444,0.298245614035088,ReadingArea_rsl0-rcl100-esl29-rsm0-rcm2-esm100-rsr0-rcr44-esr29,exr/ReadingArea_rsl0-rcl100-esl29-rsm0-rcm2-esm100-rsr0-rcr44-esr29.exr,ReadingArea_rsl0-rcl100-esl29-rsm0-rcm2-esm100-rsr0-rcr44-esr29.npz,,,,,0,12,12,360,,left,green,1.25,151.16544699668884,151.48836588859558,,,1,AS,1,lightness,readingArea,mean,72,2023-03-10_14h13.04.417,tripletExp_regina_11082022,2022.2.4,120.20646270688545,
3,4,6,0,0.444444444444444,0.298245614035088,0,0.694444444444444,0.298245614035088,0,0.027777777777778,1.0,ReadingArea_rsl0-rcl44-esl29-rsm0-rcm69-esm29-rsr0-rcr2-esr100,exr/ReadingArea_rsl0-rcl44-esl29-rsm0-rcm69-esm29-rsr0-rcr2-esr100.exr,ReadingArea_rsl0-rcl44-esl29-rsm0-rcm69-esm29-rsr0-rcr2-esr100.npz,,,,,0,13,13,81,,left,green,1.17,153.19674587249756,153.52961707115173,,,1,AS,1,lightness,readingArea,mean,72,2023-03-10_14h13.04.417,tripletExp_regina_11082022,2022.2.4,120.20646270688545,
11,8,13,0,1.0,1.0,0,0.25,1.0,0,0.111111111111111,3.10526315789474,ReadingArea_rsl0-rcl100-esl100-rsm0-rcm25-esm100-rsr0-rcr11-esr310,exr/ReadingArea_rsl0-rcl100-esl100-rsm0-rcm25-esm100-rsr0-rcr11-esr310.exr,ReadingArea_rsl0-rcl100-esl100-rsm0-rcm25-esm100-rsr0-rcr11-esr310.npz,,,,,0,14,14,66,,right,red,1.17,155.2470998764038,155.5727560520172,,,1,AS,1,lightness,readingArea,mean,72,2023-03-10_14h13.04.417,tripletExp_regina_11082022,2022.2.4,120.20646270688545,
7,11,13,0,0.111111111111111,1.0,0,1.0,1.0,0,0.111111111111111,3.10526315789474,ReadingArea_rsl0-rcl11-esl100-rsm0-rcm100-esm100-rsr0-rcr11-esr310,exr/ReadingArea_rsl0-rcl11-esl100-rsm0-rcm100-esm100-rsr0-rcr11-esr310.exr,ReadingArea_rsl0-rcl11-esl100-rsm0-rcm100-esm100-rsr0-rcr11-esr310.npz,,,,,0,15,15,31,,left,green,1.25,157.29640793800354,157.61380410194397,,,1,AS,1,lightness,readingArea,mean,72,2023-03-10_14h13.04.417,tripletExp_regina_11082022,2022.2.4,120.20646270688545,
13,12,2,0,0.111111111111111,3.10526315789474,0,0.027777777777778,3.10526315789474,0,0.25,0.298245614035088,ReadingArea_rsl0-rcl11-esl310-rsm0-rcm2-esm310-rsr0-rcr25-esr29,exr/ReadingArea_rsl0-rcl11-esl310-rsm0-rcm2-esm310-rsr0-rcr25-esr29.exr,ReadingArea_rsl0-rcl11-esl310-rsm0-rcm2-esm310-rsr0-rcr25-esr29.npz,,,,,0,16,16,345,,right,red,0.99,159.33226108551025,159.66100597381592,,,1,AS,1,lightness,readingArea,mean,72,2023-03-10_14h13.04.417,tripletExp_regina_11082022,2022.2.4,120.20646270688545,
12,8,10,0,0.027777777777778,3.10526315789474,0,0.25,1.0,0,0.694444444444444,1.0,ReadingArea_rsl0-rcl2-esl310-rsm0-rcm25-esm100-rsr0-rcr69-esr100,exr/ReadingArea_rsl0-rcl2-esl310-rsm0-rcm25-esm100-rsr0-rcr69-esr100.exr,ReadingArea_rsl0-rcl2-esl310-rsm0-rcm25-esm100-rsr0-rcr69-esr100.npz,,,,,0,17,17,502,,right,red,1.07,161.3503758907318,161.77796602249146,,,1,AS,1,lightness,readingArea,mean,72,2023-03-10_14h13.04.417,tripletExp_regina_11082022,2022.2.4,120.20646270688545,
1,8,11,0,0.111111111111111,0.298245614035088,0,0.25,1.0,0,1.0,1.0,ReadingArea_rsl0-rcl11-esl29-rsm0-rcm25-esm100-rsr0-rcr100-esr100,exr/ReadingArea_rsl0-rcl11-esl29-rsm0-rcm25-esm100-rsr0-rcr100-esr100.exr,ReadingArea_rsl0-rcl11-esl29-rsm0-rcm25-esm100-rsr0-rcr100-esr100.npz,,,,,0,18,18,231,,left,green,1.09,163.49448108673096,163.82894086837769,,,1,AS,1,lightness,readingArea,mean,72,2023-03-10_14h13.04.417,tripletExp_regina_11082022,2022.2.4,120.20646270688545,
3,10,6,0,0.444444444444444,0.298245614035088,0,0.694444444444444,1.0,0,0.027777777777778,1.0,ReadingArea_rsl0-rcl44-esl29-rsm0-rcm69-esm100-rsr0-rcr2-esr100,exr/ReadingArea_rsl0-rcl44-esl29-rsm0-rcm69-esm100-rsr0-rcr2-esr100.exr,ReadingArea_rsl0-rcl44-esl29-rsm0-rcm69-esm100-rsr0-rcr2-esr100.npz,,,,,0,19,19,129,,left,green,0.99,165.53374791145325,165.86658000946045,,,1,AS,1,lightness,readingArea,mean,72,2023-03-10_14h13.04.417,tripletExp_regina_11082022,2022.2.4,120.20646270688545,
9,2,8,0,0.444444444444444,1.0,0,0.25,0.298245614035088,0,0.25,1.0,ReadingArea_rsl0-rcl44-esl100-rsm0-rcm25-esm29-rsr0-rcr25-esr100,exr/ReadingArea_rsl0-rcl44-esl100-rsm0-rcm25-esm29-rsr0-rcr25-esr100.exr,ReadingArea_rsl0-rcl44-esl100-rsm0-rcm25-esm29-rsr0-rcr25-esr100.npz,,,,,0,20,20,239,,right,red,0.87,167.59114289283752,167.92921996116638,,,1,AS,1,lightness,readingArea,mean,72,2023-03-10_14h13.04.417,tripletExp_regina_11082022,2022.2.4,120.20646270688545,
0,1,14,0,0.027777777777778,0.298245614035088,0,0.111111111111111,0.298245614035088,0,0.25,3.10526315789474,ReadingArea_rsl0-rcl2-esl29-rsm0-rcm11-esm29-rsr0-rcr25-esr310,exr/ReadingArea_rsl0-rcl2-esl29-rsm0-rcm11-esm29-rsr0-rcr25-esr310.exr,ReadingArea_rsl0-rcl2-esl29-rsm0-rcm11-esm29-rsr0-rcr25-esr310.npz,,,,,0,21,21,364,,left,green,1.21,169.62466192245483,169.9578709602356,,,1,AS,1,lightness,readingArea,mean,72,2023-03-10_14h13.04.417,tripletExp_regina_11082022,2022.2.4,120.20646270688545,
8,1,3,0,0.25,1.0,0,0.111111111111111,0.298245614035088,0,0.444444444444444,0.298245614035088,ReadingArea_rsl0-rcl25-esl100-rsm0-rcm11-esm29-rsr0-rcr44-esr29,exr/ReadingArea_rsl0-rcl25-esl100-rsm0-rcm11-esm29-rsr0-rcr44-esr29.exr,ReadingArea_rsl0-rcl25-esl100-rsm0-rcm11-esm29-rsr0-rcr44-esr29.npz,,,,,0,22,22,65,,right,red,1.01,171.6518919467926,171.98123002052307,,,1,AS,1,lightness,readingArea,mean,72,2023-03-10_14h13.04.417,tripletExp_regina_11082022,2022.2.4,120.20646270688545,
7,3,12,0,0.111111111111111,1.0,0,0.444444444444444,0.298245614035088,0,0.027777777777778,3.10526315789474,ReadingArea_rsl0-rcl11-esl100-rsm0-rcm44-esm29-rsr0-rcr2-esr310,exr/ReadingArea_rsl0-rcl11-esl100-rsm0-rcm44-esm29-rsr0-rcr2-esr310.exr,ReadingArea_rsl0-rcl11-esl100-rsm0-rcm44-esm29-rsr0-rcr2-esr310.npz,,,,,0,23,23,342,,left,green,1.24,173.66936993598938,174.0017969608307,,,1,AS,1,lightness,readingArea,mean,72,2023-03-10_14h13.04.417,tripletExp_regina_11082022,2022.2.4,120.20646270688545,
14,9,8,0,0.25,3.10526315789474,0,0.444444444444444,1.0,0,0.25,1.0,ReadingArea_rsl0-rcl25-esl310-rsm0-rcm44-esm100-rsr0-rcr25-esr100,exr/ReadingArea_rsl0-rcl25-esl310-rsm0-rcm44-esm100-rsr0-rcr25-esr100.exr,ReadingArea_rsl0-rcl25-esl310-rsm0-rcm44-esm100-rsr0-rcr25-esr100.npz,,,,,0,24,24,74,,left,green,1.22,175.6945629119873,176.0208718776703,,,1,AS,1,lightness,readingArea,mean,72,2023-03-10_14h13.04.417,tripletExp_regina_11082022,2022.2.4,120.20646270688545,
5,3,9,0,1.0,0.298245614035088,0,0.444444444444444,0.298245614035088,0,0.444444444444444,1.0,ReadingArea_rsl0-rcl100-esl29-rsm0-rcm44-esm29-rsr0-rcr44-esr100,exr/ReadingArea_rsl0-rcl100-esl29-rsm0-rcm44-esm29-rsr0-rcr44-esr100.exr,ReadingArea_rsl0-rcl100-esl29-rsm0-rcm44-esm29-rsr0-rcr44-esr100.npz,,,,,0,25,25,1,,left,green,1.13,177.73318099975586,178.06792306900024,,,1,AS,1,lightness,readingArea,mean,72,2023-03-10_14h13.04.417,tripletExp_regina_11082022,2022.2.4,120.20646270688545,
8,5,14,0,0.25,1.0,0,1.0,0.298245614035088,0,0.25,3.10526315789474,ReadingArea_rsl0-rcl25-esl100-rsm0-rcm100-esm29-rsr0-rcr25-esr310,exr/ReadingArea_rsl0-rcl25-esl100-rsm0-rcm100-esm29-rsr0-rcr25-esr310.exr,ReadingArea_rsl0-rcl25-esl100-rsm0-rcm100-esm29-rsr0-rcr25-esr310.npz,,,,,0,26,26,62,,left,green,0.93,179.7785289287567,180.11505603790283,,,1,AS,1,lightness,readingArea,mean,72,2023-03-10_14h13.04.417,tripletExp_regina_11082022,2022.2.4,120.20646270688545,
11,10,3,0,1.0,1.0,0,0.694444444444444,1.0,0,0.444444444444444,0.298245614035088,ReadingArea_rsl0-rcl100-esl100-rsm0-rcm69-esm100-rsr0-rcr44-esr29,exr/ReadingArea_rsl0-rcl100-esl100-rsm0-rcm69-esm100-rsr0-rcr44-esr29.exr,ReadingArea_rsl0-rcl100-esl100-rsm0-rcm69-esm100-rsr0-rcr44-esr29.npz,,,,,0,27,27,6,,left,green,1.09,181.8273708820343,182.1824150085449,,,1,AS,1,lightness,readingArea,mean,72,2023-03-10_14h13.04.417,tripletExp_regina_11082022,2022.2.4,120.20646270688545,
10,2,8,0,0.694444444444444,1.0,0,0.25,0.298245614035088,0,0.25,1.0,ReadingArea_rsl0-rcl69-esl100-rsm0-rcm25-esm29-rsr0-rcr25-esr100,exr/ReadingArea_rsl0-rcl69-esl100-rsm0-rcm25-esm29-rsr0-rcr25-esr100.exr,ReadingArea_rsl0-rcl69-esl100-rsm0-rcm25-esm29-rsr0-rcr25-esr100.npz,,,,,0,28,28,348,,right,red,1.01,183.8813850879669,184.22519707679749,,,1,AS,1,lightness,readingArea,mean,72,2023-03-10_14h13.04.417,tripletExp_regina_11082022,2022.2.4,120.20646270688545,
10,5,13,0,0.694444444444444,1.0,0,1.0,0.298245614035088,0,0.111111111111111,3.10526315789474,ReadingArea_rsl0-rcl69-esl100-rsm0-rcm100-esm29-rsr0-rcr11-esr310,exr/ReadingArea_rsl0-rcl69-esl100-rsm0-rcm100-esm29-rsr0-rcr11-esr310.exr,ReadingArea_rsl0-rcl69-esl100-rsm0-rcm100-esm29-rsr0-rcr11-esr310.npz,,,,,0,29,29,71,,right,red,0.81,185.93431210517883,186.2683069705963,,,1,AS,1,lightness,readingArea,mean,72,2023-03-10_14h13.04.417,tripletExp_regina_11082022,2022.2.4,120.20646270688545,
5,9,7,0,1.0,0.298245614035088,0,0.444444444444444,1.0,0,0.111111111111111,1.0,ReadingArea_rsl0-rcl100-esl29-rsm0-rcm44-esm100-rsr0-rcr11-esr100,exr/ReadingArea_rsl0-rcl100-esl29-rsm0-rcm44-esm100-rsr0-rcr11-esr100.exr,ReadingArea_rsl0-rcl100-esl29-rsm0-rcm44-esm100-rsr0-rcr11-esr100.npz,,,,,0,30,30,476,,left,green,0.85,187.9604070186615,188.2888569831848,,,1,AS,1,lightness,readingArea,mean,72,2023-03-10_14h13.04.417,tripletExp_regina_11082022,2022.2.4,120.20646270688545,
13,4,9,0,0.111111111111111,3.10526315789474,0,0.694444444444444,0.298245614035088,0,0.444444444444444,1.0,ReadingArea_rsl0-rcl11-esl310-rsm0-rcm69-esm29-rsr0-rcr44-esr100,exr/ReadingArea_rsl0-rcl11-esl310-rsm0-rcm69-esm29-rsr0-rcr44-esr100.exr,ReadingArea_rsl0-rcl11-esl310-rsm0-rcm69-esm29-rsr0-rcr44-esr100.npz,,,,,0,31,31,436,,left,green,0.94,190.0113050937653,190.35632491111755,,,1,AS,1,lightness,readingArea,mean,72,2023-03-10_14h13.04.417,tripletExp_regina_11082022,2022.2.4,120.20646270688545,
4,13,11,0,0.694444444444444,0.298245614035088,0,0.111111111111111,3.10526315789474,0,1.0,1.0,ReadingArea_rsl0-rcl69-esl29-rsm0-rcm11-esm310-rsr0-rcr100-esr100,exr/ReadingArea_rsl0-rcl69-esl29-rsm0-rcm11-esm310-rsr0-rcr100-esr100.exr,ReadingArea_rsl0-rcl69-esl29-rsm0-rcm11-esm310-rsr0-rcr100-esr100.npz,,,,,0,32,32,424,,left,green,0.87,192.0544788837433,192.3714499473572,,,1,AS,1,lightness,readingArea,mean,72,2023-03-10_14h13.04.417,tripletExp_regina_11082022,2022.2.4,120.20646270688545,
2,5,10,0,0.25,0.298245614035088,0,1.0,0.298245614035088,0,0.694444444444444,1.0,ReadingArea_rsl0-rcl25-esl29-rsm0-rcm100-esm29-rsr0-rcr69-esr100,exr/ReadingArea_rsl0-rcl25-esl29-rsm0-rcm100-esm29-rsr0-rcr69-esr100.exr,ReadingArea_rsl0-rcl25-esl29-rsm0-rcm100-esm29-rsr0-rcr69-esr100.npz,,,,,0,33,33,41,,left,green,1.7,194.0654458999633,,,,1,AS,1,lightness,readingArea,mean,72,2023-03-10_14h13.04.417,tripletExp_regina_11082022,2022.2.4,120.20646270688545,
10,13,11,0,0.694444444444444,1.0,0,0.111111111111111,3.10526315789474,0,1.0,1.0,ReadingArea_rsl0-rcl69-esl100-rsm0-rcm11-esm310-rsr0-rcr100-esr100,exr/ReadingArea_rsl0-rcl69-esl100-rsm0-rcm11-esm310-rsr0-rcr100-esr100.exr,ReadingArea_rsl0-rcl69-esl100-rsm0-rcm11-esm310-rsr0-rcr100-esr100.npz,,,,,0,34,34,235,,left,green,1.29,196.1278090476989,196.4617340564728,,,1,AS,1,lightness,readingArea,mean,72,2023-03-10_14h13.04.417,tripletExp_regina_11082022,2022.2.4,120.20646270688545,
8,4,11,0,0.25,1.0,0,0.694444444444444,0.298245614035088,0,1.0,1.0,ReadingArea_rsl0-rcl25-esl100-rsm0-rcm69-esm29-rsr0-rcr100-esr100,exr/ReadingArea_rsl0-rcl25-esl100-rsm0-rcm69-esm29-rsr0-rcr100-esr100.exr,ReadingArea_rsl0-rcl25-esl100-rsm0-rcm69-esm29-rsr0-rcr100-esr100.npz,,,,,0,35,35,340,,left,green,1.66,198.16066002845764,198.52177596092224,,,1,AS,1,lightness,readingArea,mean,72,2023-03-10_14h13.04.417,tripletExp_regina_11082022,2022.2.4,120.20646270688545,
0,13,1,0,0.027777777777778,0.298245614035088,0,0.111111111111111,3.10526315789474,0,0.111111111111111,0.298245614035088,ReadingArea_rsl0-rcl2-esl29-rsm0-rcm11-esm310-rsr0-rcr11-esr29,exr/ReadingArea_rsl0-rcl2-esl29-rsm0-rcm11-esm310-rsr0-rcr11-esr29.exr,ReadingArea_rsl0-rcl2-esl29-rsm0-rcm11-esm310-rsr0-rcr11-esr29.npz,,,,,0,36,36,166,,right,red,1.44,200.2210440635681,200.56450009346008,,,1,AS,1,lightness,readingArea,mean,72,2023-03-10_14h13.04.417,tripletExp_regina_11082022,2022.2.4,120.20646270688545,
14,2,0,0,0.25,3.10526315789474,0,0.25,0.298245614035088,0,0.027777777777778,0.298245614035088,ReadingArea_rsl0-rcl25-esl310-rsm0-rcm25-esm29-rsr0-rcr2-esr29,exr/ReadingArea_rsl0-rcl25-esl310-rsm0-rcm25-esm29-rsr0-rcr2-esr29.exr,ReadingArea_rsl0-rcl25-esl310-rsm0-rcm25-esm29-rsr0-rcr2-esr29.npz,,,,,0,37,37,218,,right,red,1.31,202.2634110450745,202.61141204833984,,,1,AS,1,lightness,readingArea,mean,72,2023-03-10_14h13.04.417,tripletExp_regina_11082022,2022.2.4,120.20646270688545,
7,8,5,0,0.111111111111111,1.0,0,0.25,1.0,0,1.0,0.298245614035088,ReadingArea_rsl0-rcl11-esl100-rsm0-rcm25-esm100-rsr0-rcr100-esr29,exr/ReadingArea_rsl0-rcl11-esl100-rsm0-rcm25-esm100-rsr0-rcr100-esr29.exr,ReadingArea_rsl0-rcl11-esl100-rsm0-rcm25-esm100-rsr0-rcr100-esr29.npz,,,,,0,38,38,323,,left,green,1.07,204.30836701393127,,,,1,AS,1,lightness,readingArea,mean,72,2023-03-10_14h13.04.417,tripletExp_regina_11082022,2022.2.4,120.20646270688545,
2,0,5,0,0.25,0.298245614035088,0,0.027777777777778,0.298245614035088,0,1.0,0.298245614035088,ReadingArea_rsl0-rcl25-esl29-rsm0-rcm2-esm29-rsr0-rcr100-esr29,exr/ReadingArea_rsl0-rcl25-esl29-rsm0-rcm2-esm29-rsr0-rcr100-esr29.exr,ReadingArea_rsl0-rcl25-esl29-rsm0-rcm2-esm29-rsr0-rcr100-esr29.npz,,,,,0,39,39,122,,left,green,0.88,206.38002395629883,206.712063074112,,,1,AS,1,lightness,readingArea,mean,72,2023-03-10_14h13.04.417,tripletExp_regina_11082022,2022.2.4,120.20646270688545,
9,0,8,0,0.444444444444444,1.0,0,0.027777777777778,0.298245614035088,0,0.25,1.0,ReadingArea_rsl0-rcl44-esl100-rsm0-rcm2-esm29-rsr0-rcr25-esr100,exr/ReadingArea_rsl0-rcl44-esl100-rsm0-rcm2-esm29-rsr0-rcr25-esr100.exr,ReadingArea_rsl0-rcl44-esl100-rsm0-rcm2-esm29-rsr0-rcr25-esr100.npz,,,,,0,40,40,365,,right,red,1.01,208.43265008926392,208.81513905525208,,,1,AS,1,lightness,readingArea,mean,72,2023-03-10_14h13.04.417,tripletExp_regina_11082022,2022.2.4,120.20646270688545,
4,9,6,0,0.694444444444444,0.298245614035088,0,0.444444444444444,1.0,0,0.027777777777778,1.0,ReadingArea_rsl0-rcl69-esl29-rsm0-rcm44-esm100-rsr0-rcr2-esr100,exr/ReadingArea_rsl0-rcl69-esl29-rsm0-rcm44-esm100-rsr0-rcr2-esr100.exr,ReadingArea_rsl0-rcl69-esl29-rsm0-rcm44-esm100-rsr0-rcr2-esr100.npz,,,,,0,41,41,61,,left,green,1.06,210.5287458896637,210.8766369819641,,,1,AS,1,lightness,readingArea,mean,72,2023-03-10_14h13.04.417,tripletExp_regina_11082022,2022.2.4,120.20646270688545,
10,8,7,0,0.694444444444444,1.0,0,0.25,1.0,0,0.111111111111111,1.0,ReadingArea_rsl0-rcl69-esl100-rsm0-rcm25-esm100-rsr0-rcr11-esr100,exr/ReadingArea_rsl0-rcl69-esl100-rsm0-rcm25-esm100-rsr0-rcr11-esr100.exr,ReadingArea_rsl0-rcl69-esl100-rsm0-rcm25-esm100-rsr0-rcr11-esr100.npz,,,,,0,42,42,51,,right,red,1.04,212.57109189033508,212.9106020927429,,,1,AS,1,lightness,readingArea,mean,72,2023-03-10_14h13.04.417,tripletExp_regina_11082022,2022.2.4,120.20646270688545,
12,10,9,0,0.027777777777778,3.10526315789474,0,0.694444444444444,1.0,0,0.444444444444444,1.0,ReadingArea_rsl0-rcl2-esl310-rsm0-rcm69-esm100-rsr0-rcr44-esr100,exr/ReadingArea_rsl0-rcl2-esl310-rsm0-rcm69-esm100-rsr0-rcr44-esr100.exr,ReadingArea_rsl0-rcl2-esl310-rsm0-rcm69-esm100-rsr0-rcr44-esr100.npz,,,,,0,43,43,164,,right,red,1.08,214.63297986984253,214.9632298946381,,,1,AS,1,lightness,readingArea,mean,72,2023-03-10_14h13.04.417,tripletExp_regina_11082022,2022.2.4,120.20646270688545,
2,11,9,0,0.25,0.298245614035088,0,1.0,1.0,0,0.444444444444444,1.0,ReadingArea_rsl0-rcl25-esl29-rsm0-rcm100-esm100-rsr0-rcr44-esr100,exr/ReadingArea_rsl0-rcl25-esl29-rsm0-rcm100-esm100-rsr0-rcr44-esr100.exr,ReadingArea_rsl0-rcl25-esl29-rsm0-rcm100-esm100-rsr0-rcr44-esr100.npz,,,,,0,44,44,493,,right,red,0.92,216.6865770816803,217.02210807800293,,,1,AS,1,lightness,readingArea,mean,72,2023-03-10_14h13.04.417,tripletExp_regina_11082022,2022.2.4,120.20646270688545,
4,3,14,0,0.694444444444444,0.298245614035088,0,0.444444444444444,0.298245614035088,0,0.25,3.10526315789474,ReadingArea_rsl0-rcl69-esl29-rsm0-rcm44-esm29-rsr0-rcr25-esr310,exr/ReadingArea_rsl0-rcl69-esl29-rsm0-rcm44-esm29-rsr0-rcr25-esr310.exr,ReadingArea_rsl0-rcl69-esl29-rsm0-rcm44-esm29-rsr0-rcr25-esr310.npz,,,,,0,45,45,213,,left,green,0.73,218.71626210212708,219.04839396476743,,,1,AS,1,lightness,readingArea,mean,72,2023-03-10_14h13.04.417,tripletExp_regina_11082022,2022.2.4,120.20646270688545,
9,4,13,0,0.444444444444444,1.0,0,0.694444444444444,0.298245614035088,0,0.111111111111111,3.10526315789474,ReadingArea_rsl0-rcl44-esl100-rsm0-rcm69-esm29-rsr0-rcr11-esr310,exr/ReadingArea_rsl0-rcl44-esl100-rsm0-rcm69-esm29-rsr0-rcr11-esr310.exr,ReadingArea_rsl0-rcl44-esl100-rsm0-rcm69-esm29-rsr0-rcr11-esr310.npz,,,,,0,46,46,421,,right,red,0.91,220.75344896316528,221.0838279724121,,,1,AS,1,lightness,readingArea,mean,72,2023-03-10_14h13.04.417,tripletExp_regina_11082022,2022.2.4,120.20646270688545,
5,14,11,0,1.0,0.298245614035088,0,0.25,3.10526315789474,0,1.0,1.0,ReadingArea_rsl0-rcl100-esl29-rsm0-rcm25-esm310-rsr0-rcr100-esr100,exr/ReadingArea_rsl0-rcl100-esl29-rsm0-rcm25-esm310-rsr0-rcr100-esr100.exr,ReadingArea_rsl0-rcl100-esl29-rsm0-rcm25-esm310-rsr0-rcr100-esr100.npz,,,,,0,47,47,99,,right,red,0.92,222.79373598098755,223.13896799087524,,,1,AS,1,lightness,readingArea,mean,72,2023-03-10_14h13.04.417,tripletExp_regina_11082022,2022.2.4,120.20646270688545,
4,13,9,0,0.694444444444444,0.298245614035088,0,0.111111111111111,3.10526315789474,0,0.444444444444444,1.0,ReadingArea_rsl0-rcl69-esl29-rsm0-rcm11-esm310-rsr0-rcr44-esr100,exr/ReadingArea_rsl0-rcl69-esl29-rsm0-rcm11-esm310-rsr0-rcr44-esr100.exr,ReadingArea_rsl0-rcl69-esl29-rsm0-rcm11-esm310-rsr0-rcr44-esr100.npz,,,,,0,48,48,201,,left,green,1.12,224.8522319793701,225.1843619346619,,,1,AS,1,lightness,readingArea,mean,72,2023-03-10_14h13.04.417,tripletExp_regina_11082022,2022.2.4,120.20646270688545,
9,5,12,0,0.444444444444444,1.0,0,1.0,0.298245614035088,0,0.027777777777778,3.10526315789474,ReadingArea_rsl0-rcl44-esl100-rsm0-rcm100-esm29-rsr0-rcr2-esr310,exr/ReadingArea_rsl0-rcl44-esl100-rsm0-rcm100-esm29-rsr0-rcr2-esr310.exr,ReadingArea_rsl0-rcl44-esl100-rsm0-rcm100-esm29-rsr0-rcr2-esr310.npz,,,,,0,49,49,102,,left,green,1.04,226.9006989002228,227.2343430519104,,,1,AS,1,lightness,readingArea,mean,72,2023-03-10_14h13.04.417,tripletExp_regina_11082022,2022.2.4,120.20646270688545,
1,2,5,0,0.111111111111111,0.298245614035088,0,0.25,0.298245614035088,0,1.0,0.298245614035088,ReadingArea_rsl0-rcl11-esl29-rsm0-rcm25-esm29-rsr0-rcr100-esr29,exr/ReadingArea_rsl0-rcl11-esl29-rsm0-rcm25-esm29-rsr0-rcr100-esr29.exr,ReadingArea_rsl0-rcl11-esl29-rsm0-rcm25-esm29-rsr0-rcr100-esr29.npz,,,,,0,50,50,399,,left,green,0.88,228.94877409935,229.27031993865967,,,1,AS,1,lightness,readingArea,mean,72,2023-03-10_14h13.04.417,tripletExp_regina_11082022,2022.2.4,120.20646270688545,
8,0,2,0,0.25,1.0,0,0.027777777777778,0.298245614035088,0,0.25,0.298245614035088,ReadingArea_rsl0-rcl25-esl100-rsm0-rcm2-esm29-rsr0-rcr25-esr29,exr/ReadingArea_rsl0-rcl25-esl100-rsm0-rcm2-esm29-rsr0-rcr25-esr29.exr,ReadingArea_rsl0-rcl25-esl100-rsm0-rcm2-esm29-rsr0-rcr25-esr29.npz,,,,,0,51,51,214,,right,red,0.88,230.97562789916992,231.29937291145325,,,1,AS,1,lightness,readingArea,mean,72,2023-03-10_14h13.04.417,tripletExp_regina_11082022,2022.2.4,120.20646270688545,
1,0,5,0,0.111111111111111,0.298245614035088,0,0.027777777777778,0.298245614035088,0,1.0,0.298245614035088,ReadingArea_rsl0-rcl11-esl29-rsm0-rcm2-esm29-rsr0-rcr100-esr29,exr/ReadingArea_rsl0-rcl11-esl29-rsm0-rcm2-esm29-rsr0-rcr100-esr29.exr,ReadingArea_rsl0-rcl11-esl29-rsm0-rcm2-esm29-rsr0-rcr100-esr29.npz,,,,,0,52,52,204,,left,green,0.96,232.9936258792877,233.327791929245,,,1,AS,1,lightness,readingArea,mean,72,2023-03-10_14h13.04.417,tripletExp_regina_11082022,2022.2.4,120.20646270688545,
11,3,13,0,1.0,1.0,0,0.444444444444444,0.298245614035088,0,0.111111111111111,3.10526315789474,ReadingArea_rsl0-rcl100-esl100-rsm0-rcm44-esm29-rsr0-rcr11-esr310,exr/ReadingArea_rsl0-rcl100-esl100-rsm0-rcm44-esm29-rsr0-rcr11-esr310.exr,ReadingArea_rsl0-rcl100-esl100-rsm0-rcm44-esm29-rsr0-rcr11-esr310.npz,,,,,0,53,53,243,,right,red,0.9,235.04969191551208,235.3959748744965,,,1,AS,1,lightness,readingArea,mean,72,2023-03-10_14h13.04.417,tripletExp_regina_11082022,2022.2.4,120.20646270688545,
0,7,11,0,0.027777777777778,0.298245614035088,0,0.111111111111111,1.0,0,1.0,1.0,ReadingArea_rsl0-rcl2-esl29-rsm0-rcm11-esm100-rsr0-rcr100-esr100,exr/ReadingArea_rsl0-rcl2-esl29-rsm0-rcm11-esm100-rsr0-rcr100-esr100.exr,ReadingArea_rsl0-rcl2-esl29-rsm0-rcm11-esm100-rsr0-rcr100-esr100.npz,,,,,0,54,54,328,,left,green,0.76,237.0921349525452,237.42122292518616,,,1,AS,1,lightness,readingArea,mean,72,2023-03-10_14h13.04.417,tripletExp_regina_11082022,2022.2.4,120.20646270688545,
0,12,13,0,0.027777777777778,0.298245614035088,0,0.027777777777778,3.10526315789474,0,0.111111111111111,3.10526315789474,ReadingArea_rsl0-rcl2-esl29-rsm0-rcm2-esm310-rsr0-rcr11-esr310,exr/ReadingArea_rsl0-rcl2-esl29-rsm0-rcm2-esm310-rsr0-rcr11-esr310.exr,ReadingArea_rsl0-rcl2-esl29-rsm0-rcm2-esm310-rsr0-rcr11-esr310.npz,,,,,0,55,55,255,,left,green,0.75,239.1251380443573,239.47334909439087,,,1,AS,1,lightness,readingArea,mean,72,2023-03-10_14h13.04.417,tripletExp_regina_11082022,2022.2.4,120.20646270688545,
0,11,13,0,0.027777777777778,0.298245614035088,0,1.0,1.0,0,0.111111111111111,3.10526315789474,ReadingArea_rsl0-rcl2-esl29-rsm0-rcm100-esm100-rsr0-rcr11-esr310,exr/ReadingArea_rsl0-rcl2-esl29-rsm0-rcm100-esm100-rsr0-rcr11-esr310.exr,ReadingArea_rsl0-rcl2-esl29-rsm0-rcm100-esm100-rsr0-rcr11-esr310.npz,,,,,0,56,56,296,,right,red,1.15,241.19326210021973,241.5322449207306,,,1,AS,1,lightness,readingArea,mean,72,2023-03-10_14h13.04.417,tripletExp_regina_11082022,2022.2.4,120.20646270688545,
6,10,8,0,0.027777777777778,1.0,0,0.694444444444444,1.0,0,0.25,1.0,ReadingArea_rsl0-rcl2-esl100-rsm0-rcm69-esm100-rsr0-rcr25-esr100,exr/ReadingArea_rsl0-rcl2-esl100-rsm0-rcm69-esm100-rsr0-rcr25-esr100.exr,ReadingArea_rsl0-rcl2-esl100-rsm0-rcm69-esm100-rsr0-rcr25-esr100.npz,,,,,0,57,57,170,,right,red,0.92,243.2568359375,243.5926070213318,,,1,AS,1,lightness,readingArea,mean,72,2023-03-10_14h13.04.417,tripletExp_regina_11082022,2022.2.4,120.20646270688545,
10,3,11,0,0.694444444444444,1.0,0,0.444444444444444,0.298245614035088,0,1.0,1.0,ReadingArea_rsl0-rcl69-esl100-rsm0-rcm44-esm29-rsr0-rcr100-esr100,exr/ReadingArea_rsl0-rcl69-esl100-rsm0-rcm44-esm29-rsr0-rcr100-esr100.exr,ReadingArea_rsl0-rcl69-esl100-rsm0-rcm44-esm29-rsr0-rcr100-esr100.npz,,,,,0,58,58,168,,left,green,1.09,245.30648708343503,,,,1,AS,1,lightness,readingArea,mean,72,2023-03-10_14h13.04.417,tripletExp_regina_11082022,2022.2.4,120.20646270688545,
5,7,9,0,1.0,0.298245614035088,0,0.111111111111111,1.0,0,0.444444444444444,1.0,ReadingArea_rsl0-rcl100-esl29-rsm0-rcm11-esm100-rsr0-rcr44-esr100,exr/ReadingArea_rsl0-rcl100-esl29-rsm0-rcm11-esm100-rsr0-rcr44-esr100.exr,ReadingArea_rsl0-rcl100-esl29-rsm0-rcm11-esm100-rsr0-rcr44-esr100.npz,,,,,0,59,59,409,,left,green,0.82,247.3594720363617,247.6923348903656,,,1,AS,1,lightness,readingArea,mean,72,2023-03-10_14h13.04.417,tripletExp_regina_11082022,2022.2.4,120.20646270688545,
0,2,3,0,0.027777777777778,0.298245614035088,0,0.25,0.298245614035088,0,0.444444444444444,0.298245614035088,ReadingArea_rsl0-rcl2-esl29-rsm0-rcm25-esm29-rsr0-rcr44-esr29,exr/ReadingArea_rsl0-rcl2-esl29-rsm0-rcm25-esm29-rsr0-rcr44-esr29.exr,ReadingArea_rsl0-rcl2-esl29-rsm0-rcm25-esm29-rsr0-rcr44-esr29.npz,,,,,0,60,60,3,,right,red,0.72,249.3869071006775,249.721244096756,,,1,AS,1,lightness,readingArea,mean,72,2023-03-10_14h13.04.417,tripletExp_regina_11082022,2022.2.4,120.20646270688545,
5,13,8,0,1.0,0.298245614035088,0,0.111111111111111,3.10526315789474,0,0.25,1.0,ReadingArea_rsl0-rcl100-esl29-rsm0-rcm11-esm310-rsr0-rcr25-esr100,exr/ReadingArea_rsl0-rcl100-esl29-rsm0-rcm11-esm310-rsr0-rcr25-esr100.exr,ReadingArea_rsl0-rcl100-esl29-rsm0-rcm11-esm310-rsr0-rcr25-esr100.npz,,,,,0,61,61,267,,left,green,0.97,251.4302439689636,251.7648470401764,,,1,AS,1,lightness,readingArea,mean,72,2023-03-10_14h13.04.417,tripletExp_regina_11082022,2022.2.4,120.20646270688545,
9,10,5,0,0.444444444444444,1.0,0,0.694444444444444,1.0,0,1.0,0.298245614035088,ReadingArea_rsl0-rcl44-esl100-rsm0-rcm69-esm100-rsr0-rcr100-esr29,exr/ReadingArea_rsl0-rcl44-esl100-rsm0-rcm69-esm100-rsr0-rcr100-esr29.exr,ReadingArea_rsl0-rcl44-esl100-rsm0-rcm69-esm100-rsr0-rcr100-esr29.npz,,,,,0,62,62,222,,left,green,1.49,253.46483707427976,253.80231404304504,,,1,AS,1,lightness,readingArea,mean,72,2023-03-10_14h13.04.417,tripletExp_regina_11082022,2022.2.4,120.20646270688545,
0,11,1,0,0.027777777777778,0.298245614035088,0,1.0,1.0,0,0.111111111111111,0.298245614035088,ReadingArea_rsl0-rcl2-esl29-rsm0-rcm100-esm100-rsr0-rcr11-esr29,exr/ReadingArea_rsl0-rcl2-esl29-rsm0-rcm100-esm100-rsr0-rcr11-esr29.exr,ReadingArea_rsl0-rcl2-esl29-rsm0-rcm100-esm100-rsr0-rcr11-esr29.npz,,,,,0,63,63,15,,right,red,1.16,255.49120998382568,,,,1,AS,1,lightness,readingArea,mean,72,2023-03-10_14h13.04.417,tripletExp_regina_11082022,2022.2.4,120.20646270688545,
13,3,14,0,0.111111111111111,3.10526315789474,0,0.444444444444444,0.298245614035088,0,0.25,3.10526315789474,ReadingArea_rsl0-rcl11-esl310-rsm0-rcm44-esm29-rsr0-rcr25-esr310,exr/ReadingArea_rsl0-rcl11-esl310-rsm0-rcm44-esm29-rsr0-rcr25-esr310.exr,ReadingArea_rsl0-rcl11-esl310-rsm0-rcm44-esm29-rsr0-rcr25-esr310.npz,,,,,0,64,64,465,,left,green,1.14,257.53330397605896,,,,1,AS,1,lightness,readingArea,mean,72,2023-03-10_14h13.04.417,tripletExp_regina_11082022,2022.2.4,120.20646270688545,
14,11,0,0,0.25,3.10526315789474,0,1.0,1.0,0,0.027777777777778,0.298245614035088,ReadingArea_rsl0-rcl25-esl310-rsm0-rcm100-esm100-rsr0-rcr2-esr29,exr/ReadingArea_rsl0-rcl25-esl310-rsm0-rcm100-esm100-rsr0-rcr2-esr29.exr,ReadingArea_rsl0-rcl25-esl310-rsm0-rcm100-esm100-rsr0-rcr2-esr29.npz,,,,,0,65,65,460,,left,green,0.88,259.60302209854126,259.9446060657501,,,1,AS,1,lightness,readingArea,mean,72,2023-03-10_14h13.04.417,tripletExp_regina_11082022,2022.2.4,120.20646270688545,
7,8,3,0,0.111111111111111,1.0,0,0.25,1.0,0,0.444444444444444,0.298245614035088,ReadingArea_rsl0-rcl11-esl100-rsm0-rcm25-esm100-rsr0-rcr44-esr29,exr/ReadingArea_rsl0-rcl11-esl100-rsm0-rcm25-esm100-rsr0-rcr44-esr29.exr,ReadingArea_rsl0-rcl11-esl100-rsm0-rcm25-esm100-rsr0-rcr44-esr29.npz,,,,,0,66,66,271,,right,red,0.88,261.6687228679657,262.0073320865631,,,1,AS,1,lightness,readingArea,mean,72,2023-03-10_14h13.04.417,tripletExp_regina_11082022,2022.2.4,120.20646270688545,
12,1,3,0,0.027777777777778,3.10526315789474,0,0.111111111111111,0.298245614035088,0,0.444444444444444,0.298245614035088,ReadingArea_rsl0-rcl2-esl310-rsm0-rcm11-esm29-rsr0-rcr44-esr29,exr/ReadingArea_rsl0-rcl2-esl310-rsm0-rcm11-esm29-rsr0-rcr44-esr29.exr,ReadingArea_rsl0-rcl2-esl310-rsm0-rcm11-esm29-rsr0-rcr44-esr29.npz,,,,,0,67,67,137,,left,green,1.17,263.70275592803955,264.04416704177856,,,1,AS,1,lightness,readingArea,mean,72,2023-03-10_14h13.04.417,tripletExp_regina_11082022,2022.2.4,120.20646270688545,
5,6,11,0,1.0,0.298245614035088,0,0.027777777777778,1.0,0,1.0,1.0,ReadingArea_rsl0-rcl100-esl29-rsm0-rcm2-esm100-rsr0-rcr100-esr100,exr/ReadingArea_rsl0-rcl100-esl29-rsm0-rcm2-esm100-rsr0-rcr100-esr100.exr,ReadingArea_rsl0-rcl100-esl29-rsm0-rcm2-esm100-rsr0-rcr100-esr100.npz,,,,,0,68,68,8,,left,green,0.88,265.7481949329376,266.0717499256134,,,1,AS,1,lightness,readingArea,mean,72,2023-03-10_14h13.04.417,tripletExp_regina_11082022,2022.2.4,120.20646270688545,
1,9,2,0,0.111111111111111,0.298245614035088,0,0.444444444444444,1.0,0,0.25,0.298245614035088,ReadingArea_rsl0-rcl11-esl29-rsm0-rcm44-esm100-rsr0-rcr25-esr29,exr/ReadingArea_rsl0-rcl11-esl29-rsm0-rcm44-esm100-rsr0-rcr25-esr29.exr,ReadingArea_rsl0-rcl11-esl29-rsm0-rcm44-esm100-rsr0-rcr25-esr29.npz,,,,,0,69,69,117,,right,red,1.27,267.7665340900421,268.1132838726044,,,1,AS,1,lightness,readingArea,mean,72,2023-03-10_14h13.04.417,tripletExp_regina_11082022,2022.2.4,120.20646270688545,
1,2,6,0,0.111111111111111,0.298245614035088,0,0.25,0.298245614035088,0,0.027777777777778,1.0,ReadingArea_rsl0-rcl11-esl29-rsm0-rcm25-esm29-rsr0-rcr2-esr100,exr/ReadingArea_rsl0-rcl11-esl29-rsm0-rcm25-esm29-rsr0-rcr2-esr100.exr,ReadingArea_rsl0-rcl11-esl29-rsm0-rcm25-esm29-rsr0-rcr2-esr100.npz,,,,,0,70,70,469,,left,green,1.2,269.80552101135254,270.1471269130707,,,1,AS,1,lightness,readingArea,mean,72,2023-03-10_14h13.04.417,tripletExp_regina_11082022,2022.2.4,120.20646270688545,
11,9,4,0,1.0,1.0,0,0.444444444444444,1.0,0,0.694444444444444,0.298245614035088,ReadingArea_rsl0-rcl100-esl100-rsm0-rcm44-esm100-rsr0-rcr69-esr29,exr/ReadingArea_rsl0-rcl100-esl100-rsm0-rcm44-esm100-rsr0-rcr69-esr29.exr,ReadingArea_rsl0-rcl100-esl100-rsm0-rcm44-esm100-rsr0-rcr69-esr29.npz,,,,,0,71,71,307,,left,green,0.8,271.83929800987244,272.04260206222534,,,1,AS,1,lightness,readingArea,mean,72,2023-03-10_14h13.04.417,tripletExp_regina_11082022,2022.2.4,120.20646270688545,
7,10,6,0,0.111111111111111,1.0,0,0.694444444444444,1.0,0,0.027777777777778,1.0,ReadingArea_rsl0-rcl11-esl100-rsm0-rcm69-esm100-rsr0-rcr2-esr100,exr/ReadingArea_rsl0-rcl11-esl100-rsm0-rcm69-esm100-rsr0-rcr2-esr100.exr,ReadingArea_rsl0-rcl11-esl100-rsm0-rcm69-esm100-rsr0-rcr2-esr100.npz,,,,,0,72,72,100,,left,green,1.42,295.5230410099029,295.8692650794983,,,2,AS,1,lightness,readingArea,mean,72,2023-03-10_14h13.04.417,tripletExp_regina_11082022,2022.2.4,120.20646270688545,
4,13,8,0,0.694444444444444,0.298245614035088,0,0.111111111111111,3.10526315789474,0,0.25,1.0,ReadingArea_rsl0-rcl69-esl29-rsm0-rcm11-esm310-rsr0-rcr25-esr100,exr/ReadingArea_rsl0-rcl69-esl29-rsm0-rcm11-esm310-rsr0-rcr25-esr100.exr,ReadingArea_rsl0-rcl69-esl29-rsm0-rcm11-esm310-rsr0-rcr25-esr100.npz,,,,,0,73,73,55,,right,red,1.13,297.5796389579773,297.91389203071594,,,2,AS,1,lightness,readingArea,mean,72,2023-03-10_14h13.04.417,tripletExp_regina_11082022,2022.2.4,120.20646270688545,
10,7,11,0,0.694444444444444,1.0,0,0.111111111111111,1.0,0,1.0,1.0,ReadingArea_rsl0-rcl69-esl100-rsm0-rcm11-esm100-rsr0-rcr100-esr100,exr/ReadingArea_rsl0-rcl69-esl100-rsm0-rcm11-esm100-rsr0-rcr100-esr100.exr,ReadingArea_rsl0-rcl69-esl100-rsm0-rcm11-esm100-rsr0-rcr100-esr100.npz,,,,,0,74,74,59,,left,green,0.97,299.61507391929626,,,,2,AS,1,lightness,readingArea,mean,72,2023-03-10_14h13.04.417,tripletExp_regina_11082022,2022.2.4,120.20646270688545,
6,8,5,0,0.027777777777778,1.0,0,0.25,1.0,0,1.0,0.298245614035088,ReadingArea_rsl0-rcl2-esl100-rsm0-rcm25-esm100-rsr0-rcr100-esr29,exr/ReadingArea_rsl0-rcl2-esl100-rsm0-rcm25-esm100-rsr0-rcr100-esr29.exr,ReadingArea_rsl0-rcl2-esl100-rsm0-rcm25-esm100-rsr0-rcr100-esr29.npz,,,,,0,75,75,212,,right,red,0.79,301.6940960884094,302.0306510925293,,,2,AS,1,lightness,readingArea,mean,72,2023-03-10_14h13.04.417,tripletExp_regina_11082022,2022.2.4,120.20646270688545,
1,7,2,0,0.111111111111111,0.298245614035088,0,0.111111111111111,1.0,0,0.25,0.298245614035088,ReadingArea_rsl0-rcl11-esl29-rsm0-rcm11-esm100-rsr0-rcr25-esr29,exr/ReadingArea_rsl0-rcl11-esl29-rsm0-rcm11-esm100-rsr0-rcr25-esr29.exr,ReadingArea_rsl0-rcl11-esl29-rsm0-rcm11-esm100-rsr0-rcr25-esr29.npz,,,,,0,76,76,479,,right,red,0.72,303.73268699646,304.06502294540405,,,2,AS,1,lightness,readingArea,mean,72,2023-03-10_14h13.04.417,tripletExp_regina_11082022,2022.2.4,120.20646270688545,
0,12,4,0,0.027777777777778,0.298245614035088,0,0.027777777777778,3.10526315789474,0,0.694444444444444,0.298245614035088,ReadingArea_rsl0-rcl2-esl29-rsm0-rcm2-esm310-rsr0-rcr69-esr29,exr/ReadingArea_rsl0-rcl2-esl29-rsm0-rcm2-esm310-rsr0-rcr69-esr29.exr,ReadingArea_rsl0-rcl2-esl29-rsm0-rcm2-esm310-rsr0-rcr69-esr29.npz,,,,,0,77,77,141,,left,green,0.96,305.75777101516724,,,,2,AS,1,lightness,readingArea,mean,72,2023-03-10_14h13.04.417,tripletExp_regina_11082022,2022.2.4,120.20646270688545,
2,1,5,0,0.25,0.298245614035088,0,0.111111111111111,0.298245614035088,0,1.0,0.298245614035088,ReadingArea_rsl0-rcl25-esl29-rsm0-rcm11-esm29-rsr0-rcr100-esr29,exr/ReadingArea_rsl0-rcl25-esl29-rsm0-rcm11-esm29-rsr0-rcr100-esr29.exr,ReadingArea_rsl0-rcl25-esl29-rsm0-rcm11-esm29-rsr0-rcr100-esr29.npz,,,,,0,78,78,45,,left,green,0.8,307.79513597488403,308.1351709365845,,,2,AS,1,lightness,readingArea,mean,72,2023-03-10_14h13.04.417,tripletExp_regina_11082022,2022.2.4,120.20646270688545,
14,3,8,0,0.25,3.10526315789474,0,0.444444444444444,0.298245614035088,0,0.25,1.0,ReadingArea_rsl0-rcl25-esl310-rsm0-rcm44-esm29-rsr0-rcr25-esr100,exr/ReadingArea_rsl0-rcl25-esl310-rsm0-rcm44-esm29-rsr0-rcr25-esr100.exr,ReadingArea_rsl0-rcl25-esl310-rsm0-rcm44-esm29-rsr0-rcr25-esr100.npz,,,,,0,79,79,70,,right,red,0.73,309.8247740268707,,,,2,AS,1,lightness,readingArea,mean,72,2023-03-10_14h13.04.417,tripletExp_regina_11082022,2022.2.4,120.20646270688545,
1,6,14,0,0.111111111111111,0.298245614035088,0,0.027777777777778,1.0,0,0.25,3.10526315789474,ReadingArea_rsl0-rcl11-esl29-rsm0-rcm2-esm100-rsr0-rcr25-esr310,exr/ReadingArea_rsl0-rcl11-esl29-rsm0-rcm2-esm100-rsr0-rcr25-esr310.exr,ReadingArea_rsl0-rcl11-esl29-rsm0-rcm2-esm100-rsr0-rcr25-esr310.npz,,,,,0,80,80,394,,left,green,0.67,311.8498520851135,,,,2,AS,1,lightness,readingArea,mean,72,2023-03-10_14h13.04.417,tripletExp_regina_11082022,2022.2.4,120.20646270688545,
0,4,12,0,0.027777777777778,0.298245614035088,0,0.694444444444444,0.298245614035088,0,0.027777777777778,3.10526315789474,ReadingArea_rsl0-rcl2-esl29-rsm0-rcm69-esm29-rsr0-rcr2-esr310,exr/ReadingArea_rsl0-rcl2-esl29-rsm0-rcm69-esm29-rsr0-rcr2-esr310.exr,ReadingArea_rsl0-rcl2-esl29-rsm0-rcm69-esm29-rsr0-rcr2-esr310.npz,,,,,0,81,81,353,,right,red,1.13,313.94361305236816,314.31468987464905,,,2,AS,1,lightness,readingArea,mean,72,2023-03-10_14h13.04.417,tripletExp_regina_11082022,2022.2.4,120.20646270688545,
5,0,10,0,1.0,0.298245614035088,0,0.027777777777778,0.298245614035088,0,0.694444444444444,1.0,ReadingArea_rsl0-rcl100-esl29-rsm0-rcm2-esm29-rsr0-rcr69-esr100,exr/ReadingArea_rsl0-rcl100-esl29-rsm0-rcm2-esm29-rsr0-rcr69-esr100.exr,ReadingArea_rsl0-rcl100-esl29-rsm0-rcm2-esm29-rsr0-rcr69-esr100.npz,,,,,0,82,82,265,,left,green,1.07,316.0084218978882,316.327262878418,,,2,AS,1,lightness,readingArea,mean,72,2023-03-10_14h13.04.417,tripletExp_regina_11082022,2022.2.4,120.20646270688545,
13,9,0,0,0.111111111111111,3.10526315789474,0,0.444444444444444,1.0,0,0.027777777777778,0.298245614035088,ReadingArea_rsl0-rcl11-esl310-rsm0-rcm44-esm100-rsr0-rcr2-esr29,exr/ReadingArea_rsl0-rcl11-esl310-rsm0-rcm44-esm100-rsr0-rcr2-esr29.exr,ReadingArea_rsl0-rcl11-esl310-rsm0-rcm44-esm100-rsr0-rcr2-esr29.npz,,,,,0,83,83,126,,left,green,0.84,318.02532291412354,318.3921320438385,,,2,AS,1,lightness,readingArea,mean,72,2023-03-10_14h13.04.417,tripletExp_regina_11082022,2022.2.4,120.20646270688545,
10,7,2,0,0.694444444444444,1.0,0,0.111111111111111,1.0,0,0.25,0.298245614035088,ReadingArea_rsl0-rcl69-esl100-rsm0-rcm11-esm100-rsr0-rcr25-esr29,exr/ReadingArea_rsl0-rcl69-esl100-rsm0-rcm11-esm100-rsr0-rcr25-esr29.exr,ReadingArea_rsl0-rcl69-esl100-rsm0-rcm11-esm100-rsr0-rcr25-esr29.npz,,,,,0,84,84,215,,right,red,0.81,320.08510994911194,320.4230959415436,,,2,AS,1,lightness,readingArea,mean,72,2023-03-10_14h13.04.417,tripletExp_regina_11082022,2022.2.4,120.20646270688545,
9,7,10,0,0.444444444444444,1.0,0,0.111111111111111,1.0,0,0.694444444444444,1.0,ReadingArea_rsl0-rcl44-esl100-rsm0-rcm11-esm100-rsr0-rcr69-esr100,exr/ReadingArea_rsl0-rcl44-esl100-rsm0-rcm11-esm100-rsr0-rcr69-esr100.exr,ReadingArea_rsl0-rcl44-esl100-rsm0-rcm11-esm100-rsr0-rcr69-esr100.npz,,,,,0,85,85,12,,left,green,0.81,322.13773703575134,322.4772379398346,,,2,AS,1,lightness,readingArea,mean,72,2023-03-10_14h13.04.417,tripletExp_regina_11082022,2022.2.4,120.20646270688545,
1,14,12,0,0.111111111111111,0.298245614035088,0,0.25,3.10526315789474,0,0.027777777777778,3.10526315789474,ReadingArea_rsl0-rcl11-esl29-rsm0-rcm25-esm310-rsr0-rcr2-esr310,exr/ReadingArea_rsl0-rcl11-esl29-rsm0-rcm25-esm310-rsr0-rcr2-esr310.exr,ReadingArea_rsl0-rcl11-esl29-rsm0-rcm25-esm310-rsr0-rcr2-esr310.npz,,,,,0,86,86,462,,right,red,1.17,324.19233894348145,324.52982997894287,,,2,AS,1,lightness,readingArea,mean,72,2023-03-10_14h13.04.417,tripletExp_regina_11082022,2022.2.4,120.20646270688545,
10,8,3,0,0.694444444444444,1.0,0,0.25,1.0,0,0.444444444444444,0.298245614035088,ReadingArea_rsl0-rcl69-esl100-rsm0-rcm25-esm100-rsr0-rcr44-esr29,exr/ReadingArea_rsl0-rcl69-esl100-rsm0-rcm25-esm100-rsr0-rcr44-esr29.exr,ReadingArea_rsl0-rcl69-esl100-rsm0-rcm25-esm100-rsr0-rcr44-esr29.npz,,,,,0,87,87,381,,right,red,0.95,326.22668504714966,326.5565068721771,,,2,AS,1,lightness,readingArea,mean,72,2023-03-10_14h13.04.417,tripletExp_regina_11082022,2022.2.4,120.20646270688545,
14,5,0,0,0.25,3.10526315789474,0,1.0,0.298245614035088,0,0.027777777777778,0.298245614035088,ReadingArea_rsl0-rcl25-esl310-rsm0-rcm100-esm29-rsr0-rcr2-esr29,exr/ReadingArea_rsl0-rcl25-esl310-rsm0-rcm100-esm29-rsr0-rcr2-esr29.exr,ReadingArea_rsl0-rcl25-esl310-rsm0-rcm100-esm29-rsr0-rcr2-esr29.npz,,,,,0,88,88,225,,left,green,1.11,328.2471640110016,328.58709597587585,,,2,AS,1,lightness,readingArea,mean,72,2023-03-10_14h13.04.417,tripletExp_regina_11082022,2022.2.4,120.20646270688545,
4,1,13,0,0.694444444444444,0.298245614035088,0,0.111111111111111,0.298245614035088,0,0.111111111111111,3.10526315789474,ReadingArea_rsl0-rcl69-esl29-rsm0-rcm11-esm29-rsr0-rcr11-esr310,exr/ReadingArea_rsl0-rcl69-esl29-rsm0-rcm11-esm29-rsr0-rcr11-esr310.exr,ReadingArea_rsl0-rcl69-esl29-rsm0-rcm11-esm29-rsr0-rcr11-esr310.npz,,,,,0,89,89,354,,left,green,1.14,330.28289008140564,330.6508219242096,,,2,AS,1,lightness,readingArea,mean,72,2023-03-10_14h13.04.417,tripletExp_regina_11082022,2022.2.4,120.20646270688545,
11,1,8,0,1.0,1.0,0,0.111111111111111,0.298245614035088,0,0.25,1.0,ReadingArea_rsl0-rcl100-esl100-rsm0-rcm11-esm29-rsr0-rcr25-esr100,exr/ReadingArea_rsl0-rcl100-esl100-rsm0-rcm11-esm29-rsr0-rcr25-esr100.exr,ReadingArea_rsl0-rcl100-esl100-rsm0-rcm11-esm29-rsr0-rcr25-esr100.npz,,,,,0,90,90,195,,right,red,0.85,332.3633730411529,332.70424699783325,,,2,AS,1,lightness,readingArea,mean,72,2023-03-10_14h13.04.417,tripletExp_regina_11082022,2022.2.4,120.20646270688545,
8,10,0,0,0.25,1.0,0,0.694444444444444,1.0,0,0.027777777777778,0.298245614035088,ReadingArea_rsl0-rcl25-esl100-rsm0-rcm69-esm100-rsr0-rcr2-esr29,exr/ReadingArea_rsl0-rcl25-esl100-rsm0-rcm69-esm100-rsr0-rcr2-esr29.exr,ReadingArea_rsl0-rcl25-esl100-rsm0-rcm69-esm100-rsr0-rcr2-esr29.npz,,,,,0,91,91,308,,left,green,0.95,334.427453994751,334.77966594696045,,,2,AS,1,lightness,readingArea,mean,72,2023-03-10_14h13.04.417,tripletExp_regina_11082022,2022.2.4,120.20646270688545,
10,2,3,0,0.694444444444444,1.0,0,0.25,0.298245614035088,0,0.444444444444444,0.298245614035088,ReadingArea_rsl0-rcl69-esl100-rsm0-rcm25-esm29-rsr0-rcr44-esr29,exr/ReadingArea_rsl0-rcl69-esl100-rsm0-rcm25-esm29-rsr0-rcr44-esr29.exr,ReadingArea_rsl0-rcl69-esl100-rsm0-rcm25-esm29-rsr0-rcr44-esr29.npz,,,,,0,92,92,433,,right,red,0.68,336.47111892700195,,,,2,AS,1,lightness,readingArea,mean,72,2023-03-10_14h13.04.417,tripletExp_regina_11082022,2022.2.4,120.20646270688545,
2,8,11,0,0.25,0.298245614035088,0,0.25,1.0,0,1.0,1.0,ReadingArea_rsl0-rcl25-esl29-rsm0-rcm25-esm100-rsr0-rcr100-esr100,exr/ReadingArea_rsl0-rcl25-esl29-rsm0-rcm25-esm100-rsr0-rcr100-esr100.exr,ReadingArea_rsl0-rcl25-esl29-rsm0-rcm25-esm100-rsr0-rcr100-esr100.npz,,,,,0,93,93,382,,left,green,0.91,338.524062871933,338.86843395233154,,,2,AS,1,lightness,readingArea,mean,72,2023-03-10_14h13.04.417,tripletExp_regina_11082022,2022.2.4,120.20646270688545,
12,7,8,0,0.027777777777778,3.10526315789474,0,0.111111111111111,1.0,0,0.25,1.0,ReadingArea_rsl0-rcl2-esl310-rsm0-rcm11-esm100-rsr0-rcr25-esr100,exr/ReadingArea_rsl0-rcl2-esl310-rsm0-rcm11-esm100-rsr0-rcr25-esr100.exr,ReadingArea_rsl0-rcl2-esl310-rsm0-rcm11-esm100-rsr0-rcr25-esr100.npz,,,,,0,94,94,371,,right,red,0.89,340.5663809776306,340.8905670642853,,,2,AS,1,lightness,readingArea,mean,72,2023-03-10_14h13.04.417,tripletExp_regina_11082022,2022.2.4,120.20646270688545,
11,1,7,0,1.0,1.0,0,0.111111111111111,0.298245614035088,0,0.111111111111111,1.0,ReadingArea_rsl0-rcl100-esl100-rsm0-rcm11-esm29-rsr0-rcr11-esr100,exr/ReadingArea_rsl0-rcl100-esl100-rsm0-rcm11-esm29-rsr0-rcr11-esr100.exr,ReadingArea_rsl0-rcl100-esl100-rsm0-rcm11-esm29-rsr0-rcr11-esr100.npz,,,,,0,95,95,27,,right,red,0.71,342.61410999298096,342.9534430503845,,,2,AS,1,lightness,readingArea,mean,72,2023-03-10_14h13.04.417,tripletExp_regina_11082022,2022.2.4,120.20646270688545,
3,7,6,0,0.444444444444444,0.298245614035088,0,0.111111111111111,1.0,0,0.027777777777778,1.0,ReadingArea_rsl0-rcl44-esl29-rsm0-rcm11-esm100-rsr0-rcr2-esr100,exr/ReadingArea_rsl0-rcl44-esl29-rsm0-rcm11-esm100-rsr0-rcr2-esr100.exr,ReadingArea_rsl0-rcl44-esl29-rsm0-rcm11-esm100-rsr0-rcr2-esr100.npz,,,,,0,96,96,379,,left,green,0.94,344.65312004089355,344.9984018802643,,,2,AS,1,lightness,readingArea,mean,72,2023-03-10_14h13.04.417,tripletExp_regina_11082022,2022.2.4,120.20646270688545,
0,14,12,0,0.027777777777778,0.298245614035088,0,0.25,3.10526315789474,0,0.027777777777778,3.10526315789474,ReadingArea_rsl0-rcl2-esl29-rsm0-rcm25-esm310-rsr0-rcr2-esr310,exr/ReadingArea_rsl0-rcl2-esl29-rsm0-rcm25-esm310-rsr0-rcr2-esr310.exr,ReadingArea_rsl0-rcl2-esl29-rsm0-rcm25-esm310-rsr0-rcr2-esr310.npz,,,,,0,97,97,106,,right,red,1.28,346.7125220298767,347.0531439781189,,,2,AS,1,lightness,readingArea,mean,72,2023-03-10_14h13.04.417,tripletExp_regina_11082022,2022.2.4,120.20646270688545,
7,12,14,0,0.111111111111111,1.0,0,0.027777777777778,3.10526315789474,0,0.25,3.10526315789474,ReadingArea_rsl0-rcl11-esl100-rsm0-rcm2-esm310-rsr0-rcr25-esr310,exr/ReadingArea_rsl0-rcl11-esl100-rsm0-rcm2-esm310-rsr0-rcr25-esr310.exr,ReadingArea_rsl0-rcl11-esl100-rsm0-rcm2-esm310-rsr0-rcr25-esr310.npz,,,,,0,98,98,269,,left,green,0.85,348.7404220104217,349.0944550037384,,,2,AS,1,lightness,readingArea,mean,72,2023-03-10_14h13.04.417,tripletExp_regina_11082022,2022.2.4,120.20646270688545,
5,12,1,0,1.0,0.298245614035088,0,0.027777777777778,3.10526315789474,0,0.111111111111111,0.298245614035088,ReadingArea_rsl0-rcl100-esl29-rsm0-rcm2-esm310-rsr0-rcr11-esr29,exr/ReadingArea_rsl0-rcl100-esl29-rsm0-rcm2-esm310-rsr0-rcr11-esr29.exr,ReadingArea_rsl0-rcl100-esl29-rsm0-rcm2-esm310-rsr0-rcr11-esr29.npz,,,,,0,99,99,85,,right,red,0.83,350.79372787475586,351.22590708732605,,,2,AS,1,lightness,readingArea,mean,72,2023-03-10_14h13.04.417,tripletExp_regina_11082022,2022.2.4,120.20646270688545,
3,7,12,0,0.444444444444444,0.298245614035088,0,0.111111111111111,1.0,0,0.027777777777778,3.10526315789474,ReadingArea_rsl0-rcl44-esl29-rsm0-rcm11-esm100-rsr0-rcr2-esr310,exr/ReadingArea_rsl0-rcl44-esl29-rsm0-rcm11-esm100-rsr0-rcr2-esr310.exr,ReadingArea_rsl0-rcl44-esl29-rsm0-rcm11-esm100-rsr0-rcr2-esr310.npz,,,,,0,100,100,275,,left,green,1.37,352.91457200050354,,,,2,AS,1,lightness,readingArea,mean,72,2023-03-10_14h13.04.417,tripletExp_regina_11082022,2022.2.4,120.20646270688545,
9,1,10,0,0.444444444444444,1.0,0,0.111111111111111,0.298245614035088,0,0.694444444444444,1.0,ReadingArea_rsl0-rcl44-esl100-rsm0-rcm11-esm29-rsr0-rcr69-esr100,exr/ReadingArea_rsl0-rcl44-esl100-rsm0-rcm11-esm29-rsr0-rcr69-esr100.exr,ReadingArea_rsl0-rcl44-esl100-rsm0-rcm11-esm29-rsr0-rcr69-esr100.npz,,,,,0,101,101,211,,left,green,1.59,354.98472905159,355.3843219280243,,,2,AS,1,lightness,readingArea,mean,72,2023-03-10_14h13.04.417,tripletExp_regina_11082022,2022.2.4,120.20646270688545,
6,9,14,0,0.027777777777778,1.0,0,0.444444444444444,1.0,0,0.25,3.10526315789474,ReadingArea_rsl0-rcl2-esl100-rsm0-rcm44-esm100-rsr0-rcr25-esr310,exr/ReadingArea_rsl0-rcl2-esl100-rsm0-rcm44-esm100-rsr0-rcr25-esr310.exr,ReadingArea_rsl0-rcl2-esl100-rsm0-rcm44-esm100-rsr0-rcr25-esr310.npz,,,,,0,102,102,282,,right,red,0.95,357.0766410827637,357.4426460266113,,,2,AS,1,lightness,readingArea,mean,72,2023-03-10_14h13.04.417,tripletExp_regina_11082022,2022.2.4,120.20646270688545,
5,1,8,0,1.0,0.298245614035088,0,0.111111111111111,0.298245614035088,0,0.25,1.0,ReadingArea_rsl0-rcl100-esl29-rsm0-rcm11-esm29-rsr0-rcr25-esr100,exr/ReadingArea_rsl0-rcl100-esl29-rsm0-rcm11-esm29-rsr0-rcr25-esr100.exr,ReadingArea_rsl0-rcl100-esl29-rsm0-rcm11-esm29-rsr0-rcr25-esr100.npz,,,,,0,103,103,178,,right,red,1.36,359.1322350502014,,,,2,AS,1,lightness,readingArea,mean,72,2023-03-10_14h13.04.417,tripletExp_regina_11082022,2022.2.4,120.20646270688545,
12,13,7,0,0.027777777777778,3.10526315789474,0,0.111111111111111,3.10526315789474,0,0.111111111111111,1.0,ReadingArea_rsl0-rcl2-esl310-rsm0-rcm11-esm310-rsr0-rcr11-esr100,exr/ReadingArea_rsl0-rcl2-esl310-rsm0-rcm11-esm310-rsr0-rcr11-esr100.exr,ReadingArea_rsl0-rcl2-esl310-rsm0-rcm11-esm310-rsr0-rcr11-esr100.npz,,,,,0,104,104,220,,right,red,1.19,361.2071681022644,361.5840630531311,,,2,AS,1,lightness,readingArea,mean,72,2023-03-10_14h13.04.417,tripletExp_regina_11082022,2022.2.4,120.20646270688545,
8,10,3,0,0.25,1.0,0,0.694444444444444,1.0,0,0.444444444444444,0.298245614035088,ReadingArea_rsl0-rcl25-esl100-rsm0-rcm69-esm100-rsr0-rcr44-esr29,exr/ReadingArea_rsl0-rcl25-esl100-rsm0-rcm69-esm100-rsr0-rcr44-esr29.exr,ReadingArea_rsl0-rcl25-esl100-rsm0-rcm69-esm100-rsr0-rcr44-esr29.npz,,,,,0,105,105,463,,left,green,1.2,363.301687002182,363.6470909118652,,,2,AS,1,lightness,readingArea,mean,72,2023-03-10_14h13.04.417,tripletExp_regina_11082022,2022.2.4,120.20646270688545,
4,7,5,0,0.694444444444444,0.298245614035088,0,0.111111111111111,1.0,0,1.0,0.298245614035088,ReadingArea_rsl0-rcl69-esl29-rsm0-rcm11-esm100-rsr0-rcr100-esr29,exr/ReadingArea_rsl0-rcl69-esl29-rsm0-rcm11-esm100-rsr0-rcr100-esr29.exr,ReadingArea_rsl0-rcl69-esl29-rsm0-rcm11-esm100-rsr0-rcr100-esr29.npz,,,,,0,106,106,200,,left,green,0.9,365.33822798728943,365.6709558963776,,,2,AS,1,lightness,readingArea,mean,72,2023-03-10_14h13.04.417,tripletExp_regina_11082022,2022.2.4,120.20646270688545,
2,7,3,0,0.25,0.298245614035088,0,0.111111111111111,1.0,0,0.444444444444444,0.298245614035088,ReadingArea_rsl0-rcl25-esl29-rsm0-rcm11-esm100-rsr0-rcr44-esr29,exr/ReadingArea_rsl0-rcl25-esl29-rsm0-rcm11-esm100-rsr0-rcr44-esr29.exr,ReadingArea_rsl0-rcl25-esl29-rsm0-rcm11-esm100-rsr0-rcr44-esr29.npz,,,,,0,107,107,127,,left,green,1.27,367.3847999572754,367.73077607154846,,,2,AS,1,lightness,readingArea,mean,72,2023-03-10_14h13.04.417,tripletExp_regina_11082022,2022.2.4,120.20646270688545,
13,0,9,0,0.111111111111111,3.10526315789474,0,0.027777777777778,0.298245614035088,0,0.444444444444444,1.0,ReadingArea_rsl0-rcl11-esl310-rsm0-rcm2-esm29-rsr0-rcr44-esr100,exr/ReadingArea_rsl0-rcl11-esl310-rsm0-rcm2-esm29-rsr0-rcr44-esr100.exr,ReadingArea_rsl0-rcl11-esl310-rsm0-rcm2-esm29-rsr0-rcr44-esr100.npz,,,,,0,108,108,11,,left,green,1.11,369.4388659000397,369.78217792510986,,,2,AS,1,lightness,readingArea,mean,72,2023-03-10_14h13.04.417,tripletExp_regina_11082022,2022.2.4,120.20646270688545,
14,13,4,0,0.25,3.10526315789474,0,0.111111111111111,3.10526315789474,0,0.694444444444444,0.298245614035088,ReadingArea_rsl0-rcl25-esl310-rsm0-rcm11-esm310-rsr0-rcr69-esr29,exr/ReadingArea_rsl0-rcl25-esl310-rsm0-rcm11-esm310-rsr0-rcr69-esr29.exr,ReadingArea_rsl0-rcl25-esl310-rsm0-rcm11-esm310-rsr0-rcr69-esr29.npz,,,,,0,109,109,50,,right,red,1.06,371.47754192352295,371.81604194641113,,,2,AS,1,lightness,readingArea,mean,72,2023-03-10_14h13.04.417,tripletExp_regina_11082022,2022.2.4,120.20646270688545,
5,2,1,0,1.0,0.298245614035088,0,0.25,0.298245614035088,0,0.111111111111111,0.298245614035088,ReadingArea_rsl0-rcl100-esl29-rsm0-rcm25-esm29-rsr0-rcr11-esr29,exr/ReadingArea_rsl0-rcl100-esl29-rsm0-rcm25-esm29-rsr0-rcr11-esr29.exr,ReadingArea_rsl0-rcl100-esl29-rsm0-rcm25-esm29-rsr0-rcr11-esr29.npz,,,,,0,110,110,252,,right,red,1.08,373.5111520290375,373.8555290699005,,,2,AS,1,lightness,readingArea,mean,72,2023-03-10_14h13.04.417,tripletExp_regina_11082022,2022.2.4,120.20646270688545,
2,8,9,0,0.25,0.298245614035088,0,0.25,1.0,0,0.444444444444444,1.0,ReadingArea_rsl0-rcl25-esl29-rsm0-rcm25-esm100-rsr0-rcr44-esr100,exr/ReadingArea_rsl0-rcl25-esl29-rsm0-rcm25-esm100-rsr0-rcr44-esr100.exr,ReadingArea_rsl0-rcl25-esl29-rsm0-rcm25-esm100-rsr0-rcr44-esr100.npz,,,,,0,111,111,279,,left,green,0.69,375.5572230815888,375.9317479133606,,,2,AS,1,lightness,readingArea,mean,72,2023-03-10_14h13.04.417,tripletExp_regina_11082022,2022.2.4,120.20646270688545,
6,10,3,0,0.027777777777778,1.0,0,0.694444444444444,1.0,0,0.444444444444444,0.298245614035088,ReadingArea_rsl0-rcl2-esl100-rsm0-rcm69-esm100-rsr0-rcr44-esr29,exr/ReadingArea_rsl0-rcl2-esl100-rsm0-rcm69-esm100-rsr0-rcr44-esr29.exr,ReadingArea_rsl0-rcl2-esl100-rsm0-rcm69-esm100-rsr0-rcr44-esr29.npz,,,,,0,112,112,149,,right,red,0.91,377.6228981018066,377.9640009403229,,,2,AS,1,lightness,readingArea,mean,72,2023-03-10_14h13.04.417,tripletExp_regina_11082022,2022.2.4,120.20646270688545,
14,13,5,0,0.25,3.10526315789474,0,0.111111111111111,3.10526315789474,0,1.0,0.298245614035088,ReadingArea_rsl0-rcl25-esl310-rsm0-rcm11-esm310-rsr0-rcr100-esr29,exr/ReadingArea_rsl0-rcl25-esl310-rsm0-rcm11-esm310-rsr0-rcr100-esr29.exr,ReadingArea_rsl0-rcl25-esl310-rsm0-rcm11-esm310-rsr0-rcr100-esr29.npz,,,,,0,113,113,194,,right,red,0.76,379.68120193481445,380.0090329647064,,,2,AS,1,lightness,readingArea,mean,72,2023-03-10_14h13.04.417,tripletExp_regina_11082022,2022.2.4,120.20646270688545,
1,7,8,0,0.111111111111111,0.298245614035088,0,0.111111111111111,1.0,0,0.25,1.0,ReadingArea_rsl0-rcl11-esl29-rsm0-rcm11-esm100-rsr0-rcr25-esr100,exr/ReadingArea_rsl0-rcl11-esl29-rsm0-rcm11-esm100-rsr0-rcr25-esr100.exr,ReadingArea_rsl0-rcl11-esl29-rsm0-rcm11-esm100-rsr0-rcr25-esr100.npz,,,,,0,114,114,69,,right,red,1.0,381.71388602256775,382.0646948814392,,,2,AS,1,lightness,readingArea,mean,72,2023-03-10_14h13.04.417,tripletExp_regina_11082022,2022.2.4,120.20646270688545,
10,14,9,0,0.694444444444444,1.0,0,0.25,3.10526315789474,0,0.444444444444444,1.0,ReadingArea_rsl0-rcl69-esl100-rsm0-rcm25-esm310-rsr0-rcr44-esr100,exr/ReadingArea_rsl0-rcl69-esl100-rsm0-rcm25-esm310-rsr0-rcr44-esr100.exr,ReadingArea_rsl0-rcl69-esl100-rsm0-rcm25-esm310-rsr0-rcr44-esr100.npz,,,,,0,115,115,443,,left,green,0.94,383.7745518684387,384.11559295654297,,,2,AS,1,lightness,readingArea,mean,72,2023-03-10_14h13.04.417,tripletExp_regina_11082022,2022.2.4,120.20646270688545,
5,4,9,0,1.0,0.298245614035088,0,0.694444444444444,0.298245614035088,0,0.444444444444444,1.0,ReadingArea_rsl0-rcl100-esl29-rsm0-rcm69-esm29-rsr0-rcr44-esr100,exr/ReadingArea_rsl0-rcl100-esl29-rsm0-rcm69-esm29-rsr0-rcr44-esr100.exr,ReadingArea_rsl0-rcl100-esl29-rsm0-rcm69-esm29-rsr0-rcr44-esr100.npz,,,,,0,116,116,380,,left,green,1.05,385.829066991806,386.1685180664063,,,2,AS,1,lightness,readingArea,mean,72,2023-03-10_14h13.04.417,tripletExp_regina_11082022,2022.2.4,120.20646270688545,
3,9,10,0,0.444444444444444,0.298245614035088,0,0.444444444444444,1.0,0,0.694444444444444,1.0,ReadingArea_rsl0-rcl44-esl29-rsm0-rcm44-esm100-rsr0-rcr69-esr100,exr/ReadingArea_rsl0-rcl44-esl29-rsm0-rcm44-esm100-rsr0-rcr69-esr100.exr,ReadingArea_rsl0-rcl44-esl29-rsm0-rcm44-esm100-rsr0-rcr69-esr100.npz,,,,,0,117,117,397,,right,red,0.84,387.8663868904114,388.23719096183777,,,2,AS,1,lightness,readingArea,mean,72,2023-03-10_14h13.04.417,tripletExp_regina_11082022,2022.2.4,120.20646270688545,
3,13,9,0,0.444444444444444,0.298245614035088,0,0.111111111111111,3.10526315789474,0,0.444444444444444,1.0,ReadingArea_rsl0-rcl44-esl29-rsm0-rcm11-esm310-rsr0-rcr44-esr100,exr/ReadingArea_rsl0-rcl44-esl29-rsm0-rcm11-esm310-rsr0-rcr44-esr100.exr,ReadingArea_rsl0-rcl44-esl29-rsm0-rcm11-esm310-rsr0-rcr44-esr100.npz,,,,,0,118,118,295,,right,red,1.06,389.9411110877991,390.2882480621338,,,2,AS,1,lightness,readingArea,mean,72,2023-03-10_14h13.04.417,tripletExp_regina_11082022,2022.2.4,120.20646270688545,
0,3,6,0,0.027777777777778,0.298245614035088,0,0.444444444444444,0.298245614035088,0,0.027777777777778,1.0,ReadingArea_rsl0-rcl2-esl29-rsm0-rcm44-esm29-rsr0-rcr2-esr100,exr/ReadingArea_rsl0-rcl2-esl29-rsm0-rcm44-esm29-rsr0-rcr2-esr100.exr,ReadingArea_rsl0-rcl2-esl29-rsm0-rcm44-esm29-rsr0-rcr2-esr100.npz,,,,,0,119,119,314,,left,green,1.24,392.0078270435333,392.3472819328308,,,2,AS,1,lightness,readingArea,mean,72,2023-03-10_14h13.04.417,tripletExp_regina_11082022,2022.2.4,120.20646270688545,
2,1,9,0,0.25,0.298245614035088,0,0.111111111111111,0.298245614035088,0,0.444444444444444,1.0,ReadingArea_rsl0-rcl25-esl29-rsm0-rcm11-esm29-rsr0-rcr44-esr100,exr/ReadingArea_rsl0-rcl25-esl29-rsm0-rcm11-esm29-rsr0-rcr44-esr100.exr,ReadingArea_rsl0-rcl25-esl29-rsm0-rcm11-esm29-rsr0-rcr44-esr100.npz,,,,,0,120,120,128,,left,green,0.92,394.0389890670776,394.38726687431335,,,2,AS,1,lightness,readingArea,mean,72,2023-03-10_14h13.04.417,tripletExp_regina_11082022,2022.2.4,120.20646270688545,
9,14,0,0,0.444444444444444,1.0,0,0.25,3.10526315789474,0,0.027777777777778,0.298245614035088,ReadingArea_rsl0-rcl44-esl100-rsm0-rcm25-esm310-rsr0-rcr2-esr29,exr/ReadingArea_rsl0-rcl44-esl100-rsm0-rcm25-esm310-rsr0-rcr2-esr29.exr,ReadingArea_rsl0-rcl44-esl100-rsm0-rcm25-esm310-rsr0-rcr2-esr29.npz,,,,,0,121,121,480,,left,green,0.9,396.09381103515625,396.4360029697418,,,2,AS,1,lightness,readingArea,mean,72,2023-03-10_14h13.04.417,tripletExp_regina_11082022,2022.2.4,120.20646270688545,
0,1,9,0,0.027777777777778,0.298245614035088,0,0.111111111111111,0.298245614035088,0,0.444444444444444,1.0,ReadingArea_rsl0-rcl2-esl29-rsm0-rcm11-esm29-rsr0-rcr44-esr100,exr/ReadingArea_rsl0-rcl2-esl29-rsm0-rcm11-esm29-rsr0-rcr44-esr100.exr,ReadingArea_rsl0-rcl2-esl29-rsm0-rcm11-esm29-rsr0-rcr44-esr100.npz,,,,,0,122,122,263,,left,green,0.92,398.12224793434143,,,,2,AS,1,lightness,readingArea,mean,72,2023-03-10_14h13.04.417,tripletExp_regina_11082022,2022.2.4,120.20646270688545,
5,11,7,0,1.0,0.298245614035088,0,1.0,1.0,0,0.111111111111111,1.0,ReadingArea_rsl0-rcl100-esl29-rsm0-rcm100-esm100-rsr0-rcr11-esr100,exr/ReadingArea_rsl0-rcl100-esl29-rsm0-rcm100-esm100-rsr0-rcr11-esr100.exr,ReadingArea_rsl0-rcl100-esl29-rsm0-rcm100-esm100-rsr0-rcr11-esr100.npz,,,,,0,123,123,432,,left,green,1.02,400.18325209617615,400.512158870697,,,2,AS,1,lightness,readingArea,mean,72,2023-03-10_14h13.04.417,tripletExp_regina_11082022,2022.2.4,120.20646270688545,
3,6,1,0,0.444444444444444,0.298245614035088,0,0.027777777777778,1.0,0,0.111111111111111,0.298245614035088,ReadingArea_rsl0-rcl44-esl29-rsm0-rcm2-esm100-rsr0-rcr11-esr29,exr/ReadingArea_rsl0-rcl44-esl29-rsm0-rcm2-esm100-rsr0-rcr11-esr29.exr,ReadingArea_rsl0-rcl44-esl29-rsm0-rcm2-esm100-rsr0-rcr11-esr29.npz,,,,,0,124,124,355,,right,red,0.86,402.2176160812378,402.653256893158,,,2,AS,1,lightness,readingArea,mean,72,2023-03-10_14h13.04.417,tripletExp_regina_11082022,2022.2.4,120.20646270688545,
6,14,5,0,0.027777777777778,1.0,0,0.25,3.10526315789474,0,1.0,0.298245614035088,ReadingArea_rsl0-rcl2-esl100-rsm0-rcm25-esm310-rsr0-rcr100-esr29,exr/ReadingArea_rsl0-rcl2-esl100-rsm0-rcm25-esm310-rsr0-rcr100-esr29.exr,ReadingArea_rsl0-rcl2-esl100-rsm0-rcm25-esm310-rsr0-rcr100-esr29.npz,,,,,0,125,125,396,,right,red,0.87,404.3551979064941,404.71724104881287,,,2,AS,1,lightness,readingArea,mean,72,2023-03-10_14h13.04.417,tripletExp_regina_11082022,2022.2.4,120.20646270688545,
10,3,8,0,0.694444444444444,1.0,0,0.444444444444444,0.298245614035088,0,0.25,1.0,ReadingArea_rsl0-rcl69-esl100-rsm0-rcm44-esm29-rsr0-rcr25-esr100,exr/ReadingArea_rsl0-rcl69-esl100-rsm0-rcm44-esm29-rsr0-rcr25-esr100.exr,ReadingArea_rsl0-rcl69-esl100-rsm0-rcm44-esm29-rsr0-rcr25-esr100.npz,,,,,0,126,126,180,,right,red,0.89,406.40694189071655,,,,2,AS,1,lightness,readingArea,mean,72,2023-03-10_14h13.04.417,tripletExp_regina_11082022,2022.2.4,120.20646270688545,
9,2,5,0,0.444444444444444,1.0,0,0.25,0.298245614035088,0,1.0,0.298245614035088,ReadingArea_rsl0-rcl44-esl100-rsm0-rcm25-esm29-rsr0-rcr100-esr29,exr/ReadingArea_rsl0-rcl44-esl100-rsm0-rcm25-esm29-rsr0-rcr100-esr29.exr,ReadingArea_rsl0-rcl44-esl100-rsm0-rcm25-esm29-rsr0-rcr100-esr29.npz,,,,,0,127,127,395,,right,red,0.89,408.4554369449616,408.850564956665,,,2,AS,1,lightness,readingArea,mean,72,2023-03-10_14h13.04.417,tripletExp_regina_11082022,2022.2.4,120.20646270688545,
11,2,12,0,1.0,1.0,0,0.25,0.298245614035088,0,0.027777777777778,3.10526315789474,ReadingArea_rsl0-rcl100-esl100-rsm0-rcm25-esm29-rsr0-rcr2-esr310,exr/ReadingArea_rsl0-rcl100-esl100-rsm0-rcm25-esm29-rsr0-rcr2-esr310.exr,ReadingArea_rsl0-rcl100-esl100-rsm0-rcm25-esm29-rsr0-rcr2-esr310.npz,,,,,0,128,128,486,,right,red,0.83,410.5630600452423,410.9023139476776,,,2,AS,1,lightness,readingArea,mean,72,2023-03-10_14h13.04.417,tripletExp_regina_11082022,2022.2.4,120.20646270688545,
11,5,6,0,1.0,1.0,0,1.0,0.298245614035088,0,0.027777777777778,1.0,ReadingArea_rsl0-rcl100-esl100-rsm0-rcm100-esm29-rsr0-rcr2-esr100,exr/ReadingArea_rsl0-rcl100-esl100-rsm0-rcm100-esm29-rsr0-rcr2-esr100.exr,ReadingArea_rsl0-rcl100-esl100-rsm0-rcm100-esm29-rsr0-rcr2-esr100.npz,,,,,0,129,129,188,,right,red,1.12,412.61466908454895,412.9544630050659,,,2,AS,1,lightness,readingArea,mean,72,2023-03-10_14h13.04.417,tripletExp_regina_11082022,2022.2.4,120.20646270688545,
12,14,9,0,0.027777777777778,3.10526315789474,0,0.25,3.10526315789474,0,0.444444444444444,1.0,ReadingArea_rsl0-rcl2-esl310-rsm0-rcm25-esm310-rsr0-rcr44-esr100,exr/ReadingArea_rsl0-rcl2-esl310-rsm0-rcm25-esm310-rsr0-rcr44-esr100.exr,ReadingArea_rsl0-rcl2-esl310-rsm0-rcm25-esm310-rsr0-rcr44-esr100.npz,,,,,0,130,130,366,,right,red,0.94,414.6547029018402,415.00220799446106,,,2,AS,1,lightness,readingArea,mean,72,2023-03-10_14h13.04.417,tripletExp_regina_11082022,2022.2.4,120.20646270688545,
8,14,1,0,0.25,1.0,0,0.25,3.10526315789474,0,0.111111111111111,0.298245614035088,ReadingArea_rsl0-rcl25-esl100-rsm0-rcm25-esm310-rsr0-rcr11-esr29,exr/ReadingArea_rsl0-rcl25-esl100-rsm0-rcm25-esm310-rsr0-rcr11-esr29.exr,ReadingArea_rsl0-rcl25-esl100-rsm0-rcm25-esm310-rsr0-rcr11-esr29.npz,,,,,0,131,131,18,,left,green,1.14,416.72541308403015,417.07190990448,,,2,AS,1,lightness,readingArea,mean,72,2023-03-10_14h13.04.417,tripletExp_regina_11082022,2022.2.4,120.20646270688545,
11,10,14,0,1.0,1.0,0,0.694444444444444,1.0,0,0.25,3.10526315789474,ReadingArea_rsl0-rcl100-esl100-rsm0-rcm69-esm100-rsr0-rcr25-esr310,exr/ReadingArea_rsl0-rcl100-esl100-rsm0-rcm69-esm100-rsr0-rcr25-esr310.exr,ReadingArea_rsl0-rcl100-esl100-rsm0-rcm69-esm100-rsr0-rcr25-esr310.npz,,,,,0,132,132,171,,right,red,1.11,418.7782819271088,419.1350679397583,,,2,AS,1,lightness,readingArea,mean,72,2023-03-10_14h13.04.417,tripletExp_regina_11082022,2022.2.4,120.20646270688545,
4,8,11,0,0.694444444444444,0.298245614035088,0,0.25,1.0,0,1.0,1.0,ReadingArea_rsl0-rcl69-esl29-rsm0-rcm25-esm100-rsr0-rcr100-esr100,exr/ReadingArea_rsl0-rcl69-esl29-rsm0-rcm25-esm100-rsr0-rcr100-esr100.exr,ReadingArea_rsl0-rcl69-esl29-rsm0-rcm25-esm100-rsr0-rcr100-esr100.npz,,,,,0,133,133,39,,left,green,0.91,420.8414239883423,421.20606994628906,,,2,AS,1,lightness,readingArea,mean,72,2023-03-10_14h13.04.417,tripletExp_regina_11082022,2022.2.4,120.20646270688545,
5,8,6,0,1.0,0.298245614035088,0,0.25,1.0,0,0.027777777777778,1.0,ReadingArea_rsl0-rcl100-esl29-rsm0-rcm25-esm100-rsr0-rcr2-esr100,exr/ReadingArea_rsl0-rcl100-esl29-rsm0-rcm25-esm100-rsr0-rcr2-esr100.exr,ReadingArea_rsl0-rcl100-esl29-rsm0-rcm25-esm100-rsr0-rcr2-esr100.npz,,,,,0,134,134,468,,left,green,1.01,422.9292891025543,423.2768239974976,,,2,AS,1,lightness,readingArea,mean,72,2023-03-10_14h13.04.417,tripletExp_regina_11082022,2022.2.4,120.20646270688545,
5,3,14,0,1.0,0.298245614035088,0,0.444444444444444,0.298245614035088,0,0.25,3.10526315789474,ReadingArea_rsl0-rcl100-esl29-rsm0-rcm44-esm29-rsr0-rcr25-esr310,exr/ReadingArea_rsl0-rcl100-esl29-rsm0-rcm44-esm29-rsr0-rcr25-esr310.exr,ReadingArea_rsl0-rcl100-esl29-rsm0-rcm44-esm29-rsr0-rcr25-esr310.npz,,,,,0,135,135,37,,left,green,0.89,424.9932780265808,425.3426649570465,,,2,AS,1,lightness,readingArea,mean,72,2023-03-10_14h13.04.417,tripletExp_regina_11082022,2022.2.4,120.20646270688545,
0,13,8,0,0.027777777777778,0.298245614035088,0,0.111111111111111,3.10526315789474,0,0.25,1.0,ReadingArea_rsl0-rcl2-esl29-rsm0-rcm11-esm310-rsr0-rcr25-esr100,exr/ReadingArea_rsl0-rcl2-esl29-rsm0-rcm11-esm310-rsr0-rcr25-esr100.exr,ReadingArea_rsl0-rcl2-esl29-rsm0-rcm11-esm310-rsr0-rcr25-esr100.npz,,,,,0,136,136,400,,right,red,0.97,427.0349249839783,,,,2,AS,1,lightness,readingArea,mean,72,2023-03-10_14h13.04.417,tripletExp_regina_11082022,2022.2.4,120.20646270688545,
7,6,0,0,0.111111111111111,1.0,0,0.027777777777778,1.0,0,0.027777777777778,0.298245614035088,ReadingArea_rsl0-rcl11-esl100-rsm0-rcm2-esm100-rsr0-rcr2-esr29,exr/ReadingArea_rsl0-rcl11-esl100-rsm0-rcm2-esm100-rsr0-rcr2-esr29.exr,ReadingArea_rsl0-rcl11-esl100-rsm0-rcm2-esm100-rsr0-rcr2-esr29.npz,,,,,0,137,137,138,,right,red,1.04,429.0670499801636,429.42262506484985,,,2,AS,1,lightness,readingArea,mean,72,2023-03-10_14h13.04.417,tripletExp_regina_11082022,2022.2.4,120.20646270688545,
3,11,7,0,0.444444444444444,0.298245614035088,0,1.0,1.0,0,0.111111111111111,1.0,ReadingArea_rsl0-rcl44-esl29-rsm0-rcm100-esm100-rsr0-rcr11-esr100,exr/ReadingArea_rsl0-rcl44-esl29-rsm0-rcm100-esm100-rsr0-rcr11-esr100.exr,ReadingArea_rsl0-rcl44-esl29-rsm0-rcm100-esm100-rsr0-rcr11-esr100.npz,,,,,0,138,138,404,,left,green,1.05,431.1339530944824,431.4750430583954,,,2,AS,1,lightness,readingArea,mean,72,2023-03-10_14h13.04.417,tripletExp_regina_11082022,2022.2.4,120.20646270688545,
11,8,3,0,1.0,1.0,0,0.25,1.0,0,0.444444444444444,0.298245614035088,ReadingArea_rsl0-rcl100-esl100-rsm0-rcm25-esm100-rsr0-rcr44-esr29,exr/ReadingArea_rsl0-rcl100-esl100-rsm0-rcm25-esm100-rsr0-rcr44-esr29.exr,ReadingArea_rsl0-rcl100-esl100-rsm0-rcm25-esm100-rsr0-rcr44-esr29.npz,,,,,0,139,139,198,,right,red,0.93,433.1639189720154,433.5090229511261,,,2,AS,1,lightness,readingArea,mean,72,2023-03-10_14h13.04.417,tripletExp_regina_11082022,2022.2.4,120.20646270688545,
10,3,2,0,0.694444444444444,1.0,0,0.444444444444444,0.298245614035088,0,0.25,0.298245614035088,ReadingArea_rsl0-rcl69-esl100-rsm0-rcm44-esm29-rsr0-rcr25-esr29,exr/ReadingArea_rsl0-rcl69-esl100-rsm0-rcm44-esm29-rsr0-rcr25-esr29.exr,ReadingArea_rsl0-rcl69-esl100-rsm0-rcm44-esm29-rsr0-rcr25-esr29.npz,,,,,0,140,140,287,,right,red,0.91,435.2285599708557,435.576427936554,,,2,AS,1,lightness,readingArea,mean,72,2023-03-10_14h13.04.417,tripletExp_regina_11082022,2022.2.4,120.20646270688545,
10,9,3,0,0.694444444444444,1.0,0,0.444444444444444,1.0,0,0.444444444444444,0.298245614035088,ReadingArea_rsl0-rcl69-esl100-rsm0-rcm44-esm100-rsr0-rcr44-esr29,exr/ReadingArea_rsl0-rcl69-esl100-rsm0-rcm44-esm100-rsr0-rcr44-esr29.exr,ReadingArea_rsl0-rcl69-esl100-rsm0-rcm44-esm100-rsr0-rcr44-esr29.npz,,,,,0,141,141,461,,left,green,1.02,437.2849540710449,437.6242389678955,,,2,AS,1,lightness,readingArea,mean,72,2023-03-10_14h13.04.417,tripletExp_regina_11082022,2022.2.4,120.20646270688545,
5,9,10,0,1.0,0.298245614035088,0,0.444444444444444,1.0,0,0.694444444444444,1.0,ReadingArea_rsl0-rcl100-esl29-rsm0-rcm44-esm100-rsr0-rcr69-esr100,exr/ReadingArea_rsl0-rcl100-esl29-rsm0-rcm44-esm100-rsr0-rcr69-esr100.exr,ReadingArea_rsl0-rcl100-esl29-rsm0-rcm44-esm100-rsr0-rcr69-esr100.npz,,,,,0,142,142,343,,left,green,1.25,439.3222959041596,439.6554698944092,,,2,AS,1,lightness,readingArea,mean,72,2023-03-10_14h13.04.417,tripletExp_regina_11082022,2022.2.4,120.20646270688545,
14,5,3,0,0.25,3.10526315789474,0,1.0,0.298245614035088,0,0.444444444444444,0.298245614035088,ReadingArea_rsl0-rcl25-esl310-rsm0-rcm100-esm29-rsr0-rcr44-esr29,exr/ReadingArea_rsl0-rcl25-esl310-rsm0-rcm100-esm29-rsr0-rcr44-esr29.exr,ReadingArea_rsl0-rcl25-esl310-rsm0-rcm100-esm29-rsr0-rcr44-esr29.npz,,,,,0,143,143,270,,left,green,1.19,441.3593089580536,441.5607559680939,,,2,AS,1,lightness,readingArea,mean,72,2023-03-10_14h13.04.417,tripletExp_regina_11082022,2022.2.4,120.20646270688545,
3,6,14,0,0.444444444444444,0.298245614035088,0,0.027777777777778,1.0,0,0.25,3.10526315789474,ReadingArea_rsl0-rcl44-esl29-rsm0-rcm2-esm100-rsr0-rcr25-esr310,exr/ReadingArea_rsl0-rcl44-esl29-rsm0-rcm2-esm100-rsr0-rcr25-esr310.exr,ReadingArea_rsl0-rcl44-esl29-rsm0-rcm2-esm100-rsr0-rcr25-esr310.npz,,,,,0,144,144,490,,left,green,1.11,446.9398360252381,447.27646803855896,,,3,AS,1,lightness,readingArea,mean,72,2023-03-10_14h13.04.417,tripletExp_regina_11082022,2022.2.4,120.20646270688545,
14,11,3,0,0.25,3.10526315789474,0,1.0,1.0,0,0.444444444444444,0.298245614035088,ReadingArea_rsl0-rcl25-esl310-rsm0-rcm100-esm100-rsr0-rcr44-esr29,exr/ReadingArea_rsl0-rcl25-esl310-rsm0-rcm100-esm100-rsr0-rcr44-esr29.exr,ReadingArea_rsl0-rcl25-esl310-rsm0-rcm100-esm100-rsr0-rcr44-esr29.npz,,,,,0,145,145,247,,left,green,0.77,448.9775230884552,449.31676197052,,,3,AS,1,lightness,readingArea,mean,72,2023-03-10_14h13.04.417,tripletExp_regina_11082022,2022.2.4,120.20646270688545,
1,11,6,0,0.111111111111111,0.298245614035088,0,1.0,1.0,0,0.027777777777778,1.0,ReadingArea_rsl0-rcl11-esl29-rsm0-rcm100-esm100-rsr0-rcr2-esr100,exr/ReadingArea_rsl0-rcl11-esl29-rsm0-rcm100-esm100-rsr0-rcr2-esr100.exr,ReadingArea_rsl0-rcl11-esl29-rsm0-rcm100-esm100-rsr0-rcr2-esr100.npz,,,,,0,146,146,57,,left,green,1.23,451.01334404945374,,,,3,AS,1,lightness,readingArea,mean,72,2023-03-10_14h13.04.417,tripletExp_regina_11082022,2022.2.4,120.20646270688545,
13,10,9,0,0.111111111111111,3.10526315789474,0,0.694444444444444,1.0,0,0.444444444444444,1.0,ReadingArea_rsl0-rcl11-esl310-rsm0-rcm69-esm100-rsr0-rcr44-esr100,exr/ReadingArea_rsl0-rcl11-esl310-rsm0-rcm69-esm100-rsr0-rcr44-esr100.exr,ReadingArea_rsl0-rcl11-esl310-rsm0-rcm69-esm100-rsr0-rcr44-esr100.npz,,,,,0,147,147,224,,right,red,2.93,454.84101605415344,455.18700194358826,,,3,AS,1,lightness,readingArea,mean,72,2023-03-10_14h13.04.417,tripletExp_regina_11082022,2022.2.4,120.20646270688545,
3,5,14,0,0.444444444444444,0.298245614035088,0,1.0,0.298245614035088,0,0.25,3.10526315789474,ReadingArea_rsl0-rcl44-esl29-rsm0-rcm100-esm29-rsr0-rcr25-esr310,exr/ReadingArea_rsl0-rcl44-esl29-rsm0-rcm100-esm29-rsr0-rcr25-esr310.exr,ReadingArea_rsl0-rcl44-esl29-rsm0-rcm100-esm29-rsr0-rcr25-esr310.npz,,,,,0,148,148,167,,left,green,1.28,456.877436876297,457.30965995788574,,,3,AS,1,lightness,readingArea,mean,72,2023-03-10_14h13.04.417,tripletExp_regina_11082022,2022.2.4,120.20646270688545,
10,1,9,0,0.694444444444444,1.0,0,0.111111111111111,0.298245614035088,0,0.444444444444444,1.0,ReadingArea_rsl0-rcl69-esl100-rsm0-rcm11-esm29-rsr0-rcr44-esr100,exr/ReadingArea_rsl0-rcl69-esl100-rsm0-rcm11-esm29-rsr0-rcr44-esr100.exr,ReadingArea_rsl0-rcl69-esl100-rsm0-rcm11-esm29-rsr0-rcr44-esr100.npz,,,,,0,149,149,58,,right,red,1.33,459.01702404022217,459.3705508708954,,,3,AS,1,lightness,readingArea,mean,72,2023-03-10_14h13.04.417,tripletExp_regina_11082022,2022.2.4,120.20646270688545,
7,2,12,0,0.111111111111111,1.0,0,0.25,0.298245614035088,0,0.027777777777778,3.10526315789474,ReadingArea_rsl0-rcl11-esl100-rsm0-rcm25-esm29-rsr0-rcr2-esr310,exr/ReadingArea_rsl0-rcl11-esl100-rsm0-rcm25-esm29-rsr0-rcr2-esr310.exr,ReadingArea_rsl0-rcl11-esl100-rsm0-rcm25-esm29-rsr0-rcr2-esr310.npz,,,,,0,150,150,73,,right,red,1.13,461.0907480716705,,,,3,AS,1,lightness,readingArea,mean,72,2023-03-10_14h13.04.417,tripletExp_regina_11082022,2022.2.4,120.20646270688545,
3,13,12,0,0.444444444444444,0.298245614035088,0,0.111111111111111,3.10526315789474,0,0.027777777777778,3.10526315789474,ReadingArea_rsl0-rcl44-esl29-rsm0-rcm11-esm310-rsr0-rcr2-esr310,exr/ReadingArea_rsl0-rcl44-esl29-rsm0-rcm11-esm310-rsr0-rcr2-esr310.exr,ReadingArea_rsl0-rcl44-esl29-rsm0-rcm11-esm310-rsr0-rcr2-esr310.npz,,,,,0,151,151,109,,left,green,1.14,463.12417101860046,,,,3,AS,1,lightness,readingArea,mean,72,2023-03-10_14h13.04.417,tripletExp_regina_11082022,2022.2.4,120.20646270688545,
13,8,1,0,0.111111111111111,3.10526315789474,0,0.25,1.0,0,0.111111111111111,0.298245614035088,ReadingArea_rsl0-rcl11-esl310-rsm0-rcm25-esm100-rsr0-rcr11-esr29,exr/ReadingArea_rsl0-rcl11-esl310-rsm0-rcm25-esm100-rsr0-rcr11-esr29.exr,ReadingArea_rsl0-rcl11-esl310-rsm0-rcm25-esm100-rsr0-rcr11-esr29.npz,,,,,0,152,152,499,,left,green,1.33,465.1857569217682,465.5319480895996,,,3,AS,1,lightness,readingArea,mean,72,2023-03-10_14h13.04.417,tripletExp_regina_11082022,2022.2.4,120.20646270688545,
1,0,12,0,0.111111111111111,0.298245614035088,0,0.027777777777778,0.298245614035088,0,0.027777777777778,3.10526315789474,ReadingArea_rsl0-rcl11-esl29-rsm0-rcm2-esm29-rsr0-rcr2-esr310,exr/ReadingArea_rsl0-rcl11-esl29-rsm0-rcm2-esm29-rsr0-rcr2-esr310.exr,ReadingArea_rsl0-rcl11-esl29-rsm0-rcm2-esm29-rsr0-rcr2-esr310.npz,,,,,0,153,153,417,,left,green,1.14,467.2183809280396,467.58158898353577,,,3,AS,1,lightness,readingArea,mean,72,2023-03-10_14h13.04.417,tripletExp_regina_11082022,2022.2.4,120.20646270688545,
8,13,2,0,0.25,1.0,0,0.111111111111111,3.10526315789474,0,0.25,0.298245614035088,ReadingArea_rsl0-rcl25-esl100-rsm0-rcm11-esm310-rsr0-rcr25-esr29,exr/ReadingArea_rsl0-rcl25-esl100-rsm0-rcm11-esm310-rsr0-rcr25-esr29.exr,ReadingArea_rsl0-rcl25-esl100-rsm0-rcm11-esm310-rsr0-rcr25-esr29.npz,,,,,0,154,154,259,,left,green,1.08,469.2985570430756,469.6529378890991,,,3,AS,1,lightness,readingArea,mean,72,2023-03-10_14h13.04.417,tripletExp_regina_11082022,2022.2.4,120.20646270688545,
0,5,13,0,0.027777777777778,0.298245614035088,0,1.0,0.298245614035088,0,0.111111111111111,3.10526315789474,ReadingArea_rsl0-rcl2-esl29-rsm0-rcm100-esm29-rsr0-rcr11-esr310,exr/ReadingArea_rsl0-rcl2-esl29-rsm0-rcm100-esm29-rsr0-rcr11-esr310.exr,ReadingArea_rsl0-rcl2-esl29-rsm0-rcm100-esm29-rsr0-rcr11-esr310.npz,,,,,0,155,155,320,,right,red,0.79,471.3611350059509,471.71869802474976,,,3,AS,1,lightness,readingArea,mean,72,2023-03-10_14h13.04.417,tripletExp_regina_11082022,2022.2.4,120.20646270688545,
9,11,1,0,0.444444444444444,1.0,0,1.0,1.0,0,0.111111111111111,0.298245614035088,ReadingArea_rsl0-rcl44-esl100-rsm0-rcm100-esm100-rsr0-rcr11-esr29,exr/ReadingArea_rsl0-rcl44-esl100-rsm0-rcm100-esm100-rsr0-rcr11-esr29.exr,ReadingArea_rsl0-rcl44-esl100-rsm0-rcm100-esm100-rsr0-rcr11-esr29.npz,,,,,0,156,156,257,,left,green,0.83,473.4155728816986,473.7564640045166,,,3,AS,1,lightness,readingArea,mean,72,2023-03-10_14h13.04.417,tripletExp_regina_11082022,2022.2.4,120.20646270688545,
5,9,8,0,1.0,0.298245614035088,0,0.444444444444444,1.0,0,0.25,1.0,ReadingArea_rsl0-rcl100-esl29-rsm0-rcm44-esm100-rsr0-rcr25-esr100,exr/ReadingArea_rsl0-rcl100-esl29-rsm0-rcm44-esm100-rsr0-rcr25-esr100.exr,ReadingArea_rsl0-rcl100-esl29-rsm0-rcm44-esm100-rsr0-rcr25-esr100.npz,,,,,0,157,157,75,,left,green,1.0,475.47227001190186,475.8297441005707,,,3,AS,1,lightness,readingArea,mean,72,2023-03-10_14h13.04.417,tripletExp_regina_11082022,2022.2.4,120.20646270688545,
12,1,9,0,0.027777777777778,3.10526315789474,0,0.111111111111111,0.298245614035088,0,0.444444444444444,1.0,ReadingArea_rsl0-rcl2-esl310-rsm0-rcm11-esm29-rsr0-rcr44-esr100,exr/ReadingArea_rsl0-rcl2-esl310-rsm0-rcm11-esm29-rsr0-rcr44-esr100.exr,ReadingArea_rsl0-rcl2-esl310-rsm0-rcm11-esm29-rsr0-rcr44-esr100.npz,,,,,0,158,158,346,,left,green,0.91,477.5520310401917,477.9140899181366,,,3,AS,1,lightness,readingArea,mean,72,2023-03-10_14h13.04.417,tripletExp_regina_11082022,2022.2.4,120.20646270688545,
2,7,0,0,0.25,0.298245614035088,0,0.111111111111111,1.0,0,0.027777777777778,0.298245614035088,ReadingArea_rsl0-rcl25-esl29-rsm0-rcm11-esm100-rsr0-rcr2-esr29,exr/ReadingArea_rsl0-rcl25-esl29-rsm0-rcm11-esm100-rsr0-rcr2-esr29.exr,ReadingArea_rsl0-rcl25-esl29-rsm0-rcm11-esm100-rsr0-rcr2-esr29.npz,,,,,0,159,159,492,,left,green,0.88,479.60458993911743,479.96139788627625,,,3,AS,1,lightness,readingArea,mean,72,2023-03-10_14h13.04.417,tripletExp_regina_11082022,2022.2.4,120.20646270688545,
7,8,1,0,0.111111111111111,1.0,0,0.25,1.0,0,0.111111111111111,0.298245614035088,ReadingArea_rsl0-rcl11-esl100-rsm0-rcm25-esm100-rsr0-rcr11-esr29,exr/ReadingArea_rsl0-rcl11-esl100-rsm0-rcm25-esm100-rsr0-rcr11-esr29.exr,ReadingArea_rsl0-rcl11-esl100-rsm0-rcm25-esm100-rsr0-rcr11-esr29.npz,,,,,0,160,160,238,,left,green,1.17,481.67413687706,482.02168798446655,,,3,AS,1,lightness,readingArea,mean,72,2023-03-10_14h13.04.417,tripletExp_regina_11082022,2022.2.4,120.20646270688545,
14,3,13,0,0.25,3.10526315789474,0,0.444444444444444,0.298245614035088,0,0.111111111111111,3.10526315789474,ReadingArea_rsl0-rcl25-esl310-rsm0-rcm44-esm29-rsr0-rcr11-esr310,exr/ReadingArea_rsl0-rcl25-esl310-rsm0-rcm44-esm29-rsr0-rcr11-esr310.exr,ReadingArea_rsl0-rcl25-esl310-rsm0-rcm44-esm29-rsr0-rcr11-esr310.npz,,,,,0,161,161,97,,right,red,1.22,483.7308928966522,484.0769989490509,,,3,AS,1,lightness,readingArea,mean,72,2023-03-10_14h13.04.417,tripletExp_regina_11082022,2022.2.4,120.20646270688545,
3,6,13,0,0.444444444444444,0.298245614035088,0,0.027777777777778,1.0,0,0.111111111111111,3.10526315789474,ReadingArea_rsl0-rcl44-esl29-rsm0-rcm2-esm100-rsr0-rcr11-esr310,exr/ReadingArea_rsl0-rcl44-esl29-rsm0-rcm2-esm100-rsr0-rcr11-esr310.exr,ReadingArea_rsl0-rcl44-esl29-rsm0-rcm2-esm100-rsr0-rcr11-esr310.npz,,,,,0,162,162,349,,left,green,1.2,485.7710340023041,486.1217370033264,,,3,AS,1,lightness,readingArea,mean,72,2023-03-10_14h13.04.417,tripletExp_regina_11082022,2022.2.4,120.20646270688545,
4,13,6,0,0.694444444444444,0.298245614035088,0,0.111111111111111,3.10526315789474,0,0.027777777777778,1.0,ReadingArea_rsl0-rcl69-esl29-rsm0-rcm11-esm310-rsr0-rcr2-esr100,exr/ReadingArea_rsl0-rcl69-esl29-rsm0-rcm11-esm310-rsr0-rcr2-esr100.exr,ReadingArea_rsl0-rcl69-esl29-rsm0-rcm11-esm310-rsr0-rcr2-esr100.npz,,,,,0,163,163,207,,left,green,1.12,487.8448460102081,488.2217059135437,,,3,AS,1,lightness,readingArea,mean,72,2023-03-10_14h13.04.417,tripletExp_regina_11082022,2022.2.4,120.20646270688545,
6,0,8,0,0.027777777777778,1.0,0,0.027777777777778,0.298245614035088,0,0.25,1.0,ReadingArea_rsl0-rcl2-esl100-rsm0-rcm2-esm29-rsr0-rcr25-esr100,exr/ReadingArea_rsl0-rcl2-esl100-rsm0-rcm2-esm29-rsr0-rcr25-esr100.exr,ReadingArea_rsl0-rcl2-esl100-rsm0-rcm2-esm29-rsr0-rcr25-esr100.npz,,,,,0,164,164,125,,left,green,1.05,489.91236209869385,490.2939229011536,,,3,AS,1,lightness,readingArea,mean,72,2023-03-10_14h13.04.417,tripletExp_regina_11082022,2022.2.4,120.20646270688545,
6,2,3,0,0.027777777777778,1.0,0,0.25,0.298245614035088,0,0.444444444444444,0.298245614035088,ReadingArea_rsl0-rcl2-esl100-rsm0-rcm25-esm29-rsr0-rcr44-esr29,exr/ReadingArea_rsl0-rcl2-esl100-rsm0-rcm25-esm29-rsr0-rcr44-esr29.exr,ReadingArea_rsl0-rcl2-esl100-rsm0-rcm25-esm29-rsr0-rcr44-esr29.npz,,,,,0,165,165,29,,left,green,1.23,492.008348941803,492.3555738925934,,,3,AS,1,lightness,readingArea,mean,72,2023-03-10_14h13.04.417,tripletExp_regina_11082022,2022.2.4,120.20646270688545,
14,10,7,0,0.25,3.10526315789474,0,0.694444444444444,1.0,0,0.111111111111111,1.0,ReadingArea_rsl0-rcl25-esl310-rsm0-rcm69-esm100-rsr0-rcr11-esr100,exr/ReadingArea_rsl0-rcl25-esl310-rsm0-rcm69-esm100-rsr0-rcr11-esr100.exr,ReadingArea_rsl0-rcl25-esl310-rsm0-rcm69-esm100-rsr0-rcr11-esr100.npz,,,,,0,166,166,203,,left,green,1.34,494.0659470558167,494.41638803482056,,,3,AS,1,lightness,readingArea,mean,72,2023-03-10_14h13.04.417,tripletExp_regina_11082022,2022.2.4,120.20646270688545,
2,0,9,0,0.25,0.298245614035088,0,0.027777777777778,0.298245614035088,0,0.444444444444444,1.0,ReadingArea_rsl0-rcl25-esl29-rsm0-rcm2-esm29-rsr0-rcr44-esr100,exr/ReadingArea_rsl0-rcl25-esl29-rsm0-rcm2-esm29-rsr0-rcr44-esr100.exr,ReadingArea_rsl0-rcl25-esl29-rsm0-rcm2-esm29-rsr0-rcr44-esr100.npz,,,,,0,167,167,388,,left,green,1.75,496.1079959869385,496.4574689865112,,,3,AS,1,lightness,readingArea,mean,72,2023-03-10_14h13.04.417,tripletExp_regina_11082022,2022.2.4,120.20646270688545,
4,2,5,0,0.694444444444444,0.298245614035088,0,0.25,0.298245614035088,0,1.0,0.298245614035088,ReadingArea_rsl0-rcl69-esl29-rsm0-rcm25-esm29-rsr0-rcr100-esr29,exr/ReadingArea_rsl0-rcl69-esl29-rsm0-rcm25-esm29-rsr0-rcr100-esr29.exr,ReadingArea_rsl0-rcl69-esl29-rsm0-rcm25-esm29-rsr0-rcr100-esr29.npz,,,,,0,168,168,483,,left,green,1.61,498.1458780765533,,,,3,AS,1,lightness,readingArea,mean,72,2023-03-10_14h13.04.417,tripletExp_regina_11082022,2022.2.4,120.20646270688545,
0,8,2,0,0.027777777777778,0.298245614035088,0,0.25,1.0,0,0.25,0.298245614035088,ReadingArea_rsl0-rcl2-esl29-rsm0-rcm25-esm100-rsr0-rcr25-esr29,exr/ReadingArea_rsl0-rcl2-esl29-rsm0-rcm25-esm100-rsr0-rcr25-esr29.exr,ReadingArea_rsl0-rcl2-esl29-rsm0-rcm25-esm100-rsr0-rcr25-esr29.npz,,,,,0,169,169,297,,right,red,1.01,500.1967000961304,500.5686180591583,,,3,AS,1,lightness,readingArea,mean,72,2023-03-10_14h13.04.417,tripletExp_regina_11082022,2022.2.4,120.20646270688545,
13,8,7,0,0.111111111111111,3.10526315789474,0,0.25,1.0,0,0.111111111111111,1.0,ReadingArea_rsl0-rcl11-esl310-rsm0-rcm25-esm100-rsr0-rcr11-esr100,exr/ReadingArea_rsl0-rcl11-esl310-rsm0-rcm25-esm100-rsr0-rcr11-esr100.exr,ReadingArea_rsl0-rcl11-esl310-rsm0-rcm25-esm100-rsr0-rcr11-esr100.npz,,,,,0,170,170,13,,left,green,1.51,502.29021096229553,502.6416389942169,,,3,AS,1,lightness,readingArea,mean,72,2023-03-10_14h13.04.417,tripletExp_regina_11082022,2022.2.4,120.20646270688545,
4,9,2,0,0.694444444444444,0.298245614035088,0,0.444444444444444,1.0,0,0.25,0.298245614035088,ReadingArea_rsl0-rcl69-esl29-rsm0-rcm44-esm100-rsr0-rcr25-esr29,exr/ReadingArea_rsl0-rcl69-esl29-rsm0-rcm44-esm100-rsr0-rcr25-esr29.exr,ReadingArea_rsl0-rcl69-esl29-rsm0-rcm44-esm100-rsr0-rcr25-esr29.npz,,,,,0,171,171,446,,left,green,1.03,504.34910106658936,504.6950500011444,,,3,AS,1,lightness,readingArea,mean,72,2023-03-10_14h13.04.417,tripletExp_regina_11082022,2022.2.4,120.20646270688545,
11,1,3,0,1.0,1.0,0,0.111111111111111,0.298245614035088,0,0.444444444444444,0.298245614035088,ReadingArea_rsl0-rcl100-esl100-rsm0-rcm11-esm29-rsr0-rcr44-esr29,exr/ReadingArea_rsl0-rcl100-esl100-rsm0-rcm11-esm29-rsr0-rcr44-esr29.exr,ReadingArea_rsl0-rcl100-esl100-rsm0-rcm11-esm29-rsr0-rcr44-esr29.npz,,,,,0,172,172,398,,right,red,0.9,506.3933320045471,506.7590899467468,,,3,AS,1,lightness,readingArea,mean,72,2023-03-10_14h13.04.417,tripletExp_regina_11082022,2022.2.4,120.20646270688545,
0,3,8,0,0.027777777777778,0.298245614035088,0,0.444444444444444,0.298245614035088,0,0.25,1.0,ReadingArea_rsl0-rcl2-esl29-rsm0-rcm44-esm29-rsr0-rcr25-esr100,exr/ReadingArea_rsl0-rcl2-esl29-rsm0-rcm44-esm29-rsr0-rcr25-esr100.exr,ReadingArea_rsl0-rcl2-esl29-rsm0-rcm44-esm29-rsr0-rcr25-esr100.npz,,,,,0,173,173,439,,right,red,0.81,508.4673850536346,508.8039789199829,,,3,AS,1,lightness,readingArea,mean,72,2023-03-10_14h13.04.417,tripletExp_regina_11082022,2022.2.4,120.20646270688545,
2,6,8,0,0.25,0.298245614035088,0,0.027777777777778,1.0,0,0.25,1.0,ReadingArea_rsl0-rcl25-esl29-rsm0-rcm2-esm100-rsr0-rcr25-esr100,exr/ReadingArea_rsl0-rcl25-esl29-rsm0-rcm2-esm100-rsr0-rcr25-esr100.exr,ReadingArea_rsl0-rcl25-esl29-rsm0-rcm2-esm100-rsr0-rcr25-esr100.npz,,,,,0,174,174,268,,left,green,0.95,510.5047130584717,510.8475060462952,,,3,AS,1,lightness,readingArea,mean,72,2023-03-10_14h13.04.417,tripletExp_regina_11082022,2022.2.4,120.20646270688545,
7,4,5,0,0.111111111111111,1.0,0,0.694444444444444,0.298245614035088,0,1.0,0.298245614035088,ReadingArea_rsl0-rcl11-esl100-rsm0-rcm69-esm29-rsr0-rcr100-esr29,exr/ReadingArea_rsl0-rcl11-esl100-rsm0-rcm69-esm29-rsr0-rcr100-esr29.exr,ReadingArea_rsl0-rcl11-esl100-rsm0-rcm69-esm29-rsr0-rcr100-esr29.npz,,,,,0,175,175,4,,right,red,0.9,512.5438070297241,512.8881618976593,,,3,AS,1,lightness,readingArea,mean,72,2023-03-10_14h13.04.417,tripletExp_regina_11082022,2022.2.4,120.20646270688545,
0,10,1,0,0.027777777777778,0.298245614035088,0,0.694444444444444,1.0,0,0.111111111111111,0.298245614035088,ReadingArea_rsl0-rcl2-esl29-rsm0-rcm69-esm100-rsr0-rcr11-esr29,exr/ReadingArea_rsl0-rcl2-esl29-rsm0-rcm69-esm100-rsr0-rcr11-esr29.exr,ReadingArea_rsl0-rcl2-esl29-rsm0-rcm69-esm100-rsr0-rcr11-esr29.npz,,,,,0,176,176,331,,right,red,1.14,514.5755200386047,514.9249711036682,,,3,AS,1,lightness,readingArea,mean,72,2023-03-10_14h13.04.417,tripletExp_regina_11082022,2022.2.4,120.20646270688545,
12,14,6,0,0.027777777777778,3.10526315789474,0,0.25,3.10526315789474,0,0.027777777777778,1.0,ReadingArea_rsl0-rcl2-esl310-rsm0-rcm25-esm310-rsr0-rcr2-esr100,exr/ReadingArea_rsl0-rcl2-esl310-rsm0-rcm25-esm310-rsr0-rcr2-esr100.exr,ReadingArea_rsl0-rcl2-esl310-rsm0-rcm25-esm310-rsr0-rcr2-esr100.npz,,,,,0,177,177,151,,left,green,1.09,516.6339499950409,517.0093469619751,,,3,AS,1,lightness,readingArea,mean,72,2023-03-10_14h13.04.417,tripletExp_regina_11082022,2022.2.4,120.20646270688545,
11,12,14,0,1.0,1.0,0,0.027777777777778,3.10526315789474,0,0.25,3.10526315789474,ReadingArea_rsl0-rcl100-esl100-rsm0-rcm2-esm310-rsr0-rcr25-esr310,exr/ReadingArea_rsl0-rcl100-esl100-rsm0-rcm2-esm310-rsr0-rcr25-esr310.exr,ReadingArea_rsl0-rcl100-esl100-rsm0-rcm2-esm310-rsr0-rcr25-esr310.npz,,,,,0,178,178,278,,right,red,1.14,518.7293949127197,519.0826489925385,,,3,AS,1,lightness,readingArea,mean,72,2023-03-10_14h13.04.417,tripletExp_regina_11082022,2022.2.4,120.20646270688545,
13,1,6,0,0.111111111111111,3.10526315789474,0,0.111111111111111,0.298245614035088,0,0.027777777777778,1.0,ReadingArea_rsl0-rcl11-esl310-rsm0-rcm11-esm29-rsr0-rcr2-esr100,exr/ReadingArea_rsl0-rcl11-esl310-rsm0-rcm11-esm29-rsr0-rcr2-esr100.exr,ReadingArea_rsl0-rcl11-esl310-rsm0-rcm11-esm29-rsr0-rcr2-esr100.npz,,,,,0,179,179,83,,right,red,0.94,520.7925100326538,521.1423990726471,,,3,AS,1,lightness,readingArea,mean,72,2023-03-10_14h13.04.417,tripletExp_regina_11082022,2022.2.4,120.20646270688545,
7,11,6,0,0.111111111111111,1.0,0,1.0,1.0,0,0.027777777777778,1.0,ReadingArea_rsl0-rcl11-esl100-rsm0-rcm100-esm100-rsr0-rcr2-esr100,exr/ReadingArea_rsl0-rcl11-esl100-rsm0-rcm100-esm100-rsr0-rcr2-esr100.exr,ReadingArea_rsl0-rcl11-esl100-rsm0-rcm100-esm100-rsr0-rcr2-esr100.npz,,,,,0,180,180,189,,left,green,1.08,522.8486030101776,523.2037010192871,,,3,AS,1,lightness,readingArea,mean,72,2023-03-10_14h13.04.417,tripletExp_regina_11082022,2022.2.4,120.20646270688545,
7,14,10,0,0.111111111111111,1.0,0,0.25,3.10526315789474,0,0.694444444444444,1.0,ReadingArea_rsl0-rcl11-esl100-rsm0-rcm25-esm310-rsr0-rcr69-esr100,exr/ReadingArea_rsl0-rcl11-esl100-rsm0-rcm25-esm310-rsr0-rcr69-esr100.exr,ReadingArea_rsl0-rcl11-esl100-rsm0-rcm25-esm310-rsr0-rcr69-esr100.npz,,,,,0,181,181,146,,right,red,0.93,524.9092819690704,525.2740590572357,,,3,AS,1,lightness,readingArea,mean,72,2023-03-10_14h13.04.417,tripletExp_regina_11082022,2022.2.4,120.20646270688545,
6,5,2,0,0.027777777777778,1.0,0,1.0,0.298245614035088,0,0.25,0.298245614035088,ReadingArea_rsl0-rcl2-esl100-rsm0-rcm100-esm29-rsr0-rcr25-esr29,exr/ReadingArea_rsl0-rcl2-esl100-rsm0-rcm100-esm29-rsr0-rcr25-esr29.exr,ReadingArea_rsl0-rcl2-esl100-rsm0-rcm100-esm29-rsr0-rcr25-esr29.npz,,,,,0,182,182,136,,right,red,1.01,526.9658579826355,527.3468239307404,,,3,AS,1,lightness,readingArea,mean,72,2023-03-10_14h13.04.417,tripletExp_regina_11082022,2022.2.4,120.20646270688545,
1,13,8,0,0.111111111111111,0.298245614035088,0,0.111111111111111,3.10526315789474,0,0.25,1.0,ReadingArea_rsl0-rcl11-esl29-rsm0-rcm11-esm310-rsr0-rcr25-esr100,exr/ReadingArea_rsl0-rcl11-esl29-rsm0-rcm11-esm310-rsr0-rcr25-esr100.exr,ReadingArea_rsl0-rcl11-esl29-rsm0-rcm11-esm310-rsr0-rcr25-esr100.npz,,,,,0,183,183,245,,right,red,0.93,529.048819065094,529.4200510978699,,,3,AS,1,lightness,readingArea,mean,72,2023-03-10_14h13.04.417,tripletExp_regina_11082022,2022.2.4,120.20646270688545,
3,11,2,0,0.444444444444444,0.298245614035088,0,1.0,1.0,0,0.25,0.298245614035088,ReadingArea_rsl0-rcl44-esl29-rsm0-rcm100-esm100-rsr0-rcr25-esr29,exr/ReadingArea_rsl0-rcl44-esl29-rsm0-rcm100-esm100-rsr0-rcr25-esr29.exr,ReadingArea_rsl0-rcl44-esl29-rsm0-rcm100-esm100-rsr0-rcr25-esr29.npz,,,,,0,184,184,190,,left,green,1.11,531.1089560985565,531.4541029930115,,,3,AS,1,lightness,readingArea,mean,72,2023-03-10_14h13.04.417,tripletExp_regina_11082022,2022.2.4,120.20646270688545,
3,7,13,0,0.444444444444444,0.298245614035088,0,0.111111111111111,1.0,0,0.111111111111111,3.10526315789474,ReadingArea_rsl0-rcl44-esl29-rsm0-rcm11-esm100-rsr0-rcr11-esr310,exr/ReadingArea_rsl0-rcl44-esl29-rsm0-rcm11-esm100-rsr0-rcr11-esr310.exr,ReadingArea_rsl0-rcl44-esl29-rsm0-rcm11-esm100-rsr0-rcr11-esr310.npz,,,,,0,185,185,36,,left,green,1.13,533.145220041275,533.4839940071106,,,3,AS,1,lightness,readingArea,mean,72,2023-03-10_14h13.04.417,tripletExp_regina_11082022,2022.2.4,120.20646270688545,
1,11,0,0,0.111111111111111,0.298245614035088,0,1.0,1.0,0,0.027777777777778,0.298245614035088,ReadingArea_rsl0-rcl11-esl29-rsm0-rcm100-esm100-rsr0-rcr2-esr29,exr/ReadingArea_rsl0-rcl11-esl29-rsm0-rcm100-esm100-rsr0-rcr2-esr29.exr,ReadingArea_rsl0-rcl11-esl29-rsm0-rcm100-esm100-rsr0-rcr2-esr29.npz,,,,,0,186,186,430,,left,green,1.06,535.1823170185089,535.5339288711548,,,3,AS,1,lightness,readingArea,mean,72,2023-03-10_14h13.04.417,tripletExp_regina_11082022,2022.2.4,120.20646270688545,
1,13,5,0,0.111111111111111,0.298245614035088,0,0.111111111111111,3.10526315789474,0,1.0,0.298245614035088,ReadingArea_rsl0-rcl11-esl29-rsm0-rcm11-esm310-rsr0-rcr100-esr29,exr/ReadingArea_rsl0-rcl11-esl29-rsm0-rcm11-esm310-rsr0-rcr100-esr29.exr,ReadingArea_rsl0-rcl11-esl29-rsm0-rcm11-esm310-rsr0-rcr100-esr29.npz,,,,,0,187,187,140,,right,red,2.21,539.0139050483704,539.3631088733673,,,3,AS,1,lightness,readingArea,mean,72,2023-03-10_14h13.04.417,tripletExp_regina_11082022,2022.2.4,120.20646270688545,
13,5,7,0,0.111111111111111,3.10526315789474,0,1.0,0.298245614035088,0,0.111111111111111,1.0,ReadingArea_rsl0-rcl11-esl310-rsm0-rcm100-esm29-rsr0-rcr11-esr100,exr/ReadingArea_rsl0-rcl11-esl310-rsm0-rcm100-esm29-rsr0-rcr11-esr100.exr,ReadingArea_rsl0-rcl11-esl310-rsm0-rcm100-esm29-rsr0-rcr11-esr100.npz,,,,,0,188,188,473,,left,green,0.69,541.074501991272,541.420567035675,,,3,AS,1,lightness,readingArea,mean,72,2023-03-10_14h13.04.417,tripletExp_regina_11082022,2022.2.4,120.20646270688545,
12,8,4,0,0.027777777777778,3.10526315789474,0,0.25,1.0,0,0.694444444444444,0.298245614035088,ReadingArea_rsl0-rcl2-esl310-rsm0-rcm25-esm100-rsr0-rcr69-esr29,exr/ReadingArea_rsl0-rcl2-esl310-rsm0-rcm25-esm100-rsr0-rcr69-esr29.exr,ReadingArea_rsl0-rcl2-esl310-rsm0-rcm25-esm100-rsr0-rcr69-esr29.npz,,,,,0,189,189,298,,right,red,0.77,543.1310300827026,543.4800879955292,,,3,AS,1,lightness,readingArea,mean,72,2023-03-10_14h13.04.417,tripletExp_regina_11082022,2022.2.4,120.20646270688545,
8,7,10,0,0.25,1.0,0,0.111111111111111,1.0,0,0.694444444444444,1.0,ReadingArea_rsl0-rcl25-esl100-rsm0-rcm11-esm100-rsr0-rcr69-esr100,exr/ReadingArea_rsl0-rcl25-esl100-rsm0-rcm11-esm100-rsr0-rcr69-esr100.exr,ReadingArea_rsl0-rcl25-esl100-rsm0-rcm11-esm100-rsr0-rcr69-esr100.npz,,,,,0,190,190,35,,left,green,0.92,545.1705238819122,545.5082490444183,,,3,AS,1,lightness,readingArea,mean,72,2023-03-10_14h13.04.417,tripletExp_regina_11082022,2022.2.4,120.20646270688545,
8,12,2,0,0.25,1.0,0,0.027777777777778,3.10526315789474,0,0.25,0.298245614035088,ReadingArea_rsl0-rcl25-esl100-rsm0-rcm2-esm310-rsr0-rcr25-esr29,exr/ReadingArea_rsl0-rcl25-esl100-rsm0-rcm2-esm310-rsr0-rcr25-esr29.exr,ReadingArea_rsl0-rcl25-esl100-rsm0-rcm2-esm310-rsr0-rcr25-esr29.npz,,,,,0,191,191,68,,right,red,0.77,547.1954979896545,,,,3,AS,1,lightness,readingArea,mean,72,2023-03-10_14h13.04.417,tripletExp_regina_11082022,2022.2.4,120.20646270688545,
9,11,0,0,0.444444444444444,1.0,0,1.0,1.0,0,0.027777777777778,0.298245614035088,ReadingArea_rsl0-rcl44-esl100-rsm0-rcm100-esm100-rsr0-rcr2-esr29,exr/ReadingArea_rsl0-rcl44-esl100-rsm0-rcm100-esm100-rsr0-rcr2-esr29.exr,ReadingArea_rsl0-rcl44-esl100-rsm0-rcm100-esm100-rsr0-rcr2-esr29.npz,,,,,0,192,192,438,,left,green,0.8,549.2421438694,549.6042699813843,,,3,AS,1,lightness,readingArea,mean,72,2023-03-10_14h13.04.417,tripletExp_regina_11082022,2022.2.4,120.20646270688545,
6,4,1,0,0.027777777777778,1.0,0,0.694444444444444,0.298245614035088,0,0.111111111111111,0.298245614035088,ReadingArea_rsl0-rcl2-esl100-rsm0-rcm69-esm29-rsr0-rcr11-esr29,exr/ReadingArea_rsl0-rcl2-esl100-rsm0-rcm69-esm29-rsr0-rcr11-esr29.exr,ReadingArea_rsl0-rcl2-esl100-rsm0-rcm69-esm29-rsr0-rcr11-esr29.npz,,,,,0,193,193,414,,right,red,1.26,551.3147339820862,551.67698097229,,,3,AS,1,lightness,readingArea,mean,72,2023-03-10_14h13.04.417,tripletExp_regina_11082022,2022.2.4,120.20646270688545,
10,2,14,0,0.694444444444444,1.0,0,0.25,0.298245614035088,0,0.25,3.10526315789474,ReadingArea_rsl0-rcl69-esl100-rsm0-rcm25-esm29-rsr0-rcr25-esr310,exr/ReadingArea_rsl0-rcl69-esl100-rsm0-rcm25-esm29-rsr0-rcr25-esr310.exr,ReadingArea_rsl0-rcl69-esl100-rsm0-rcm25-esm29-rsr0-rcr25-esr310.npz,,,,,0,194,194,477,,right,red,1.13,553.3938829898834,553.7565879821777,,,3,AS,1,lightness,readingArea,mean,72,2023-03-10_14h13.04.417,tripletExp_regina_11082022,2022.2.4,120.20646270688545,
6,10,5,0,0.027777777777778,1.0,0,0.694444444444444,1.0,0,1.0,0.298245614035088,ReadingArea_rsl0-rcl2-esl100-rsm0-rcm69-esm100-rsr0-rcr100-esr29,exr/ReadingArea_rsl0-rcl2-esl100-rsm0-rcm69-esm100-rsr0-rcr100-esr29.exr,ReadingArea_rsl0-rcl2-esl100-rsm0-rcm69-esm100-rsr0-rcr100-esr29.npz,,,,,0,195,195,98,,right,red,1.19,555.4608190059662,555.8252398967743,,,3,AS,1,lightness,readingArea,mean,72,2023-03-10_14h13.04.417,tripletExp_regina_11082022,2022.2.4,120.20646270688545,
6,1,8,0,0.027777777777778,1.0,0,0.111111111111111,0.298245614035088,0,0.25,1.0,ReadingArea_rsl0-rcl2-esl100-rsm0-rcm11-esm29-rsr0-rcr25-esr100,exr/ReadingArea_rsl0-rcl2-esl100-rsm0-rcm11-esm29-rsr0-rcr25-esr100.exr,ReadingArea_rsl0-rcl2-esl100-rsm0-rcm11-esm29-rsr0-rcr25-esr100.npz,,,,,0,196,196,302,,left,green,0.78,557.5404450893402,557.8917059898376,,,3,AS,1,lightness,readingArea,mean,72,2023-03-10_14h13.04.417,tripletExp_regina_11082022,2022.2.4,120.20646270688545,
10,6,2,0,0.694444444444444,1.0,0,0.027777777777778,1.0,0,0.25,0.298245614035088,ReadingArea_rsl0-rcl69-esl100-rsm0-rcm2-esm100-rsr0-rcr25-esr29,exr/ReadingArea_rsl0-rcl69-esl100-rsm0-rcm2-esm100-rsr0-rcr25-esr29.exr,ReadingArea_rsl0-rcl69-esl100-rsm0-rcm2-esm100-rsr0-rcr25-esr29.npz,,,,,0,197,197,341,,right,red,0.85,559.5890998840332,,,,3,AS,1,lightness,readingArea,mean,72,2023-03-10_14h13.04.417,tripletExp_regina_11082022,2022.2.4,120.20646270688545,
1,6,5,0,0.111111111111111,0.298245614035088,0,0.027777777777778,1.0,0,1.0,0.298245614035088,ReadingArea_rsl0-rcl11-esl29-rsm0-rcm2-esm100-rsr0-rcr100-esr29,exr/ReadingArea_rsl0-rcl11-esl29-rsm0-rcm2-esm100-rsr0-rcr100-esr29.exr,ReadingArea_rsl0-rcl11-esl29-rsm0-rcm2-esm100-rsr0-rcr100-esr29.npz,,,,,0,198,198,324,,left,green,0.9,561.6743109226227,562.0543150901794,,,3,AS,1,lightness,readingArea,mean,72,2023-03-10_14h13.04.417,tripletExp_regina_11082022,2022.2.4,120.20646270688545,
13,0,3,0,0.111111111111111,3.10526315789474,0,0.027777777777778,0.298245614035088,0,0.444444444444444,0.298245614035088,ReadingArea_rsl0-rcl11-esl310-rsm0-rcm2-esm29-rsr0-rcr44-esr29,exr/ReadingArea_rsl0-rcl11-esl310-rsm0-rcm2-esm29-rsr0-rcr44-esr29.exr,ReadingArea_rsl0-rcl11-esl310-rsm0-rcm2-esm29-rsr0-rcr44-esr29.npz,,,,,0,199,199,291,,right,red,0.85,563.7735300064087,564.1263930797577,,,3,AS,1,lightness,readingArea,mean,72,2023-03-10_14h13.04.417,tripletExp_regina_11082022,2022.2.4,120.20646270688545,
12,5,4,0,0.027777777777778,3.10526315789474,0,1.0,0.298245614035088,0,0.694444444444444,0.298245614035088,ReadingArea_rsl0-rcl2-esl310-rsm0-rcm100-esm29-rsr0-rcr69-esr29,exr/ReadingArea_rsl0-rcl2-esl310-rsm0-rcm100-esm29-rsr0-rcr69-esr29.exr,ReadingArea_rsl0-rcl2-esl310-rsm0-rcm100-esm29-rsr0-rcr69-esr29.npz,,,,,0,200,200,63,,right,red,0.93,565.8494760990143,566.2178480625153,,,3,AS,1,lightness,readingArea,mean,72,2023-03-10_14h13.04.417,tripletExp_regina_11082022,2022.2.4,120.20646270688545,
11,10,4,0,1.0,1.0,0,0.694444444444444,1.0,0,0.694444444444444,0.298245614035088,ReadingArea_rsl0-rcl100-esl100-rsm0-rcm69-esm100-rsr0-rcr69-esr29,exr/ReadingArea_rsl0-rcl100-esl100-rsm0-rcm69-esm100-rsr0-rcr69-esr29.exr,ReadingArea_rsl0-rcl100-esl100-rsm0-rcm69-esm100-rsr0-rcr69-esr29.npz,,,,,0,201,201,175,,left,green,1.09,567.9287960529327,568.2813940048218,,,3,AS,1,lightness,readingArea,mean,72,2023-03-10_14h13.04.417,tripletExp_regina_11082022,2022.2.4,120.20646270688545,
14,1,9,0,0.25,3.10526315789474,0,0.111111111111111,0.298245614035088,0,0.444444444444444,1.0,ReadingArea_rsl0-rcl25-esl310-rsm0-rcm11-esm29-rsr0-rcr44-esr100,exr/ReadingArea_rsl0-rcl25-esl310-rsm0-rcm11-esm29-rsr0-rcr44-esr100.exr,ReadingArea_rsl0-rcl25-esl310-rsm0-rcm11-esm29-rsr0-rcr44-esr100.npz,,,,,0,202,202,84,,right,red,1.15,569.9819049835205,570.3324699401855,,,3,AS,1,lightness,readingArea,mean,72,2023-03-10_14h13.04.417,tripletExp_regina_11082022,2022.2.4,120.20646270688545,
5,4,8,0,1.0,0.298245614035088,0,0.694444444444444,0.298245614035088,0,0.25,1.0,ReadingArea_rsl0-rcl100-esl29-rsm0-rcm69-esm29-rsr0-rcr25-esr100,exr/ReadingArea_rsl0-rcl100-esl29-rsm0-rcm69-esm29-rsr0-rcr25-esr100.exr,ReadingArea_rsl0-rcl100-esl29-rsm0-rcm69-esm29-rsr0-rcr25-esr100.npz,,,,,0,203,203,112,,right,red,1.31,572.0331320762634,,,,3,AS,1,lightness,readingArea,mean,72,2023-03-10_14h13.04.417,tripletExp_regina_11082022,2022.2.4,120.20646270688545,
14,12,8,0,0.25,3.10526315789474,0,0.027777777777778,3.10526315789474,0,0.25,1.0,ReadingArea_rsl0-rcl25-esl310-rsm0-rcm2-esm310-rsr0-rcr25-esr100,exr/ReadingArea_rsl0-rcl25-esl310-rsm0-rcm2-esm310-rsr0-rcr25-esr100.exr,ReadingArea_rsl0-rcl25-esl310-rsm0-rcm2-esm310-rsr0-rcr25-esr100.npz,,,,,0,204,204,79,,right,red,0.87,574.0860970020294,574.4580619335175,,,3,AS,1,lightness,readingArea,mean,72,2023-03-10_14h13.04.417,tripletExp_regina_11082022,2022.2.4,120.20646270688545,
5,13,3,0,1.0,0.298245614035088,0,0.111111111111111,3.10526315789474,0,0.444444444444444,0.298245614035088,ReadingArea_rsl0-rcl100-esl29-rsm0-rcm11-esm310-rsr0-rcr44-esr29,exr/ReadingArea_rsl0-rcl100-esl29-rsm0-rcm11-esm310-rsr0-rcr44-esr29.exr,ReadingArea_rsl0-rcl100-esl29-rsm0-rcm11-esm310-rsr0-rcr44-esr29.npz,,,,,0,205,205,317,,left,green,1.16,576.1535658836365,576.5063409805298,,,3,AS,1,lightness,readingArea,mean,72,2023-03-10_14h13.04.417,tripletExp_regina_11082022,2022.2.4,120.20646270688545,
