index_left,index_middle,index_right,reflectance_surround_left,reflectance_center_left,emission_spot_left,reflectance_surround_middle,reflectance_center_middle,emission_spot_middle,reflectance_surround_right,reflectance_center_right,emission_spot_right,ImageName,ImageExr,ImageNpy,trials_2.thisRepN,trials_2.thisTrialN,trials_2.thisN,trials_2.thisIndex,trials.thisRepN,trials.thisTrialN,trials.thisN,trials.thisIndex,sound_1.started,BB_Trial.resp,BB_Trial.color,BB_Trial.rt,text.started,text.stopped,block,sound_4.started,participant,session,L/B,scene,condition,nTrialsPerBlock,date,expName,psychopyVersion,frameRate,
0,8,12,2,0.027777777777778,0.298245614035088,2,0.25,1.0,2,0.027777777777778,3.10526315789474,ReadingArea_rsl2-rcl2-esl29-rsm2-rcm25-esm100-rsr2-rcr2-esr310,exr/ReadingArea_rsl2-rcl2-esl29-rsm2-rcm25-esm100-rsr2-rcr2-esr310.exr,ReadingArea_rsl2-rcl2-esl29-rsm2-rcm25-esm100-rsr2-rcr2-esr310.npz,,,,,0,0,0,314,208.41733436584474,right,red,2.83,237.7377119064331,201.91495490074158,1,,3,8,lightness,readingArea,realistic,75,2023-03-27_11h11.13.926,tripletExp_regina_11082022,2022.2.4,119.6014713849839,
14,2,8,2,0.25,3.10526315789474,2,0.25,0.298245614035088,2,0.25,1.0,ReadingArea_rsl2-rcl25-esl310-rsm2-rcm25-esm29-rsr2-rcr25-esr100,exr/ReadingArea_rsl2-rcl25-esl310-rsm2-rcm25-esm29-rsr2-rcr25-esr100.exr,ReadingArea_rsl2-rcl25-esl310-rsm2-rcm25-esm29-rsr2-rcr25-esr100.npz,,,,,0,1,1,212,,left,green,4.45,243.52030992507935,243.98319482803345,1,,3,8,lightness,readingArea,realistic,75,2023-03-27_11h11.13.926,tripletExp_regina_11082022,2022.2.4,119.6014713849839,
2,8,4,2,0.25,0.298245614035088,2,0.25,1.0,2,0.694444444444444,0.298245614035088,ReadingArea_rsl2-rcl25-esl29-rsm2-rcm25-esm100-rsr2-rcr69-esr29,exr/ReadingArea_rsl2-rcl25-esl29-rsm2-rcm25-esm100-rsr2-rcr69-esr29.exr,ReadingArea_rsl2-rcl25-esl29-rsm2-rcm25-esm100-rsr2-rcr69-esr29.npz,,,,,0,2,2,507,,right,red,2.75,247.44739294052124,247.90884685516357,1,,3,8,lightness,readingArea,realistic,75,2023-03-27_11h11.13.926,tripletExp_regina_11082022,2022.2.4,119.6014713849839,
6,10,11,2,0.027777777777778,1.0,2,0.694444444444444,1.0,2,1.0,1.0,ReadingArea_rsl2-rcl2-esl100-rsm2-rcm69-esm100-rsr2-rcr100-esr100,exr/ReadingArea_rsl2-rcl2-esl100-rsm2-rcm69-esm100-rsr2-rcr100-esr100.exr,ReadingArea_rsl2-rcl2-esl100-rsm2-rcm69-esm100-rsr2-rcr100-esr100.npz,,,,,0,3,3,116,,right,red,2.85,251.40857195854187,251.88651084899902,1,,3,8,lightness,readingArea,realistic,75,2023-03-27_11h11.13.926,tripletExp_regina_11082022,2022.2.4,119.6014713849839,
0,5,7,2,0.027777777777778,0.298245614035088,2,1.0,0.298245614035088,2,0.111111111111111,1.0,ReadingArea_rsl2-rcl2-esl29-rsm2-rcm100-esm29-rsr2-rcr11-esr100,exr/ReadingArea_rsl2-rcl2-esl29-rsm2-rcm100-esm29-rsr2-rcr11-esr100.exr,ReadingArea_rsl2-rcl2-esl29-rsm2-rcm100-esm29-rsr2-rcr11-esr100.npz,,,,,0,4,4,217,,right,red,2.42,255.3608148097992,255.82518696784973,1,,3,8,lightness,readingArea,realistic,75,2023-03-27_11h11.13.926,tripletExp_regina_11082022,2022.2.4,119.6014713849839,
13,4,7,2,0.111111111111111,3.10526315789474,2,0.694444444444444,0.298245614035088,2,0.111111111111111,1.0,ReadingArea_rsl2-rcl11-esl310-rsm2-rcm69-esm29-rsr2-rcr11-esr100,exr/ReadingArea_rsl2-rcl11-esl310-rsm2-rcm69-esm29-rsr2-rcr11-esr100.exr,ReadingArea_rsl2-rcl11-esl310-rsm2-rcm69-esm29-rsr2-rcr11-esr100.npz,,,,,0,5,5,282,,left,green,3.3,259.32298398017883,259.81070590019226,1,,3,8,lightness,readingArea,realistic,75,2023-03-27_11h11.13.926,tripletExp_regina_11082022,2022.2.4,119.6014713849839,
8,9,2,2,0.25,1.0,2,0.444444444444444,1.0,2,0.25,0.298245614035088,ReadingArea_rsl2-rcl25-esl100-rsm2-rcm44-esm100-rsr2-rcr25-esr29,exr/ReadingArea_rsl2-rcl25-esl100-rsm2-rcm44-esm100-rsr2-rcr25-esr29.exr,ReadingArea_rsl2-rcl25-esl100-rsm2-rcm44-esm100-rsr2-rcr25-esr29.npz,,,,,0,6,6,559,,left,green,4.02,265.048033952713,,1,,3,8,lightness,readingArea,realistic,75,2023-03-27_11h11.13.926,tripletExp_regina_11082022,2022.2.4,119.6014713849839,
7,10,5,2,0.111111111111111,1.0,2,0.694444444444444,1.0,2,1.0,0.298245614035088,ReadingArea_rsl2-rcl11-esl100-rsm2-rcm69-esm100-rsr2-rcr100-esr29,exr/ReadingArea_rsl2-rcl11-esl100-rsm2-rcm69-esm100-rsr2-rcr100-esr29.exr,ReadingArea_rsl2-rcl11-esl100-rsm2-rcm69-esm100-rsr2-rcr100-esr29.npz,,,,,0,7,7,395,,right,red,2.37,269.18562293052673,269.6593248844147,1,,3,8,lightness,readingArea,realistic,75,2023-03-27_11h11.13.926,tripletExp_regina_11082022,2022.2.4,119.6014713849839,
2,5,14,2,0.25,0.298245614035088,2,1.0,0.298245614035088,2,0.25,3.10526315789474,ReadingArea_rsl2-rcl25-esl29-rsm2-rcm100-esm29-rsr2-rcr25-esr310,exr/ReadingArea_rsl2-rcl25-esl29-rsm2-rcm100-esm29-rsr2-rcr25-esr310.exr,ReadingArea_rsl2-rcl25-esl29-rsm2-rcm100-esm29-rsr2-rcr25-esr310.npz,,,,,0,8,8,390,,right,red,3.71,274.8918218612671,275.39303278923035,1,,3,8,lightness,readingArea,realistic,75,2023-03-27_11h11.13.926,tripletExp_regina_11082022,2022.2.4,119.6014713849839,
8,4,2,2,0.25,1.0,2,0.694444444444444,0.298245614035088,2,0.25,0.298245614035088,ReadingArea_rsl2-rcl25-esl100-rsm2-rcm69-esm29-rsr2-rcr25-esr29,exr/ReadingArea_rsl2-rcl25-esl100-rsm2-rcm69-esm29-rsr2-rcr25-esr29.exr,ReadingArea_rsl2-rcl25-esl100-rsm2-rcm69-esm29-rsr2-rcr25-esr29.npz,,,,,0,9,9,184,,left,green,2.68,278.8378779888153,279.3103377819061,1,,3,8,lightness,readingArea,realistic,75,2023-03-27_11h11.13.926,tripletExp_regina_11082022,2022.2.4,119.6014713849839,
12,11,13,2,0.027777777777778,3.10526315789474,2,1.0,1.0,2,0.111111111111111,3.10526315789474,ReadingArea_rsl2-rcl2-esl310-rsm2-rcm100-esm100-rsr2-rcr11-esr310,exr/ReadingArea_rsl2-rcl2-esl310-rsm2-rcm100-esm100-rsr2-rcr11-esr310.exr,ReadingArea_rsl2-rcl2-esl310-rsm2-rcm100-esm100-rsr2-rcr11-esr310.npz,,,,,0,10,10,151,,right,red,2.63,282.79547595977783,283.2689719200134,1,,3,8,lightness,readingArea,realistic,75,2023-03-27_11h11.13.926,tripletExp_regina_11082022,2022.2.4,119.6014713849839,
6,0,11,2,0.027777777777778,1.0,2,0.027777777777778,0.298245614035088,2,1.0,1.0,ReadingArea_rsl2-rcl2-esl100-rsm2-rcm2-esm29-rsr2-rcr100-esr100,exr/ReadingArea_rsl2-rcl2-esl100-rsm2-rcm2-esm29-rsr2-rcr100-esr100.exr,ReadingArea_rsl2-rcl2-esl100-rsm2-rcm2-esm29-rsr2-rcr100-esr100.npz,,,,,0,11,11,245,,left,green,2.21,286.7671649456024,287.2273049354553,1,,3,8,lightness,readingArea,realistic,75,2023-03-27_11h11.13.926,tripletExp_regina_11082022,2022.2.4,119.6014713849839,
11,7,10,2,1.0,1.0,2,0.111111111111111,1.0,2,0.694444444444444,1.0,ReadingArea_rsl2-rcl100-esl100-rsm2-rcm11-esm100-rsr2-rcr69-esr100,exr/ReadingArea_rsl2-rcl100-esl100-rsm2-rcm11-esm100-rsr2-rcr69-esr100.exr,ReadingArea_rsl2-rcl100-esl100-rsm2-rcm11-esm100-rsr2-rcr69-esr100.npz,,,,,0,12,12,411,,right,red,2.27,290.67734384536743,,1,,3,8,lightness,readingArea,realistic,75,2023-03-27_11h11.13.926,tripletExp_regina_11082022,2022.2.4,119.6014713849839,
3,4,0,2,0.444444444444444,0.298245614035088,2,0.694444444444444,0.298245614035088,2,0.027777777777778,0.298245614035088,ReadingArea_rsl2-rcl44-esl29-rsm2-rcm69-esm29-rsr2-rcr2-esr29,exr/ReadingArea_rsl2-rcl44-esl29-rsm2-rcm69-esm29-rsr2-rcr2-esr29.exr,ReadingArea_rsl2-rcl44-esl29-rsm2-rcm69-esm29-rsr2-rcr2-esr29.npz,,,,,0,13,13,130,,left,green,2.76,294.6790328025818,295.14686489105225,1,,3,8,lightness,readingArea,realistic,75,2023-03-27_11h11.13.926,tripletExp_regina_11082022,2022.2.4,119.6014713849839,
3,14,10,2,0.444444444444444,0.298245614035088,2,0.25,3.10526315789474,2,0.694444444444444,1.0,ReadingArea_rsl2-rcl44-esl29-rsm2-rcm25-esm310-rsr2-rcr69-esr100,exr/ReadingArea_rsl2-rcl44-esl29-rsm2-rcm25-esm310-rsr2-rcr69-esr100.exr,ReadingArea_rsl2-rcl44-esl29-rsm2-rcm25-esm310-rsr2-rcr69-esr100.npz,,,,,0,14,14,279,,right,red,2.24,298.6363489627838,299.1523838043213,1,,3,8,lightness,readingArea,realistic,75,2023-03-27_11h11.13.926,tripletExp_regina_11082022,2022.2.4,119.6014713849839,
1,12,0,2,0.111111111111111,0.298245614035088,2,0.027777777777778,3.10526315789474,2,0.027777777777778,0.298245614035088,ReadingArea_rsl2-rcl11-esl29-rsm2-rcm2-esm310-rsr2-rcr2-esr29,exr/ReadingArea_rsl2-rcl11-esl29-rsm2-rcm2-esm310-rsr2-rcr2-esr29.exr,ReadingArea_rsl2-rcl11-esl29-rsm2-rcm2-esm310-rsr2-rcr2-esr29.npz,,,,,0,15,15,113,,left,green,2.64,302.63410782814026,303.1386158466339,1,,3,8,lightness,readingArea,realistic,75,2023-03-27_11h11.13.926,tripletExp_regina_11082022,2022.2.4,119.6014713849839,
14,6,11,2,0.25,3.10526315789474,2,0.027777777777778,1.0,2,1.0,1.0,ReadingArea_rsl2-rcl25-esl310-rsm2-rcm2-esm100-rsr2-rcr100-esr100,exr/ReadingArea_rsl2-rcl25-esl310-rsm2-rcm2-esm100-rsr2-rcr100-esr100.exr,ReadingArea_rsl2-rcl25-esl310-rsm2-rcm2-esm100-rsr2-rcr100-esr100.npz,,,,,0,16,16,337,,left,green,2.67,306.6092948913574,307.0926139354706,1,,3,8,lightness,readingArea,realistic,75,2023-03-27_11h11.13.926,tripletExp_regina_11082022,2022.2.4,119.6014713849839,
8,0,6,2,0.25,1.0,2,0.027777777777778,0.298245614035088,2,0.027777777777778,1.0,ReadingArea_rsl2-rcl25-esl100-rsm2-rcm2-esm29-rsr2-rcr2-esr100,exr/ReadingArea_rsl2-rcl25-esl100-rsm2-rcm2-esm29-rsr2-rcr2-esr100.exr,ReadingArea_rsl2-rcl25-esl100-rsm2-rcm2-esm29-rsr2-rcr2-esr100.npz,,,,,0,17,17,401,,right,red,2.12,310.59437799453735,311.1996967792511,1,,3,8,lightness,readingArea,realistic,75,2023-03-27_11h11.13.926,tripletExp_regina_11082022,2022.2.4,119.6014713849839,
2,4,13,2,0.25,0.298245614035088,2,0.694444444444444,0.298245614035088,2,0.111111111111111,3.10526315789474,ReadingArea_rsl2-rcl25-esl29-rsm2-rcm69-esm29-rsr2-rcr11-esr310,exr/ReadingArea_rsl2-rcl25-esl29-rsm2-rcm69-esm29-rsr2-rcr11-esr310.exr,ReadingArea_rsl2-rcl25-esl29-rsm2-rcm69-esm29-rsr2-rcr11-esr310.npz,,,,,0,18,18,325,,right,red,2.25,314.63775181770325,315.1150929927826,1,,3,8,lightness,readingArea,realistic,75,2023-03-27_11h11.13.926,tripletExp_regina_11082022,2022.2.4,119.6014713849839,
0,8,3,2,0.027777777777778,0.298245614035088,2,0.25,1.0,2,0.444444444444444,0.298245614035088,ReadingArea_rsl2-rcl2-esl29-rsm2-rcm25-esm100-rsr2-rcr44-esr29,exr/ReadingArea_rsl2-rcl2-esl29-rsm2-rcm25-esm100-rsr2-rcr44-esr29.exr,ReadingArea_rsl2-rcl2-esl29-rsm2-rcm25-esm100-rsr2-rcr44-esr29.npz,,,,,0,19,19,301,,right,red,2.22,318.57479190826416,319.06794786453247,1,,3,8,lightness,readingArea,realistic,75,2023-03-27_11h11.13.926,tripletExp_regina_11082022,2022.2.4,119.6014713849839,
14,5,10,2,0.25,3.10526315789474,2,1.0,0.298245614035088,2,0.694444444444444,1.0,ReadingArea_rsl2-rcl25-esl310-rsm2-rcm100-esm29-rsr2-rcr69-esr100,exr/ReadingArea_rsl2-rcl25-esl310-rsm2-rcm100-esm29-rsr2-rcr69-esr100.exr,ReadingArea_rsl2-rcl25-esl310-rsm2-rcm100-esm29-rsr2-rcr69-esr100.npz,,,,,0,20,20,170,,left,green,2.93,322.5636248588562,322.99193692207336,1,,3,8,lightness,readingArea,realistic,75,2023-03-27_11h11.13.926,tripletExp_regina_11082022,2022.2.4,119.6014713849839,
4,7,5,2,0.694444444444444,0.298245614035088,2,0.111111111111111,1.0,2,1.0,0.298245614035088,ReadingArea_rsl2-rcl69-esl29-rsm2-rcm11-esm100-rsr2-rcr100-esr29,exr/ReadingArea_rsl2-rcl69-esl29-rsm2-rcm11-esm100-rsr2-rcr100-esr29.exr,ReadingArea_rsl2-rcl69-esl29-rsm2-rcm11-esm100-rsr2-rcr100-esr29.npz,,,,,0,21,21,195,,left,green,2.62,326.4642879962921,327.0731568336487,1,,3,8,lightness,readingArea,realistic,75,2023-03-27_11h11.13.926,tripletExp_regina_11082022,2022.2.4,119.6014713849839,
4,14,12,2,0.694444444444444,0.298245614035088,2,0.25,3.10526315789474,2,0.027777777777778,3.10526315789474,ReadingArea_rsl2-rcl69-esl29-rsm2-rcm25-esm310-rsr2-rcr2-esr310,exr/ReadingArea_rsl2-rcl69-esl29-rsm2-rcm25-esm310-rsr2-rcr2-esr310.exr,ReadingArea_rsl2-rcl69-esl29-rsm2-rcm25-esm310-rsr2-rcr2-esr310.npz,,,,,0,22,22,392,,left,green,2.7,330.5517168045044,330.999559879303,1,,3,8,lightness,readingArea,realistic,75,2023-03-27_11h11.13.926,tripletExp_regina_11082022,2022.2.4,119.6014713849839,
5,14,3,2,1.0,0.298245614035088,2,0.25,3.10526315789474,2,0.444444444444444,0.298245614035088,ReadingArea_rsl2-rcl100-esl29-rsm2-rcm25-esm310-rsr2-rcr44-esr29,exr/ReadingArea_rsl2-rcl100-esl29-rsm2-rcm25-esm310-rsr2-rcr44-esr29.exr,ReadingArea_rsl2-rcl100-esl29-rsm2-rcm25-esm310-rsr2-rcr44-esr29.npz,,,,,0,23,23,93,,left,green,2.14,334.4781289100647,334.9370148181915,1,,3,8,lightness,readingArea,realistic,75,2023-03-27_11h11.13.926,tripletExp_regina_11082022,2022.2.4,119.6014713849839,
5,2,0,2,1.0,0.298245614035088,2,0.25,0.298245614035088,2,0.027777777777778,0.298245614035088,ReadingArea_rsl2-rcl100-esl29-rsm2-rcm25-esm29-rsr2-rcr2-esr29,exr/ReadingArea_rsl2-rcl100-esl29-rsm2-rcm25-esm29-rsr2-rcr2-esr29.exr,ReadingArea_rsl2-rcl100-esl29-rsm2-rcm25-esm29-rsr2-rcr2-esr29.npz,,,,,0,24,24,476,,right,red,4.48,340.20886993408203,340.7747218608856,1,,3,8,lightness,readingArea,realistic,75,2023-03-27_11h11.13.926,tripletExp_regina_11082022,2022.2.4,119.6014713849839,
4,0,3,2,0.694444444444444,0.298245614035088,2,0.027777777777778,0.298245614035088,2,0.444444444444444,0.298245614035088,ReadingArea_rsl2-rcl69-esl29-rsm2-rcm2-esm29-rsr2-rcr44-esr29,exr/ReadingArea_rsl2-rcl69-esl29-rsm2-rcm2-esm29-rsr2-rcr44-esr29.exr,ReadingArea_rsl2-rcl69-esl29-rsm2-rcm2-esm29-rsr2-rcr44-esr29.npz,,,,,0,25,25,88,,right,red,2.16,344.2259488105774,344.7129008769989,1,,3,8,lightness,readingArea,realistic,75,2023-03-27_11h11.13.926,tripletExp_regina_11082022,2022.2.4,119.6014713849839,
1,12,11,2,0.111111111111111,0.298245614035088,2,0.027777777777778,3.10526315789474,2,1.0,1.0,ReadingArea_rsl2-rcl11-esl29-rsm2-rcm2-esm310-rsr2-rcr100-esr100,exr/ReadingArea_rsl2-rcl11-esl29-rsm2-rcm2-esm310-rsr2-rcr100-esr100.exr,ReadingArea_rsl2-rcl11-esl29-rsm2-rcm2-esm310-rsr2-rcr100-esr100.npz,,,,,0,26,26,178,,left,green,2.22,348.18593192100525,,1,,3,8,lightness,readingArea,realistic,75,2023-03-27_11h11.13.926,tripletExp_regina_11082022,2022.2.4,119.6014713849839,
0,5,6,2,0.027777777777778,0.298245614035088,2,1.0,0.298245614035088,2,0.027777777777778,1.0,ReadingArea_rsl2-rcl2-esl29-rsm2-rcm100-esm29-rsr2-rcr2-esr100,exr/ReadingArea_rsl2-rcl2-esl29-rsm2-rcm100-esm29-rsr2-rcr2-esr100.exr,ReadingArea_rsl2-rcl2-esl29-rsm2-rcm100-esm29-rsr2-rcr2-esr100.npz,,,,,0,27,27,374,,left,green,4.56,353.89736890792847,354.40675377845764,1,,3,8,lightness,readingArea,realistic,75,2023-03-27_11h11.13.926,tripletExp_regina_11082022,2022.2.4,119.6014713849839,
3,10,4,2,0.444444444444444,0.298245614035088,2,0.694444444444444,1.0,2,0.694444444444444,0.298245614035088,ReadingArea_rsl2-rcl44-esl29-rsm2-rcm69-esm100-rsr2-rcr69-esr29,exr/ReadingArea_rsl2-rcl44-esl29-rsm2-rcm69-esm100-rsr2-rcr69-esr29.exr,ReadingArea_rsl2-rcl44-esl29-rsm2-rcm69-esm100-rsr2-rcr69-esr29.npz,,,,,0,28,28,435,,right,red,4.29,359.6936049461365,360.19591879844666,1,,3,8,lightness,readingArea,realistic,75,2023-03-27_11h11.13.926,tripletExp_regina_11082022,2022.2.4,119.6014713849839,
13,10,9,2,0.111111111111111,3.10526315789474,2,0.694444444444444,1.0,2,0.444444444444444,1.0,ReadingArea_rsl2-rcl11-esl310-rsm2-rcm69-esm100-rsr2-rcr44-esr100,exr/ReadingArea_rsl2-rcl11-esl310-rsm2-rcm69-esm100-rsr2-rcr44-esr100.exr,ReadingArea_rsl2-rcl11-esl310-rsm2-rcm69-esm100-rsr2-rcr44-esr100.npz,,,,,0,29,29,330,,right,red,2.96,363.670058965683,364.1107017993927,1,,3,8,lightness,readingArea,realistic,75,2023-03-27_11h11.13.926,tripletExp_regina_11082022,2022.2.4,119.6014713849839,
8,13,2,2,0.25,1.0,2,0.111111111111111,3.10526315789474,2,0.25,0.298245614035088,ReadingArea_rsl2-rcl25-esl100-rsm2-rcm11-esm310-rsr2-rcr25-esr29,exr/ReadingArea_rsl2-rcl25-esl100-rsm2-rcm11-esm310-rsr2-rcr25-esr29.exr,ReadingArea_rsl2-rcl25-esl100-rsm2-rcm11-esm310-rsr2-rcr25-esr29.npz,,,,,0,30,30,376,,left,green,2.41,367.55782294273376,368.04540181159973,1,,3,8,lightness,readingArea,realistic,75,2023-03-27_11h11.13.926,tripletExp_regina_11082022,2022.2.4,119.6014713849839,
5,0,6,2,1.0,0.298245614035088,2,0.027777777777778,0.298245614035088,2,0.027777777777778,1.0,ReadingArea_rsl2-rcl100-esl29-rsm2-rcm2-esm29-rsr2-rcr2-esr100,exr/ReadingArea_rsl2-rcl100-esl29-rsm2-rcm2-esm29-rsr2-rcr2-esr100.exr,ReadingArea_rsl2-rcl100-esl29-rsm2-rcm2-esm29-rsr2-rcr2-esr100.npz,,,,,0,31,31,1,,right,red,2.54,371.53745198249817,371.9719078540802,1,,3,8,lightness,readingArea,realistic,75,2023-03-27_11h11.13.926,tripletExp_regina_11082022,2022.2.4,119.6014713849839,
11,2,8,2,1.0,1.0,2,0.25,0.298245614035088,2,0.25,1.0,ReadingArea_rsl2-rcl100-esl100-rsm2-rcm25-esm29-rsr2-rcr25-esr100,exr/ReadingArea_rsl2-rcl100-esl100-rsm2-rcm25-esm29-rsr2-rcr25-esr100.exr,ReadingArea_rsl2-rcl100-esl100-rsm2-rcm25-esm29-rsr2-rcr25-esr100.npz,,,,,0,32,32,214,,right,red,2.96,375.42686676979065,375.91293478012085,1,,3,8,lightness,readingArea,realistic,75,2023-03-27_11h11.13.926,tripletExp_regina_11082022,2022.2.4,119.6014713849839,
5,4,10,2,1.0,0.298245614035088,2,0.694444444444444,0.298245614035088,2,0.694444444444444,1.0,ReadingArea_rsl2-rcl100-esl29-rsm2-rcm69-esm29-rsr2-rcr69-esr100,exr/ReadingArea_rsl2-rcl100-esl29-rsm2-rcm69-esm29-rsr2-rcr69-esr100.exr,ReadingArea_rsl2-rcl100-esl29-rsm2-rcm69-esm29-rsr2-rcr69-esr100.npz,,,,,0,33,33,536,,left,green,3.91,381.1341269016266,381.6176857948303,1,,3,8,lightness,readingArea,realistic,75,2023-03-27_11h11.13.926,tripletExp_regina_11082022,2022.2.4,119.6014713849839,
12,3,13,2,0.027777777777778,3.10526315789474,2,0.444444444444444,0.298245614035088,2,0.111111111111111,3.10526315789474,ReadingArea_rsl2-rcl2-esl310-rsm2-rcm44-esm29-rsr2-rcr11-esr310,exr/ReadingArea_rsl2-rcl2-esl310-rsm2-rcm44-esm29-rsr2-rcr11-esr310.exr,ReadingArea_rsl2-rcl2-esl310-rsm2-rcm44-esm29-rsr2-rcr11-esr310.npz,,,,,0,34,34,383,,right,red,2.67,385.10202980041504,385.56708884239197,1,,3,8,lightness,readingArea,realistic,75,2023-03-27_11h11.13.926,tripletExp_regina_11082022,2022.2.4,119.6014713849839,
3,7,9,2,0.444444444444444,0.298245614035088,2,0.111111111111111,1.0,2,0.444444444444444,1.0,ReadingArea_rsl2-rcl44-esl29-rsm2-rcm11-esm100-rsr2-rcr44-esr100,exr/ReadingArea_rsl2-rcl44-esl29-rsm2-rcm11-esm100-rsr2-rcr44-esr100.exr,ReadingArea_rsl2-rcl44-esl29-rsm2-rcm11-esm100-rsr2-rcr44-esr100.npz,,,,,0,35,35,382,,left,green,3.19,389.03905177116394,389.52400183677673,1,,3,8,lightness,readingArea,realistic,75,2023-03-27_11h11.13.926,tripletExp_regina_11082022,2022.2.4,119.6014713849839,
5,3,4,2,1.0,0.298245614035088,2,0.444444444444444,0.298245614035088,2,0.694444444444444,0.298245614035088,ReadingArea_rsl2-rcl100-esl29-rsm2-rcm44-esm29-rsr2-rcr69-esr29,exr/ReadingArea_rsl2-rcl100-esl29-rsm2-rcm44-esm29-rsr2-rcr69-esr29.exr,ReadingArea_rsl2-rcl100-esl29-rsm2-rcm44-esm29-rsr2-rcr69-esr29.npz,,,,,0,36,36,201,,right,red,1.97,393.00338077545166,393.5093159675598,1,,3,8,lightness,readingArea,realistic,75,2023-03-27_11h11.13.926,tripletExp_regina_11082022,2022.2.4,119.6014713849839,
14,13,2,2,0.25,3.10526315789474,2,0.111111111111111,3.10526315789474,2,0.25,0.298245614035088,ReadingArea_rsl2-rcl25-esl310-rsm2-rcm11-esm310-rsr2-rcr25-esr29,exr/ReadingArea_rsl2-rcl25-esl310-rsm2-rcm11-esm310-rsr2-rcr25-esr29.exr,ReadingArea_rsl2-rcl25-esl310-rsm2-rcm11-esm310-rsr2-rcr25-esr29.npz,,,,,0,37,37,377,,right,red,3.61,396.9704427719116,397.4117419719696,1,,3,8,lightness,readingArea,realistic,75,2023-03-27_11h11.13.926,tripletExp_regina_11082022,2022.2.4,119.6014713849839,
10,6,13,2,0.694444444444444,1.0,2,0.027777777777778,1.0,2,0.111111111111111,3.10526315789474,ReadingArea_rsl2-rcl69-esl100-rsm2-rcm2-esm100-rsr2-rcr11-esr310,exr/ReadingArea_rsl2-rcl69-esl100-rsm2-rcm2-esm100-rsr2-rcr11-esr310.exr,ReadingArea_rsl2-rcl69-esl100-rsm2-rcm2-esm100-rsr2-rcr11-esr310.npz,,,,,0,38,38,41,,right,red,4.15,402.67150497436523,403.1656069755554,1,,3,8,lightness,readingArea,realistic,75,2023-03-27_11h11.13.926,tripletExp_regina_11082022,2022.2.4,119.6014713849839,
6,1,2,2,0.027777777777778,1.0,2,0.111111111111111,0.298245614035088,2,0.25,0.298245614035088,ReadingArea_rsl2-rcl2-esl100-rsm2-rcm11-esm29-rsr2-rcr25-esr29,exr/ReadingArea_rsl2-rcl2-esl100-rsm2-rcm11-esm29-rsr2-rcr25-esr29.exr,ReadingArea_rsl2-rcl2-esl100-rsm2-rcm11-esm29-rsr2-rcr25-esr29.npz,,,,,0,39,39,68,,right,red,3.88,408.40303683280945,408.8853118419647,1,,3,8,lightness,readingArea,realistic,75,2023-03-27_11h11.13.926,tripletExp_regina_11082022,2022.2.4,119.6014713849839,
11,2,4,2,1.0,1.0,2,0.25,0.298245614035088,2,0.694444444444444,0.298245614035088,ReadingArea_rsl2-rcl100-esl100-rsm2-rcm25-esm29-rsr2-rcr69-esr29,exr/ReadingArea_rsl2-rcl100-esl100-rsm2-rcm25-esm29-rsr2-rcr69-esr29.exr,ReadingArea_rsl2-rcl100-esl100-rsm2-rcm25-esm29-rsr2-rcr69-esr29.npz,,,,,0,40,40,359,,right,red,2.18,412.32924580574036,412.7756099700928,1,,3,8,lightness,readingArea,realistic,75,2023-03-27_11h11.13.926,tripletExp_regina_11082022,2022.2.4,119.6014713849839,
0,12,7,2,0.027777777777778,0.298245614035088,2,0.027777777777778,3.10526315789474,2,0.111111111111111,1.0,ReadingArea_rsl2-rcl2-esl29-rsm2-rcm2-esm310-rsr2-rcr11-esr100,exr/ReadingArea_rsl2-rcl2-esl29-rsm2-rcm2-esm310-rsr2-rcr11-esr100.exr,ReadingArea_rsl2-rcl2-esl29-rsm2-rcm2-esm310-rsr2-rcr11-esr100.npz,,,,,0,41,41,481,,left,green,4.36,417.98993492126465,418.4637019634247,1,,3,8,lightness,readingArea,realistic,75,2023-03-27_11h11.13.926,tripletExp_regina_11082022,2022.2.4,119.6014713849839,
12,7,1,2,0.027777777777778,3.10526315789474,2,0.111111111111111,1.0,2,0.111111111111111,0.298245614035088,ReadingArea_rsl2-rcl2-esl310-rsm2-rcm11-esm100-rsr2-rcr11-esr29,exr/ReadingArea_rsl2-rcl2-esl310-rsm2-rcm11-esm100-rsr2-rcr11-esr29.exr,ReadingArea_rsl2-rcl2-esl310-rsm2-rcm11-esm100-rsr2-rcr11-esr29.npz,,,,,0,42,42,264,,right,red,3.99,423.67829179763794,424.19869685173035,1,,3,8,lightness,readingArea,realistic,75,2023-03-27_11h11.13.926,tripletExp_regina_11082022,2022.2.4,119.6014713849839,
13,11,10,2,0.111111111111111,3.10526315789474,2,1.0,1.0,2,0.694444444444444,1.0,ReadingArea_rsl2-rcl11-esl310-rsm2-rcm100-esm100-rsr2-rcr69-esr100,exr/ReadingArea_rsl2-rcl11-esl310-rsm2-rcm100-esm100-rsr2-rcr69-esr100.exr,ReadingArea_rsl2-rcl11-esl310-rsm2-rcm100-esm100-rsr2-rcr69-esr100.npz,,,,,0,43,43,577,,right,red,2.98,427.68508982658386,428.1513068675995,1,,3,8,lightness,readingArea,realistic,75,2023-03-27_11h11.13.926,tripletExp_regina_11082022,2022.2.4,119.6014713849839,
12,11,6,2,0.027777777777778,3.10526315789474,2,1.0,1.0,2,0.027777777777778,1.0,ReadingArea_rsl2-rcl2-esl310-rsm2-rcm100-esm100-rsr2-rcr2-esr100,exr/ReadingArea_rsl2-rcl2-esl310-rsm2-rcm100-esm100-rsr2-rcr2-esr100.exr,ReadingArea_rsl2-rcl2-esl310-rsm2-rcm100-esm100-rsr2-rcr2-esr100.npz,,,,,0,44,44,163,,right,red,4.7,433.37778186798096,433.84804487228394,1,,3,8,lightness,readingArea,realistic,75,2023-03-27_11h11.13.926,tripletExp_regina_11082022,2022.2.4,119.6014713849839,
6,4,10,2,0.027777777777778,1.0,2,0.694444444444444,0.298245614035088,2,0.694444444444444,1.0,ReadingArea_rsl2-rcl2-esl100-rsm2-rcm69-esm29-rsr2-rcr69-esr100,exr/ReadingArea_rsl2-rcl2-esl100-rsm2-rcm69-esm29-rsr2-rcr69-esr100.exr,ReadingArea_rsl2-rcl2-esl100-rsm2-rcm69-esm29-rsr2-rcr69-esr100.npz,,,,,0,45,45,554,,right,red,4.53,439.0934669971466,439.64734292030334,1,,3,8,lightness,readingArea,realistic,75,2023-03-27_11h11.13.926,tripletExp_regina_11082022,2022.2.4,119.6014713849839,
0,4,6,2,0.027777777777778,0.298245614035088,2,0.694444444444444,0.298245614035088,2,0.027777777777778,1.0,ReadingArea_rsl2-rcl2-esl29-rsm2-rcm69-esm29-rsr2-rcr2-esr100,exr/ReadingArea_rsl2-rcl2-esl29-rsm2-rcm69-esm29-rsr2-rcr2-esr100.exr,ReadingArea_rsl2-rcl2-esl29-rsm2-rcm69-esm29-rsr2-rcr2-esr100.npz,,,,,0,46,46,49,,left,green,2.8,443.10394382476807,443.59081983566284,1,,3,8,lightness,readingArea,realistic,75,2023-03-27_11h11.13.926,tripletExp_regina_11082022,2022.2.4,119.6014713849839,
12,14,4,2,0.027777777777778,3.10526315789474,2,0.25,3.10526315789474,2,0.694444444444444,0.298245614035088,ReadingArea_rsl2-rcl2-esl310-rsm2-rcm25-esm310-rsr2-rcr69-esr29,exr/ReadingArea_rsl2-rcl2-esl310-rsm2-rcm25-esm310-rsr2-rcr69-esr29.exr,ReadingArea_rsl2-rcl2-esl310-rsm2-rcm25-esm310-rsr2-rcr69-esr29.npz,,,,,0,47,47,315,,right,red,3.04,447.0781219005585,447.5690989494324,1,,3,8,lightness,readingArea,realistic,75,2023-03-27_11h11.13.926,tripletExp_regina_11082022,2022.2.4,119.6014713849839,
11,7,13,2,1.0,1.0,2,0.111111111111111,1.0,2,0.111111111111111,3.10526315789474,ReadingArea_rsl2-rcl100-esl100-rsm2-rcm11-esm100-rsr2-rcr11-esr310,exr/ReadingArea_rsl2-rcl100-esl100-rsm2-rcm11-esm100-rsr2-rcr11-esr310.exr,ReadingArea_rsl2-rcl100-esl100-rsm2-rcm11-esm100-rsr2-rcr11-esr310.npz,,,,,0,48,48,431,,right,red,3.17,451.07302379608154,451.53267097473145,1,,3,8,lightness,readingArea,realistic,75,2023-03-27_11h11.13.926,tripletExp_regina_11082022,2022.2.4,119.6014713849839,
6,10,8,2,0.027777777777778,1.0,2,0.694444444444444,1.0,2,0.25,1.0,ReadingArea_rsl2-rcl2-esl100-rsm2-rcm69-esm100-rsr2-rcr25-esr100,exr/ReadingArea_rsl2-rcl2-esl100-rsm2-rcm69-esm100-rsr2-rcr25-esr100.exr,ReadingArea_rsl2-rcl2-esl100-rsm2-rcm69-esm100-rsr2-rcr25-esr100.npz,,,,,0,49,49,167,,right,red,2.35,454.99484395980835,,1,,3,8,lightness,readingArea,realistic,75,2023-03-27_11h11.13.926,tripletExp_regina_11082022,2022.2.4,119.6014713849839,
13,3,5,2,0.111111111111111,3.10526315789474,2,0.444444444444444,0.298245614035088,2,1.0,0.298245614035088,ReadingArea_rsl2-rcl11-esl310-rsm2-rcm44-esm29-rsr2-rcr100-esr29,exr/ReadingArea_rsl2-rcl11-esl310-rsm2-rcm44-esm29-rsr2-rcr100-esr29.exr,ReadingArea_rsl2-rcl11-esl310-rsm2-rcm44-esm29-rsr2-rcr100-esr29.npz,,,,,0,50,50,398,,left,green,3.01,458.955157995224,459.4452657699585,1,,3,8,lightness,readingArea,realistic,75,2023-03-27_11h11.13.926,tripletExp_regina_11082022,2022.2.4,119.6014713849839,
14,9,0,2,0.25,3.10526315789474,2,0.444444444444444,1.0,2,0.027777777777778,0.298245614035088,ReadingArea_rsl2-rcl25-esl310-rsm2-rcm44-esm100-rsr2-rcr2-esr29,exr/ReadingArea_rsl2-rcl25-esl310-rsm2-rcm44-esm100-rsr2-rcr2-esr29.exr,ReadingArea_rsl2-rcl25-esl310-rsm2-rcm44-esm100-rsr2-rcr2-esr29.npz,,,,,0,51,51,313,,left,green,2.18,462.88986587524414,463.3787817955017,1,,3,8,lightness,readingArea,realistic,75,2023-03-27_11h11.13.926,tripletExp_regina_11082022,2022.2.4,119.6014713849839,
11,12,2,2,1.0,1.0,2,0.027777777777778,3.10526315789474,2,0.25,0.298245614035088,ReadingArea_rsl2-rcl100-esl100-rsm2-rcm2-esm310-rsr2-rcr25-esr29,exr/ReadingArea_rsl2-rcl100-esl100-rsm2-rcm2-esm310-rsr2-rcr25-esr29.exr,ReadingArea_rsl2-rcl100-esl100-rsm2-rcm2-esm310-rsr2-rcr25-esr29.npz,,,,,0,52,52,423,,right,red,2.17,466.8260838985443,467.29333090782166,1,,3,8,lightness,readingArea,realistic,75,2023-03-27_11h11.13.926,tripletExp_regina_11082022,2022.2.4,119.6014713849839,
13,0,4,2,0.111111111111111,3.10526315789474,2,0.027777777777778,0.298245614035088,2,0.694444444444444,0.298245614035088,ReadingArea_rsl2-rcl11-esl310-rsm2-rcm2-esm29-rsr2-rcr69-esr29,exr/ReadingArea_rsl2-rcl11-esl310-rsm2-rcm2-esm29-rsr2-rcr69-esr29.exr,ReadingArea_rsl2-rcl11-esl310-rsm2-rcm2-esm29-rsr2-rcr69-esr29.npz,,,,,0,53,53,270,,left,green,4.91,472.5442488193512,472.9983468055725,1,,3,8,lightness,readingArea,realistic,75,2023-03-27_11h11.13.926,tripletExp_regina_11082022,2022.2.4,119.6014713849839,
8,13,3,2,0.25,1.0,2,0.111111111111111,3.10526315789474,2,0.444444444444444,0.298245614035088,ReadingArea_rsl2-rcl25-esl100-rsm2-rcm11-esm310-rsr2-rcr44-esr29,exr/ReadingArea_rsl2-rcl25-esl100-rsm2-rcm11-esm310-rsr2-rcr44-esr29.exr,ReadingArea_rsl2-rcl25-esl100-rsm2-rcm11-esm310-rsr2-rcr44-esr29.npz,,,,,0,54,54,553,,left,green,4.21,478.2321689128876,,1,,3,8,lightness,readingArea,realistic,75,2023-03-27_11h11.13.926,tripletExp_regina_11082022,2022.2.4,119.6014713849839,
7,8,14,2,0.111111111111111,1.0,2,0.25,1.0,2,0.25,3.10526315789474,ReadingArea_rsl2-rcl11-esl100-rsm2-rcm25-esm100-rsr2-rcr25-esr310,exr/ReadingArea_rsl2-rcl11-esl100-rsm2-rcm25-esm100-rsr2-rcr25-esr310.exr,ReadingArea_rsl2-rcl11-esl100-rsm2-rcm25-esm100-rsr2-rcr25-esr310.npz,,,,,0,55,55,300,,left,green,3.34,482.26151299476624,482.7236008644104,1,,3,8,lightness,readingArea,realistic,75,2023-03-27_11h11.13.926,tripletExp_regina_11082022,2022.2.4,119.6014713849839,
3,6,11,2,0.444444444444444,0.298245614035088,2,0.027777777777778,1.0,2,1.0,1.0,ReadingArea_rsl2-rcl44-esl29-rsm2-rcm2-esm100-rsr2-rcr100-esr100,exr/ReadingArea_rsl2-rcl44-esl29-rsm2-rcm2-esm100-rsr2-rcr100-esr100.exr,ReadingArea_rsl2-rcl44-esl29-rsm2-rcm2-esm100-rsr2-rcr100-esr100.npz,,,,,0,56,56,155,,left,green,3.0,486.2252428531647,486.6899847984314,1,,3,8,lightness,readingArea,realistic,75,2023-03-27_11h11.13.926,tripletExp_regina_11082022,2022.2.4,119.6014713849839,
12,3,5,2,0.027777777777778,3.10526315789474,2,0.444444444444444,0.298245614035088,2,1.0,0.298245614035088,ReadingArea_rsl2-rcl2-esl310-rsm2-rcm44-esm29-rsr2-rcr100-esr29,exr/ReadingArea_rsl2-rcl2-esl310-rsm2-rcm44-esm29-rsr2-rcr100-esr29.exr,ReadingArea_rsl2-rcl2-esl310-rsm2-rcm44-esm29-rsr2-rcr100-esr29.npz,,,,,0,57,57,188,,right,red,3.75,491.88901591300964,492.48704981803894,1,,3,8,lightness,readingArea,realistic,75,2023-03-27_11h11.13.926,tripletExp_regina_11082022,2022.2.4,119.6014713849839,
10,4,9,2,0.694444444444444,1.0,2,0.694444444444444,0.298245614035088,2,0.444444444444444,1.0,ReadingArea_rsl2-rcl69-esl100-rsm2-rcm69-esm29-rsr2-rcr44-esr100,exr/ReadingArea_rsl2-rcl69-esl100-rsm2-rcm69-esm29-rsr2-rcr44-esr100.exr,ReadingArea_rsl2-rcl69-esl100-rsm2-rcm69-esm29-rsr2-rcr44-esr100.npz,,,,,0,58,58,452,,right,red,2.22,495.9269609451294,496.42767882347107,1,,3,8,lightness,readingArea,realistic,75,2023-03-27_11h11.13.926,tripletExp_regina_11082022,2022.2.4,119.6014713849839,
10,7,4,2,0.694444444444444,1.0,2,0.111111111111111,1.0,2,0.694444444444444,0.298245614035088,ReadingArea_rsl2-rcl69-esl100-rsm2-rcm11-esm100-rsr2-rcr69-esr29,exr/ReadingArea_rsl2-rcl69-esl100-rsm2-rcm11-esm100-rsr2-rcr69-esr29.exr,ReadingArea_rsl2-rcl69-esl100-rsm2-rcm11-esm100-rsr2-rcr69-esr29.npz,,,,,0,59,59,223,,right,red,2.23,499.91005182266235,,1,,3,8,lightness,readingArea,realistic,75,2023-03-27_11h11.13.926,tripletExp_regina_11082022,2022.2.4,119.6014713849839,
1,2,12,2,0.111111111111111,0.298245614035088,2,0.25,0.298245614035088,2,0.027777777777778,3.10526315789474,ReadingArea_rsl2-rcl11-esl29-rsm2-rcm25-esm29-rsr2-rcr2-esr310,exr/ReadingArea_rsl2-rcl11-esl29-rsm2-rcm25-esm29-rsr2-rcr2-esr310.exr,ReadingArea_rsl2-rcl11-esl29-rsm2-rcm25-esm29-rsr2-rcr2-esr310.npz,,,,,0,60,60,229,,left,green,3.11,503.878536939621,504.3374149799347,1,,3,8,lightness,readingArea,realistic,75,2023-03-27_11h11.13.926,tripletExp_regina_11082022,2022.2.4,119.6014713849839,
11,13,8,2,1.0,1.0,2,0.111111111111111,3.10526315789474,2,0.25,1.0,ReadingArea_rsl2-rcl100-esl100-rsm2-rcm11-esm310-rsr2-rcr25-esr100,exr/ReadingArea_rsl2-rcl100-esl100-rsm2-rcm11-esm310-rsr2-rcr25-esr100.exr,ReadingArea_rsl2-rcl100-esl100-rsm2-rcm11-esm310-rsr2-rcr25-esr100.npz,,,,,0,61,61,198,,right,red,2.52,507.8258538246155,508.3143639564514,1,,3,8,lightness,readingArea,realistic,75,2023-03-27_11h11.13.926,tripletExp_regina_11082022,2022.2.4,119.6014713849839,
3,12,14,2,0.444444444444444,0.298245614035088,2,0.027777777777778,3.10526315789474,2,0.25,3.10526315789474,ReadingArea_rsl2-rcl44-esl29-rsm2-rcm2-esm310-rsr2-rcr25-esr310,exr/ReadingArea_rsl2-rcl44-esl29-rsm2-rcm2-esm310-rsr2-rcr25-esr310.exr,ReadingArea_rsl2-rcl44-esl29-rsm2-rcm2-esm310-rsr2-rcr25-esr310.npz,,,,,0,62,62,16,,left,green,2.37,511.777795791626,512.2385768890381,1,,3,8,lightness,readingArea,realistic,75,2023-03-27_11h11.13.926,tripletExp_regina_11082022,2022.2.4,119.6014713849839,
7,12,2,2,0.111111111111111,1.0,2,0.027777777777778,3.10526315789474,2,0.25,0.298245614035088,ReadingArea_rsl2-rcl11-esl100-rsm2-rcm2-esm310-rsr2-rcr25-esr29,exr/ReadingArea_rsl2-rcl11-esl100-rsm2-rcm2-esm310-rsr2-rcr25-esr29.exr,ReadingArea_rsl2-rcl11-esl100-rsm2-rcm2-esm310-rsr2-rcr25-esr29.npz,,,,,0,63,63,72,,left,green,2.88,515.7038707733154,,1,,3,8,lightness,readingArea,realistic,75,2023-03-27_11h11.13.926,tripletExp_regina_11082022,2022.2.4,119.6014713849839,
6,1,10,2,0.027777777777778,1.0,2,0.111111111111111,0.298245614035088,2,0.694444444444444,1.0,ReadingArea_rsl2-rcl2-esl100-rsm2-rcm11-esm29-rsr2-rcr69-esr100,exr/ReadingArea_rsl2-rcl2-esl100-rsm2-rcm11-esm29-rsr2-rcr69-esr100.exr,ReadingArea_rsl2-rcl2-esl100-rsm2-rcm11-esm29-rsr2-rcr69-esr100.npz,,,,,0,64,64,561,,left,green,2.38,519.718181848526,520.1834478378296,1,,3,8,lightness,readingArea,realistic,75,2023-03-27_11h11.13.926,tripletExp_regina_11082022,2022.2.4,119.6014713849839,
2,6,13,2,0.25,0.298245614035088,2,0.027777777777778,1.0,2,0.111111111111111,3.10526315789474,ReadingArea_rsl2-rcl25-esl29-rsm2-rcm2-esm100-rsr2-rcr11-esr310,exr/ReadingArea_rsl2-rcl25-esl29-rsm2-rcm2-esm100-rsr2-rcr11-esr310.exr,ReadingArea_rsl2-rcl25-esl29-rsm2-rcm2-esm100-rsr2-rcr11-esr310.npz,,,,,0,65,65,388,,left,green,2.27,523.6708979606628,524.1504719257355,1,,3,8,lightness,readingArea,realistic,75,2023-03-27_11h11.13.926,tripletExp_regina_11082022,2022.2.4,119.6014713849839,
1,5,14,2,0.111111111111111,0.298245614035088,2,1.0,0.298245614035088,2,0.25,3.10526315789474,ReadingArea_rsl2-rcl11-esl29-rsm2-rcm100-esm29-rsr2-rcr25-esr310,exr/ReadingArea_rsl2-rcl11-esl29-rsm2-rcm100-esm29-rsr2-rcr25-esr310.exr,ReadingArea_rsl2-rcl11-esl29-rsm2-rcm100-esm29-rsr2-rcr25-esr310.npz,,,,,0,66,66,191,,right,red,2.69,527.6240808963776,528.222482919693,1,,3,8,lightness,readingArea,realistic,75,2023-03-27_11h11.13.926,tripletExp_regina_11082022,2022.2.4,119.6014713849839,
13,1,7,2,0.111111111111111,3.10526315789474,2,0.111111111111111,0.298245614035088,2,0.111111111111111,1.0,ReadingArea_rsl2-rcl11-esl310-rsm2-rcm11-esm29-rsr2-rcr11-esr100,exr/ReadingArea_rsl2-rcl11-esl310-rsm2-rcm11-esm29-rsr2-rcr11-esr100.exr,ReadingArea_rsl2-rcl11-esl310-rsm2-rcm11-esm29-rsr2-rcr11-esr100.npz,,,,,0,67,67,206,,right,red,2.86,531.6830348968506,532.2461528778076,1,,3,8,lightness,readingArea,realistic,75,2023-03-27_11h11.13.926,tripletExp_regina_11082022,2022.2.4,119.6014713849839,
13,4,0,2,0.111111111111111,3.10526315789474,2,0.694444444444444,0.298245614035088,2,0.027777777777778,0.298245614035088,ReadingArea_rsl2-rcl11-esl310-rsm2-rcm69-esm29-rsr2-rcr2-esr29,exr/ReadingArea_rsl2-rcl11-esl310-rsm2-rcm69-esm29-rsr2-rcr2-esr29.exr,ReadingArea_rsl2-rcl11-esl310-rsm2-rcm69-esm29-rsr2-rcr2-esr29.npz,,,,,0,68,68,269,,left,green,2.16,535.7278847694397,536.2074899673462,1,,3,8,lightness,readingArea,realistic,75,2023-03-27_11h11.13.926,tripletExp_regina_11082022,2022.2.4,119.6014713849839,
4,2,13,2,0.694444444444444,0.298245614035088,2,0.25,0.298245614035088,2,0.111111111111111,3.10526315789474,ReadingArea_rsl2-rcl69-esl29-rsm2-rcm25-esm29-rsr2-rcr11-esr310,exr/ReadingArea_rsl2-rcl69-esl29-rsm2-rcm25-esm29-rsr2-rcr11-esr310.exr,ReadingArea_rsl2-rcl69-esl29-rsm2-rcm25-esm29-rsr2-rcr11-esr310.npz,,,,,0,69,69,304,,left,green,2.78,539.674861907959,,1,,3,8,lightness,readingArea,realistic,75,2023-03-27_11h11.13.926,tripletExp_regina_11082022,2022.2.4,119.6014713849839,
3,7,0,2,0.444444444444444,0.298245614035088,2,0.111111111111111,1.0,2,0.027777777777778,0.298245614035088,ReadingArea_rsl2-rcl44-esl29-rsm2-rcm11-esm100-rsr2-rcr2-esr29,exr/ReadingArea_rsl2-rcl44-esl29-rsm2-rcm11-esm100-rsr2-rcr2-esr29.exr,ReadingArea_rsl2-rcl44-esl29-rsm2-rcm11-esm100-rsr2-rcr2-esr29.npz,,,,,0,70,70,327,,left,green,2.53,543.598466873169,544.073157787323,1,,3,8,lightness,readingArea,realistic,75,2023-03-27_11h11.13.926,tripletExp_regina_11082022,2022.2.4,119.6014713849839,
14,13,3,2,0.25,3.10526315789474,2,0.111111111111111,3.10526315789474,2,0.444444444444444,0.298245614035088,ReadingArea_rsl2-rcl25-esl310-rsm2-rcm11-esm310-rsr2-rcr44-esr29,exr/ReadingArea_rsl2-rcl25-esl310-rsm2-rcm11-esm310-rsr2-rcr44-esr29.exr,ReadingArea_rsl2-rcl25-esl310-rsm2-rcm11-esm310-rsr2-rcr44-esr29.npz,,,,,0,71,71,256,,right,red,2.24,547.536073923111,548.0332248210907,1,,3,8,lightness,readingArea,realistic,75,2023-03-27_11h11.13.926,tripletExp_regina_11082022,2022.2.4,119.6014713849839,
2,14,7,2,0.25,0.298245614035088,2,0.25,3.10526315789474,2,0.111111111111111,1.0,ReadingArea_rsl2-rcl25-esl29-rsm2-rcm25-esm310-rsr2-rcr11-esr100,exr/ReadingArea_rsl2-rcl25-esl29-rsm2-rcm25-esm310-rsr2-rcr11-esr100.exr,ReadingArea_rsl2-rcl25-esl29-rsm2-rcm25-esm310-rsr2-rcr11-esr100.npz,,,,,0,72,72,310,,left,green,2.18,551.4923667907715,551.9566798210144,1,,3,8,lightness,readingArea,realistic,75,2023-03-27_11h11.13.926,tripletExp_regina_11082022,2022.2.4,119.6014713849839,
8,12,4,2,0.25,1.0,2,0.027777777777778,3.10526315789474,2,0.694444444444444,0.298245614035088,ReadingArea_rsl2-rcl25-esl100-rsm2-rcm2-esm310-rsr2-rcr69-esr29,exr/ReadingArea_rsl2-rcl25-esl100-rsm2-rcm2-esm310-rsr2-rcr69-esr29.exr,ReadingArea_rsl2-rcl25-esl100-rsm2-rcm2-esm310-rsr2-rcr69-esr29.npz,,,,,0,73,73,30,,left,green,2.58,555.4260909557343,555.8975598812103,1,,3,8,lightness,readingArea,realistic,75,2023-03-27_11h11.13.926,tripletExp_regina_11082022,2022.2.4,119.6014713849839,
11,5,3,2,1.0,1.0,2,1.0,0.298245614035088,2,0.444444444444444,0.298245614035088,ReadingArea_rsl2-rcl100-esl100-rsm2-rcm100-esm29-rsr2-rcr44-esr29,exr/ReadingArea_rsl2-rcl100-esl100-rsm2-rcm100-esm29-rsr2-rcr44-esr29.exr,ReadingArea_rsl2-rcl100-esl100-rsm2-rcm100-esm29-rsr2-rcr44-esr29.npz,,,,,0,74,74,172,,right,red,2.43,559.371081829071,559.5764927864075,1,,3,8,lightness,readingArea,realistic,75,2023-03-27_11h11.13.926,tripletExp_regina_11082022,2022.2.4,119.6014713849839,
10,6,3,2,0.694444444444444,1.0,2,0.027777777777778,1.0,2,0.444444444444444,0.298245614035088,ReadingArea_rsl2-rcl69-esl100-rsm2-rcm2-esm100-rsr2-rcr44-esr29,exr/ReadingArea_rsl2-rcl69-esl100-rsm2-rcm2-esm100-rsr2-rcr44-esr29.exr,ReadingArea_rsl2-rcl69-esl100-rsm2-rcm2-esm100-rsr2-rcr44-esr29.npz,,,,,0,75,75,0,,right,red,2.85,635.5791277885437,636.0342669487,2,,3,8,lightness,readingArea,realistic,75,2023-03-27_11h11.13.926,tripletExp_regina_11082022,2022.2.4,119.6014713849839,
5,4,1,2,1.0,0.298245614035088,2,0.694444444444444,0.298245614035088,2,0.111111111111111,0.298245614035088,ReadingArea_rsl2-rcl100-esl29-rsm2-rcm69-esm29-rsr2-rcr11-esr29,exr/ReadingArea_rsl2-rcl100-esl29-rsm2-rcm69-esm29-rsr2-rcr11-esr29.exr,ReadingArea_rsl2-rcl100-esl29-rsm2-rcm69-esm29-rsr2-rcr11-esr29.npz,,,,,0,76,76,560,,left,green,2.2,639.505676984787,639.9960389137268,2,,3,8,lightness,readingArea,realistic,75,2023-03-27_11h11.13.926,tripletExp_regina_11082022,2022.2.4,119.6014713849839,
0,5,11,2,0.027777777777778,0.298245614035088,2,1.0,0.298245614035088,2,1.0,1.0,ReadingArea_rsl2-rcl2-esl29-rsm2-rcm100-esm29-rsr2-rcr100-esr100,exr/ReadingArea_rsl2-rcl2-esl29-rsm2-rcm100-esm29-rsr2-rcr100-esr100.exr,ReadingArea_rsl2-rcl2-esl29-rsm2-rcm100-esm29-rsr2-rcr100-esr100.npz,,,,,0,77,77,422,,right,red,2.42,643.4642789363861,644.0178728103638,2,,3,8,lightness,readingArea,realistic,75,2023-03-27_11h11.13.926,tripletExp_regina_11082022,2022.2.4,119.6014713849839,
2,6,0,2,0.25,0.298245614035088,2,0.027777777777778,1.0,2,0.027777777777778,0.298245614035088,ReadingArea_rsl2-rcl25-esl29-rsm2-rcm2-esm100-rsr2-rcr2-esr29,exr/ReadingArea_rsl2-rcl25-esl29-rsm2-rcm2-esm100-rsr2-rcr2-esr29.exr,ReadingArea_rsl2-rcl25-esl29-rsm2-rcm2-esm100-rsr2-rcr2-esr29.npz,,,,,0,78,78,525,,right,red,2.9,647.4873487949371,647.9856748580933,2,,3,8,lightness,readingArea,realistic,75,2023-03-27_11h11.13.926,tripletExp_regina_11082022,2022.2.4,119.6014713849839,
6,13,0,2,0.027777777777778,1.0,2,0.111111111111111,3.10526315789474,2,0.027777777777778,0.298245614035088,ReadingArea_rsl2-rcl2-esl100-rsm2-rcm11-esm310-rsr2-rcr2-esr29,exr/ReadingArea_rsl2-rcl2-esl100-rsm2-rcm11-esm310-rsr2-rcr2-esr29.exr,ReadingArea_rsl2-rcl2-esl100-rsm2-rcm11-esm310-rsr2-rcr2-esr29.npz,,,,,0,79,79,580,,left,green,3.8,653.1964199542999,653.7378568649292,2,,3,8,lightness,readingArea,realistic,75,2023-03-27_11h11.13.926,tripletExp_regina_11082022,2022.2.4,119.6014713849839,
5,2,14,2,1.0,0.298245614035088,2,0.25,0.298245614035088,2,0.25,3.10526315789474,ReadingArea_rsl2-rcl100-esl29-rsm2-rcm25-esm29-rsr2-rcr25-esr310,exr/ReadingArea_rsl2-rcl100-esl29-rsm2-rcm25-esm29-rsr2-rcr25-esr310.exr,ReadingArea_rsl2-rcl100-esl29-rsm2-rcm25-esm29-rsr2-rcr25-esr310.npz,,,,,0,80,80,462,,left,green,3.17,657.2167158126831,657.684910774231,2,,3,8,lightness,readingArea,realistic,75,2023-03-27_11h11.13.926,tripletExp_regina_11082022,2022.2.4,119.6014713849839,
6,0,10,2,0.027777777777778,1.0,2,0.027777777777778,0.298245614035088,2,0.694444444444444,1.0,ReadingArea_rsl2-rcl2-esl100-rsm2-rcm2-esm29-rsr2-rcr69-esr100,exr/ReadingArea_rsl2-rcl2-esl100-rsm2-rcm2-esm29-rsr2-rcr69-esr100.exr,ReadingArea_rsl2-rcl2-esl100-rsm2-rcm2-esm29-rsr2-rcr69-esr100.npz,,,,,0,81,81,532,,left,green,1.55,659.3738598823547,659.8748288154602,2,,3,8,lightness,readingArea,realistic,75,2023-03-27_11h11.13.926,tripletExp_regina_11082022,2022.2.4,119.6014713849839,
8,2,0,2,0.25,1.0,2,0.25,0.298245614035088,2,0.027777777777778,0.298245614035088,ReadingArea_rsl2-rcl25-esl100-rsm2-rcm25-esm29-rsr2-rcr2-esr29,exr/ReadingArea_rsl2-rcl25-esl100-rsm2-rcm25-esm29-rsr2-rcr2-esr29.exr,ReadingArea_rsl2-rcl25-esl100-rsm2-rcm25-esm29-rsr2-rcr2-esr29.npz,,,,,0,82,82,574,,left,green,2.52,663.3267679214478,663.785041809082,2,,3,8,lightness,readingArea,realistic,75,2023-03-27_11h11.13.926,tripletExp_regina_11082022,2022.2.4,119.6014713849839,
1,11,14,2,0.111111111111111,0.298245614035088,2,1.0,1.0,2,0.25,3.10526315789474,ReadingArea_rsl2-rcl11-esl29-rsm2-rcm100-esm100-rsr2-rcr25-esr310,exr/ReadingArea_rsl2-rcl11-esl29-rsm2-rcm100-esm100-rsr2-rcr25-esr310.exr,ReadingArea_rsl2-rcl11-esl29-rsm2-rcm100-esm100-rsr2-rcr25-esr310.npz,,,,,0,83,83,399,,right,red,4.49,668.9964349269867,669.5010869503021,2,,3,8,lightness,readingArea,realistic,75,2023-03-27_11h11.13.926,tripletExp_regina_11082022,2022.2.4,119.6014713849839,
4,14,1,2,0.694444444444444,0.298245614035088,2,0.25,3.10526315789474,2,0.111111111111111,0.298245614035088,ReadingArea_rsl2-rcl69-esl29-rsm2-rcm25-esm310-rsr2-rcr11-esr29,exr/ReadingArea_rsl2-rcl69-esl29-rsm2-rcm25-esm310-rsr2-rcr11-esr29.exr,ReadingArea_rsl2-rcl69-esl29-rsm2-rcm25-esm310-rsr2-rcr11-esr29.npz,,,,,0,84,84,477,,left,green,2.19,672.9607949256897,673.4891798496246,2,,3,8,lightness,readingArea,realistic,75,2023-03-27_11h11.13.926,tripletExp_regina_11082022,2022.2.4,119.6014713849839,
6,9,2,2,0.027777777777778,1.0,2,0.444444444444444,1.0,2,0.25,0.298245614035088,ReadingArea_rsl2-rcl2-esl100-rsm2-rcm44-esm100-rsr2-rcr25-esr29,exr/ReadingArea_rsl2-rcl2-esl100-rsm2-rcm44-esm100-rsr2-rcr25-esr29.exr,ReadingArea_rsl2-rcl2-esl100-rsm2-rcm44-esm100-rsr2-rcr25-esr29.npz,,,,,0,85,85,182,,right,red,2.2,676.9794809818268,,2,,3,8,lightness,readingArea,realistic,75,2023-03-27_11h11.13.926,tripletExp_regina_11082022,2022.2.4,119.6014713849839,
8,14,3,2,0.25,1.0,2,0.25,3.10526315789474,2,0.444444444444444,0.298245614035088,ReadingArea_rsl2-rcl25-esl100-rsm2-rcm25-esm310-rsr2-rcr44-esr29,exr/ReadingArea_rsl2-rcl25-esl100-rsm2-rcm25-esm310-rsr2-rcr44-esr29.exr,ReadingArea_rsl2-rcl25-esl100-rsm2-rcm25-esm310-rsr2-rcr44-esr29.npz,,,,,0,86,86,503,,left,green,4.56,682.6877579689026,683.1868679523468,2,,3,8,lightness,readingArea,realistic,75,2023-03-27_11h11.13.926,tripletExp_regina_11082022,2022.2.4,119.6014713849839,
11,1,12,2,1.0,1.0,2,0.111111111111111,0.298245614035088,2,0.027777777777778,3.10526315789474,ReadingArea_rsl2-rcl100-esl100-rsm2-rcm11-esm29-rsr2-rcr2-esr310,exr/ReadingArea_rsl2-rcl100-esl100-rsm2-rcm11-esm29-rsr2-rcr2-esr310.exr,ReadingArea_rsl2-rcl100-esl100-rsm2-rcm11-esm29-rsr2-rcr2-esr310.npz,,,,,0,87,87,339,,right,red,2.6,686.6677448749542,687.1394658088684,2,,3,8,lightness,readingArea,realistic,75,2023-03-27_11h11.13.926,tripletExp_regina_11082022,2022.2.4,119.6014713849839,
1,5,8,2,0.111111111111111,0.298245614035088,2,1.0,0.298245614035088,2,0.25,1.0,ReadingArea_rsl2-rcl11-esl29-rsm2-rcm100-esm29-rsr2-rcr25-esr100,exr/ReadingArea_rsl2-rcl11-esl29-rsm2-rcm100-esm29-rsr2-rcr25-esr100.exr,ReadingArea_rsl2-rcl11-esl29-rsm2-rcm100-esm29-rsr2-rcr25-esr100.npz,,,,,0,88,88,238,,right,red,2.1,690.6309258937836,691.0926489830017,2,,3,8,lightness,readingArea,realistic,75,2023-03-27_11h11.13.926,tripletExp_regina_11082022,2022.2.4,119.6014713849839,
6,12,7,2,0.027777777777778,1.0,2,0.027777777777778,3.10526315789474,2,0.111111111111111,1.0,ReadingArea_rsl2-rcl2-esl100-rsm2-rcm2-esm310-rsr2-rcr11-esr100,exr/ReadingArea_rsl2-rcl2-esl100-rsm2-rcm2-esm310-rsr2-rcr11-esr100.exr,ReadingArea_rsl2-rcl2-esl100-rsm2-rcm2-esm310-rsr2-rcr11-esr100.npz,,,,,0,89,89,157,,left,green,2.1,694.5523869991302,695.0323219299316,2,,3,8,lightness,readingArea,realistic,75,2023-03-27_11h11.13.926,tripletExp_regina_11082022,2022.2.4,119.6014713849839,
14,5,9,2,0.25,3.10526315789474,2,1.0,0.298245614035088,2,0.444444444444444,1.0,ReadingArea_rsl2-rcl25-esl310-rsm2-rcm100-esm29-rsr2-rcr44-esr100,exr/ReadingArea_rsl2-rcl25-esl310-rsm2-rcm100-esm29-rsr2-rcr44-esr100.exr,ReadingArea_rsl2-rcl25-esl310-rsm2-rcm100-esm29-rsr2-rcr44-esr100.npz,,,,,0,90,90,482,,left,green,3.27,698.5174489021301,698.9942789077759,2,,3,8,lightness,readingArea,realistic,75,2023-03-27_11h11.13.926,tripletExp_regina_11082022,2022.2.4,119.6014713849839,
12,9,11,2,0.027777777777778,3.10526315789474,2,0.444444444444444,1.0,2,1.0,1.0,ReadingArea_rsl2-rcl2-esl310-rsm2-rcm44-esm100-rsr2-rcr100-esr100,exr/ReadingArea_rsl2-rcl2-esl310-rsm2-rcm44-esm100-rsr2-rcr100-esr100.exr,ReadingArea_rsl2-rcl2-esl310-rsm2-rcm44-esm100-rsr2-rcr100-esr100.npz,,,,,0,91,91,18,,left,green,4.26,704.2322428226471,704.702752828598,2,,3,8,lightness,readingArea,realistic,75,2023-03-27_11h11.13.926,tripletExp_regina_11082022,2022.2.4,119.6014713849839,
4,5,1,2,0.694444444444444,0.298245614035088,2,1.0,0.298245614035088,2,0.111111111111111,0.298245614035088,ReadingArea_rsl2-rcl69-esl29-rsm2-rcm100-esm29-rsr2-rcr11-esr29,exr/ReadingArea_rsl2-rcl69-esl29-rsm2-rcm100-esm29-rsr2-rcr11-esr29.exr,ReadingArea_rsl2-rcl69-esl29-rsm2-rcm100-esm29-rsr2-rcr11-esr29.npz,,,,,0,92,92,240,,left,green,2.4,708.1662077903748,708.6719467639923,2,,3,8,lightness,readingArea,realistic,75,2023-03-27_11h11.13.926,tripletExp_regina_11082022,2022.2.4,119.6014713849839,
3,12,6,2,0.444444444444444,0.298245614035088,2,0.027777777777778,3.10526315789474,2,0.027777777777778,1.0,ReadingArea_rsl2-rcl44-esl29-rsm2-rcm2-esm310-rsr2-rcr2-esr100,exr/ReadingArea_rsl2-rcl44-esl29-rsm2-rcm2-esm310-rsr2-rcr2-esr100.exr,ReadingArea_rsl2-rcl44-esl29-rsm2-rcm2-esm310-rsr2-rcr2-esr100.npz,,,,,0,93,93,353,,right,red,2.28,712.1285319328308,712.627466917038,2,,3,8,lightness,readingArea,realistic,75,2023-03-27_11h11.13.926,tripletExp_regina_11082022,2022.2.4,119.6014713849839,
12,5,14,2,0.027777777777778,3.10526315789474,2,1.0,0.298245614035088,2,0.25,3.10526315789474,ReadingArea_rsl2-rcl2-esl310-rsm2-rcm100-esm29-rsr2-rcr25-esr310,exr/ReadingArea_rsl2-rcl2-esl310-rsm2-rcm100-esm29-rsr2-rcr25-esr310.exr,ReadingArea_rsl2-rcl2-esl310-rsm2-rcm100-esm29-rsr2-rcr25-esr310.npz,,,,,0,94,94,193,,right,red,2.63,716.0769917964935,,2,,3,8,lightness,readingArea,realistic,75,2023-03-27_11h11.13.926,tripletExp_regina_11082022,2022.2.4,119.6014713849839,
9,7,3,2,0.444444444444444,1.0,2,0.111111111111111,1.0,2,0.444444444444444,0.298245614035088,ReadingArea_rsl2-rcl44-esl100-rsm2-rcm11-esm100-rsr2-rcr44-esr29,exr/ReadingArea_rsl2-rcl44-esl100-rsm2-rcm11-esm100-rsr2-rcr44-esr29.exr,ReadingArea_rsl2-rcl44-esl100-rsm2-rcm11-esm100-rsr2-rcr44-esr29.npz,,,,,0,95,95,235,,right,red,2.2,720.0331888198853,720.5229208469391,2,,3,8,lightness,readingArea,realistic,75,2023-03-27_11h11.13.926,tripletExp_regina_11082022,2022.2.4,119.6014713849839,
6,3,13,2,0.027777777777778,1.0,2,0.444444444444444,0.298245614035088,2,0.111111111111111,3.10526315789474,ReadingArea_rsl2-rcl2-esl100-rsm2-rcm44-esm29-rsr2-rcr11-esr310,exr/ReadingArea_rsl2-rcl2-esl100-rsm2-rcm44-esm29-rsr2-rcr11-esr310.exr,ReadingArea_rsl2-rcl2-esl100-rsm2-rcm44-esm29-rsr2-rcr11-esr310.npz,,,,,0,96,96,228,,right,red,2.1,724.0225179195404,724.4607558250427,2,,3,8,lightness,readingArea,realistic,75,2023-03-27_11h11.13.926,tripletExp_regina_11082022,2022.2.4,119.6014713849839,
7,3,12,2,0.111111111111111,1.0,2,0.444444444444444,0.298245614035088,2,0.027777777777778,3.10526315789474,ReadingArea_rsl2-rcl11-esl100-rsm2-rcm44-esm29-rsr2-rcr2-esr310,exr/ReadingArea_rsl2-rcl11-esl100-rsm2-rcm44-esm29-rsr2-rcr2-esr310.exr,ReadingArea_rsl2-rcl11-esl100-rsm2-rcm44-esm29-rsr2-rcr2-esr310.npz,,,,,0,97,97,443,,left,green,2.63,727.9201049804688,728.3849329948425,2,,3,8,lightness,readingArea,realistic,75,2023-03-27_11h11.13.926,tripletExp_regina_11082022,2022.2.4,119.6014713849839,
2,8,11,2,0.25,0.298245614035088,2,0.25,1.0,2,1.0,1.0,ReadingArea_rsl2-rcl25-esl29-rsm2-rcm25-esm100-rsr2-rcr100-esr100,exr/ReadingArea_rsl2-rcl25-esl29-rsm2-rcm25-esm100-rsr2-rcr100-esr100.exr,ReadingArea_rsl2-rcl25-esl29-rsm2-rcm25-esm100-rsr2-rcr100-esr100.npz,,,,,0,98,98,225,,left,green,2.31,731.8571939468384,732.3515949249268,2,,3,8,lightness,readingArea,realistic,75,2023-03-27_11h11.13.926,tripletExp_regina_11082022,2022.2.4,119.6014713849839,
4,7,10,2,0.694444444444444,0.298245614035088,2,0.111111111111111,1.0,2,0.694444444444444,1.0,ReadingArea_rsl2-rcl69-esl29-rsm2-rcm11-esm100-rsr2-rcr69-esr100,exr/ReadingArea_rsl2-rcl69-esl29-rsm2-rcm11-esm100-rsr2-rcr69-esr100.exr,ReadingArea_rsl2-rcl69-esl29-rsm2-rcm11-esm100-rsr2-rcr69-esr100.npz,,,,,0,99,99,8,,left,green,2.31,735.8161509037018,736.3179998397827,2,,3,8,lightness,readingArea,realistic,75,2023-03-27_11h11.13.926,tripletExp_regina_11082022,2022.2.4,119.6014713849839,
9,11,3,2,0.444444444444444,1.0,2,1.0,1.0,2,0.444444444444444,0.298245614035088,ReadingArea_rsl2-rcl44-esl100-rsm2-rcm100-esm100-rsr2-rcr44-esr29,exr/ReadingArea_rsl2-rcl44-esl100-rsm2-rcm100-esm100-rsr2-rcr44-esr29.exr,ReadingArea_rsl2-rcl44-esl100-rsm2-rcm100-esm100-rsr2-rcr44-esr29.npz,,,,,0,100,100,348,,left,green,3.93,741.552426815033,742.0638799667358,2,,3,8,lightness,readingArea,realistic,75,2023-03-27_11h11.13.926,tripletExp_regina_11082022,2022.2.4,119.6014713849839,
0,8,9,2,0.027777777777778,0.298245614035088,2,0.25,1.0,2,0.444444444444444,1.0,ReadingArea_rsl2-rcl2-esl29-rsm2-rcm25-esm100-rsr2-rcr44-esr100,exr/ReadingArea_rsl2-rcl2-esl29-rsm2-rcm25-esm100-rsr2-rcr44-esr100.exr,ReadingArea_rsl2-rcl2-esl29-rsm2-rcm25-esm100-rsr2-rcr44-esr100.npz,,,,,0,101,101,541,,right,red,2.53,745.5455958843231,746.0405387878418,2,,3,8,lightness,readingArea,realistic,75,2023-03-27_11h11.13.926,tripletExp_regina_11082022,2022.2.4,119.6014713849839,
9,6,13,2,0.444444444444444,1.0,2,0.027777777777778,1.0,2,0.111111111111111,3.10526315789474,ReadingArea_rsl2-rcl44-esl100-rsm2-rcm2-esm100-rsr2-rcr11-esr310,exr/ReadingArea_rsl2-rcl44-esl100-rsm2-rcm2-esm100-rsr2-rcr11-esr310.exr,ReadingArea_rsl2-rcl44-esl100-rsm2-rcm2-esm100-rsr2-rcr11-esr310.npz,,,,,0,102,102,285,,right,red,3.86,751.2995598316193,,2,,3,8,lightness,readingArea,realistic,75,2023-03-27_11h11.13.926,tripletExp_regina_11082022,2022.2.4,119.6014713849839,
4,12,7,2,0.694444444444444,0.298245614035088,2,0.027777777777778,3.10526315789474,2,0.111111111111111,1.0,ReadingArea_rsl2-rcl69-esl29-rsm2-rcm2-esm310-rsr2-rcr11-esr100,exr/ReadingArea_rsl2-rcl69-esl29-rsm2-rcm2-esm310-rsr2-rcr11-esr100.exr,ReadingArea_rsl2-rcl69-esl29-rsm2-rcm2-esm310-rsr2-rcr11-esr100.npz,,,,,0,103,103,112,,right,red,2.78,755.2596077919006,755.720027923584,2,,3,8,lightness,readingArea,realistic,75,2023-03-27_11h11.13.926,tripletExp_regina_11082022,2022.2.4,119.6014713849839,
14,6,5,2,0.25,3.10526315789474,2,0.027777777777778,1.0,2,1.0,0.298245614035088,ReadingArea_rsl2-rcl25-esl310-rsm2-rcm2-esm100-rsr2-rcr100-esr29,exr/ReadingArea_rsl2-rcl25-esl310-rsm2-rcm2-esm100-rsr2-rcr100-esr29.exr,ReadingArea_rsl2-rcl25-esl310-rsm2-rcm2-esm100-rsr2-rcr100-esr29.npz,,,,,0,104,104,297,,right,red,4.42,760.9725317955017,761.4464049339294,2,,3,8,lightness,readingArea,realistic,75,2023-03-27_11h11.13.926,tripletExp_regina_11082022,2022.2.4,119.6014713849839,
2,3,6,2,0.25,0.298245614035088,2,0.444444444444444,0.298245614035088,2,0.027777777777778,1.0,ReadingArea_rsl2-rcl25-esl29-rsm2-rcm44-esm29-rsr2-rcr2-esr100,exr/ReadingArea_rsl2-rcl25-esl29-rsm2-rcm44-esm29-rsr2-rcr2-esr100.exr,ReadingArea_rsl2-rcl25-esl29-rsm2-rcm44-esm29-rsr2-rcr2-esr100.npz,,,,,0,105,105,357,,left,green,4.05,766.690102815628,767.1721558570862,2,,3,8,lightness,readingArea,realistic,75,2023-03-27_11h11.13.926,tripletExp_regina_11082022,2022.2.4,119.6014713849839,
13,11,2,2,0.111111111111111,3.10526315789474,2,1.0,1.0,2,0.25,0.298245614035088,ReadingArea_rsl2-rcl11-esl310-rsm2-rcm100-esm100-rsr2-rcr25-esr29,exr/ReadingArea_rsl2-rcl11-esl310-rsm2-rcm100-esm100-rsr2-rcr25-esr29.exr,ReadingArea_rsl2-rcl11-esl310-rsm2-rcm100-esm100-rsr2-rcr25-esr29.npz,,,,,0,106,106,55,,left,green,3.89,772.3837587833405,772.8406398296356,2,,3,8,lightness,readingArea,realistic,75,2023-03-27_11h11.13.926,tripletExp_regina_11082022,2022.2.4,119.6014713849839,
13,0,12,2,0.111111111111111,3.10526315789474,2,0.027777777777778,0.298245614035088,2,0.027777777777778,3.10526315789474,ReadingArea_rsl2-rcl11-esl310-rsm2-rcm2-esm29-rsr2-rcr2-esr310,exr/ReadingArea_rsl2-rcl11-esl310-rsm2-rcm2-esm29-rsr2-rcr2-esr310.exr,ReadingArea_rsl2-rcl11-esl310-rsm2-rcm2-esm29-rsr2-rcr2-esr310.npz,,,,,0,107,107,56,,right,red,2.51,776.3109588623047,776.8165588378906,2,,3,8,lightness,readingArea,realistic,75,2023-03-27_11h11.13.926,tripletExp_regina_11082022,2022.2.4,119.6014713849839,
2,11,7,2,0.25,0.298245614035088,2,1.0,1.0,2,0.111111111111111,1.0,ReadingArea_rsl2-rcl25-esl29-rsm2-rcm100-esm100-rsr2-rcr11-esr100,exr/ReadingArea_rsl2-rcl25-esl29-rsm2-rcm100-esm100-rsr2-rcr11-esr100.exr,ReadingArea_rsl2-rcl25-esl29-rsm2-rcm100-esm100-rsr2-rcr11-esr100.npz,,,,,0,108,108,576,,left,green,2.58,780.2735378742218,780.7764139175415,2,,3,8,lightness,readingArea,realistic,75,2023-03-27_11h11.13.926,tripletExp_regina_11082022,2022.2.4,119.6014713849839,
6,0,1,2,0.027777777777778,1.0,2,0.027777777777778,0.298245614035088,2,0.111111111111111,0.298245614035088,ReadingArea_rsl2-rcl2-esl100-rsm2-rcm2-esm29-rsr2-rcr11-esr29,exr/ReadingArea_rsl2-rcl2-esl100-rsm2-rcm2-esm29-rsr2-rcr11-esr29.exr,ReadingArea_rsl2-rcl2-esl100-rsm2-rcm2-esm29-rsr2-rcr11-esr29.npz,,,,,0,109,109,302,,left,green,2.09,784.2542288303375,784.7104358673096,2,,3,8,lightness,readingArea,realistic,75,2023-03-27_11h11.13.926,tripletExp_regina_11082022,2022.2.4,119.6014713849839,
3,7,8,2,0.444444444444444,0.298245614035088,2,0.111111111111111,1.0,2,0.25,1.0,ReadingArea_rsl2-rcl44-esl29-rsm2-rcm11-esm100-rsr2-rcr25-esr100,exr/ReadingArea_rsl2-rcl44-esl29-rsm2-rcm11-esm100-rsr2-rcr25-esr100.exr,ReadingArea_rsl2-rcl44-esl29-rsm2-rcm11-esm100-rsr2-rcr25-esr100.npz,,,,,0,110,110,246,,left,green,2.34,788.172486782074,,2,,3,8,lightness,readingArea,realistic,75,2023-03-27_11h11.13.926,tripletExp_regina_11082022,2022.2.4,119.6014713849839,
13,1,3,2,0.111111111111111,3.10526315789474,2,0.111111111111111,0.298245614035088,2,0.444444444444444,0.298245614035088,ReadingArea_rsl2-rcl11-esl310-rsm2-rcm11-esm29-rsr2-rcr44-esr29,exr/ReadingArea_rsl2-rcl11-esl310-rsm2-rcm11-esm29-rsr2-rcr44-esr29.exr,ReadingArea_rsl2-rcl11-esl310-rsm2-rcm11-esm29-rsr2-rcr44-esr29.npz,,,,,0,111,111,588,,left,green,3.93,793.9991209506989,794.4905848503113,2,,3,8,lightness,readingArea,realistic,75,2023-03-27_11h11.13.926,tripletExp_regina_11082022,2022.2.4,119.6014713849839,
6,4,13,2,0.027777777777778,1.0,2,0.694444444444444,0.298245614035088,2,0.111111111111111,3.10526315789474,ReadingArea_rsl2-rcl2-esl100-rsm2-rcm69-esm29-rsr2-rcr11-esr310,exr/ReadingArea_rsl2-rcl2-esl100-rsm2-rcm69-esm29-rsr2-rcr11-esr310.exr,ReadingArea_rsl2-rcl2-esl100-rsm2-rcm69-esm29-rsr2-rcr11-esr310.npz,,,,,0,112,112,202,,right,red,1.94,797.981449842453,798.4239928722382,2,,3,8,lightness,readingArea,realistic,75,2023-03-27_11h11.13.926,tripletExp_regina_11082022,2022.2.4,119.6014713849839,
6,0,14,2,0.027777777777778,1.0,2,0.027777777777778,0.298245614035088,2,0.25,3.10526315789474,ReadingArea_rsl2-rcl2-esl100-rsm2-rcm2-esm29-rsr2-rcr25-esr310,exr/ReadingArea_rsl2-rcl2-esl100-rsm2-rcm2-esm29-rsr2-rcr25-esr310.exr,ReadingArea_rsl2-rcl2-esl100-rsm2-rcm2-esm29-rsr2-rcr25-esr310.npz,,,,,0,113,113,169,,left,green,1.23,800.117045879364,800.5938069820404,2,,3,8,lightness,readingArea,realistic,75,2023-03-27_11h11.13.926,tripletExp_regina_11082022,2022.2.4,119.6014713849839,
10,0,8,2,0.694444444444444,1.0,2,0.027777777777778,0.298245614035088,2,0.25,1.0,ReadingArea_rsl2-rcl69-esl100-rsm2-rcm2-esm29-rsr2-rcr25-esr100,exr/ReadingArea_rsl2-rcl69-esl100-rsm2-rcm2-esm29-rsr2-rcr25-esr100.exr,ReadingArea_rsl2-rcl69-esl100-rsm2-rcm2-esm29-rsr2-rcr25-esr100.npz,,,,,0,114,114,552,,right,red,2.08,804.0483708381653,804.5028088092804,2,,3,8,lightness,readingArea,realistic,75,2023-03-27_11h11.13.926,tripletExp_regina_11082022,2022.2.4,119.6014713849839,
12,10,5,2,0.027777777777778,3.10526315789474,2,0.694444444444444,1.0,2,1.0,0.298245614035088,ReadingArea_rsl2-rcl2-esl310-rsm2-rcm69-esm100-rsr2-rcr100-esr29,exr/ReadingArea_rsl2-rcl2-esl310-rsm2-rcm69-esm100-rsr2-rcr100-esr29.exr,ReadingArea_rsl2-rcl2-esl310-rsm2-rcm69-esm100-rsr2-rcr100-esr29.npz,,,,,0,115,115,470,,right,red,2.32,807.9922227859497,,2,,3,8,lightness,readingArea,realistic,75,2023-03-27_11h11.13.926,tripletExp_regina_11082022,2022.2.4,119.6014713849839,
7,8,12,2,0.111111111111111,1.0,2,0.25,1.0,2,0.027777777777778,3.10526315789474,ReadingArea_rsl2-rcl11-esl100-rsm2-rcm25-esm100-rsr2-rcr2-esr310,exr/ReadingArea_rsl2-rcl11-esl100-rsm2-rcm25-esm100-rsr2-rcr2-esr310.exr,ReadingArea_rsl2-rcl11-esl100-rsm2-rcm25-esm100-rsr2-rcr2-esr310.npz,,,,,0,116,116,271,,left,green,2.22,811.9551618099213,812.4025158882141,2,,3,8,lightness,readingArea,realistic,75,2023-03-27_11h11.13.926,tripletExp_regina_11082022,2022.2.4,119.6014713849839,
6,0,4,2,0.027777777777778,1.0,2,0.027777777777778,0.298245614035088,2,0.694444444444444,0.298245614035088,ReadingArea_rsl2-rcl2-esl100-rsm2-rcm2-esm29-rsr2-rcr69-esr29,exr/ReadingArea_rsl2-rcl2-esl100-rsm2-rcm2-esm29-rsr2-rcr69-esr29.exr,ReadingArea_rsl2-rcl2-esl100-rsm2-rcm2-esm29-rsr2-rcr69-esr29.npz,,,,,0,117,117,555,,left,green,2.32,815.9002108573914,816.4155268669128,2,,3,8,lightness,readingArea,realistic,75,2023-03-27_11h11.13.926,tripletExp_regina_11082022,2022.2.4,119.6014713849839,
9,3,14,2,0.444444444444444,1.0,2,0.444444444444444,0.298245614035088,2,0.25,3.10526315789474,ReadingArea_rsl2-rcl44-esl100-rsm2-rcm44-esm29-rsr2-rcr25-esr310,exr/ReadingArea_rsl2-rcl44-esl100-rsm2-rcm44-esm29-rsr2-rcr25-esr310.exr,ReadingArea_rsl2-rcl44-esl100-rsm2-rcm44-esm29-rsr2-rcr25-esr310.npz,,,,,0,118,118,17,,left,green,2.17,819.8894259929657,820.3603758811951,2,,3,8,lightness,readingArea,realistic,75,2023-03-27_11h11.13.926,tripletExp_regina_11082022,2022.2.4,119.6014713849839,
9,0,14,2,0.444444444444444,1.0,2,0.027777777777778,0.298245614035088,2,0.25,3.10526315789474,ReadingArea_rsl2-rcl44-esl100-rsm2-rcm2-esm29-rsr2-rcr25-esr310,exr/ReadingArea_rsl2-rcl44-esl100-rsm2-rcm2-esm29-rsr2-rcr25-esr310.exr,ReadingArea_rsl2-rcl44-esl100-rsm2-rcm2-esm29-rsr2-rcr25-esr310.npz,,,,,0,119,119,550,,left,green,2.14,823.8400278091431,824.3609008789062,2,,3,8,lightness,readingArea,realistic,75,2023-03-27_11h11.13.926,tripletExp_regina_11082022,2022.2.4,119.6014713849839,
9,6,11,2,0.444444444444444,1.0,2,0.027777777777778,1.0,2,1.0,1.0,ReadingArea_rsl2-rcl44-esl100-rsm2-rcm2-esm100-rsr2-rcr100-esr100,exr/ReadingArea_rsl2-rcl44-esl100-rsm2-rcm2-esm100-rsr2-rcr100-esr100.exr,ReadingArea_rsl2-rcl44-esl100-rsm2-rcm2-esm100-rsr2-rcr100-esr100.npz,,,,,0,120,120,572,,left,green,2.75,827.8185629844666,828.3829908370972,2,,3,8,lightness,readingArea,realistic,75,2023-03-27_11h11.13.926,tripletExp_regina_11082022,2022.2.4,119.6014713849839,
13,8,14,2,0.111111111111111,3.10526315789474,2,0.25,1.0,2,0.25,3.10526315789474,ReadingArea_rsl2-rcl11-esl310-rsm2-rcm25-esm100-rsr2-rcr25-esr310,exr/ReadingArea_rsl2-rcl11-esl310-rsm2-rcm25-esm100-rsr2-rcr25-esr310.exr,ReadingArea_rsl2-rcl11-esl310-rsm2-rcm25-esm100-rsr2-rcr25-esr310.npz,,,,,0,121,121,345,,left,green,3.53,831.8315329551697,832.3038249015808,2,,3,8,lightness,readingArea,realistic,75,2023-03-27_11h11.13.926,tripletExp_regina_11082022,2022.2.4,119.6014713849839,
3,2,8,2,0.444444444444444,0.298245614035088,2,0.25,0.298245614035088,2,0.25,1.0,ReadingArea_rsl2-rcl44-esl29-rsm2-rcm25-esm29-rsr2-rcr25-esr100,exr/ReadingArea_rsl2-rcl44-esl29-rsm2-rcm25-esm29-rsr2-rcr25-esr100.exr,ReadingArea_rsl2-rcl44-esl29-rsm2-rcm25-esm29-rsr2-rcr25-esr100.npz,,,,,0,122,122,181,,left,green,4.09,837.5616958141327,838.0633687973022,2,,3,8,lightness,readingArea,realistic,75,2023-03-27_11h11.13.926,tripletExp_regina_11082022,2022.2.4,119.6014713849839,
7,13,12,2,0.111111111111111,1.0,2,0.111111111111111,3.10526315789474,2,0.027777777777778,3.10526315789474,ReadingArea_rsl2-rcl11-esl100-rsm2-rcm11-esm310-rsr2-rcr2-esr310,exr/ReadingArea_rsl2-rcl11-esl100-rsm2-rcm11-esm310-rsr2-rcr2-esr310.exr,ReadingArea_rsl2-rcl11-esl100-rsm2-rcm11-esm310-rsr2-rcr2-esr310.npz,,,,,0,123,123,438,,left,green,4.72,843.2858879566193,843.7564377784729,2,,3,8,lightness,readingArea,realistic,75,2023-03-27_11h11.13.926,tripletExp_regina_11082022,2022.2.4,119.6014713849839,
2,10,6,2,0.25,0.298245614035088,2,0.694444444444444,1.0,2,0.027777777777778,1.0,ReadingArea_rsl2-rcl25-esl29-rsm2-rcm69-esm100-rsr2-rcr2-esr100,exr/ReadingArea_rsl2-rcl25-esl29-rsm2-rcm69-esm100-rsr2-rcr2-esr100.exr,ReadingArea_rsl2-rcl25-esl29-rsm2-rcm69-esm100-rsr2-rcr2-esr100.npz,,,,,0,124,124,4,,left,green,4.7,848.9913167953491,849.5646958351135,2,,3,8,lightness,readingArea,realistic,75,2023-03-27_11h11.13.926,tripletExp_regina_11082022,2022.2.4,119.6014713849839,
10,3,0,2,0.694444444444444,1.0,2,0.444444444444444,0.298245614035088,2,0.027777777777778,0.298245614035088,ReadingArea_rsl2-rcl69-esl100-rsm2-rcm44-esm29-rsr2-rcr2-esr29,exr/ReadingArea_rsl2-rcl69-esl100-rsm2-rcm44-esm29-rsr2-rcr2-esr29.exr,ReadingArea_rsl2-rcl69-esl100-rsm2-rcm44-esm29-rsr2-rcr2-esr29.npz,,,,,0,125,125,203,,left,green,4.53,854.7842438220978,855.4330749511719,2,,3,8,lightness,readingArea,realistic,75,2023-03-27_11h11.13.926,tripletExp_regina_11082022,2022.2.4,119.6014713849839,
14,3,4,2,0.25,3.10526315789474,2,0.444444444444444,0.298245614035088,2,0.694444444444444,0.298245614035088,ReadingArea_rsl2-rcl25-esl310-rsm2-rcm44-esm29-rsr2-rcr69-esr29,exr/ReadingArea_rsl2-rcl25-esl310-rsm2-rcm44-esm29-rsr2-rcr69-esr29.exr,ReadingArea_rsl2-rcl25-esl310-rsm2-rcm44-esm29-rsr2-rcr69-esr29.npz,,,,,0,126,126,127,,,green,4.53,860.643560886383,861.2288389205933,2,860.1261823654174,3,8,lightness,readingArea,realistic,75,2023-03-27_11h11.13.926,tripletExp_regina_11082022,2022.2.4,119.6014713849839,
14,2,1,2,0.25,3.10526315789474,2,0.25,0.298245614035088,2,0.111111111111111,0.298245614035088,ReadingArea_rsl2-rcl25-esl310-rsm2-rcm25-esm29-rsr2-rcr11-esr29,exr/ReadingArea_rsl2-rcl25-esl310-rsm2-rcm25-esm29-rsr2-rcr11-esr29.exr,ReadingArea_rsl2-rcl25-esl310-rsm2-rcm25-esm29-rsr2-rcr11-esr29.npz,,,,,0,127,127,321,,left,green,4.59,866.4672079086304,866.9919738769531,2,,3,8,lightness,readingArea,realistic,75,2023-03-27_11h11.13.926,tripletExp_regina_11082022,2022.2.4,119.6014713849839,
1,3,12,2,0.111111111111111,0.298245614035088,2,0.444444444444444,0.298245614035088,2,0.027777777777778,3.10526315789474,ReadingArea_rsl2-rcl11-esl29-rsm2-rcm44-esm29-rsr2-rcr2-esr310,exr/ReadingArea_rsl2-rcl11-esl29-rsm2-rcm44-esm29-rsr2-rcr2-esr310.exr,ReadingArea_rsl2-rcl11-esl29-rsm2-rcm44-esm29-rsr2-rcr2-esr310.npz,,,,,0,128,128,323,,left,green,3.82,872.2131559848785,872.7971298694611,2,,3,8,lightness,readingArea,realistic,75,2023-03-27_11h11.13.926,tripletExp_regina_11082022,2022.2.4,119.6014713849839,
11,14,9,2,1.0,1.0,2,0.25,3.10526315789474,2,0.444444444444444,1.0,ReadingArea_rsl2-rcl100-esl100-rsm2-rcm25-esm310-rsr2-rcr44-esr100,exr/ReadingArea_rsl2-rcl100-esl100-rsm2-rcm25-esm310-rsr2-rcr44-esr100.exr,ReadingArea_rsl2-rcl100-esl100-rsm2-rcm25-esm310-rsr2-rcr44-esr100.npz,,,,,0,129,129,43,,right,red,2.5,876.2374827861786,876.7136588096619,2,,3,8,lightness,readingArea,realistic,75,2023-03-27_11h11.13.926,tripletExp_regina_11082022,2022.2.4,119.6014713849839,
2,14,1,2,0.25,0.298245614035088,2,0.25,3.10526315789474,2,0.111111111111111,0.298245614035088,ReadingArea_rsl2-rcl25-esl29-rsm2-rcm25-esm310-rsr2-rcr11-esr29,exr/ReadingArea_rsl2-rcl25-esl29-rsm2-rcm25-esm310-rsr2-rcr11-esr29.exr,ReadingArea_rsl2-rcl25-esl29-rsm2-rcm25-esm310-rsr2-rcr11-esr29.npz,,,,,0,130,130,579,,left,green,2.75,880.1834437847137,880.6511099338531,2,,3,8,lightness,readingArea,realistic,75,2023-03-27_11h11.13.926,tripletExp_regina_11082022,2022.2.4,119.6014713849839,
1,14,8,2,0.111111111111111,0.298245614035088,2,0.25,3.10526315789474,2,0.25,1.0,ReadingArea_rsl2-rcl11-esl29-rsm2-rcm25-esm310-rsr2-rcr25-esr100,exr/ReadingArea_rsl2-rcl11-esl29-rsm2-rcm25-esm310-rsr2-rcr25-esr100.exr,ReadingArea_rsl2-rcl11-esl29-rsm2-rcm25-esm310-rsr2-rcr25-esr100.npz,,,,,0,131,131,108,,right,red,2.33,884.1079127788544,884.5583198070526,2,,3,8,lightness,readingArea,realistic,75,2023-03-27_11h11.13.926,tripletExp_regina_11082022,2022.2.4,119.6014713849839,
6,12,0,2,0.027777777777778,1.0,2,0.027777777777778,3.10526315789474,2,0.027777777777778,0.298245614035088,ReadingArea_rsl2-rcl2-esl100-rsm2-rcm2-esm310-rsr2-rcr2-esr29,exr/ReadingArea_rsl2-rcl2-esl100-rsm2-rcm2-esm310-rsr2-rcr2-esr29.exr,ReadingArea_rsl2-rcl2-esl100-rsm2-rcm2-esm310-rsr2-rcr2-esr29.npz,,,,,0,132,132,23,,left,green,3.96,889.7782869338989,890.2527189254761,2,,3,8,lightness,readingArea,realistic,75,2023-03-27_11h11.13.926,tripletExp_regina_11082022,2022.2.4,119.6014713849839,
1,14,6,2,0.111111111111111,0.298245614035088,2,0.25,3.10526315789474,2,0.027777777777778,1.0,ReadingArea_rsl2-rcl11-esl29-rsm2-rcm25-esm310-rsr2-rcr2-esr100,exr/ReadingArea_rsl2-rcl11-esl29-rsm2-rcm25-esm310-rsr2-rcr2-esr100.exr,ReadingArea_rsl2-rcl11-esl29-rsm2-rcm25-esm310-rsr2-rcr2-esr100.npz,,,,,0,133,133,475,,left,green,2.64,893.7042689323425,894.2986679077148,2,,3,8,lightness,readingArea,realistic,75,2023-03-27_11h11.13.926,tripletExp_regina_11082022,2022.2.4,119.6014713849839,
1,10,7,2,0.111111111111111,0.298245614035088,2,0.694444444444444,1.0,2,0.111111111111111,1.0,ReadingArea_rsl2-rcl11-esl29-rsm2-rcm69-esm100-rsr2-rcr11-esr100,exr/ReadingArea_rsl2-rcl11-esl29-rsm2-rcm69-esm100-rsr2-rcr11-esr100.exr,ReadingArea_rsl2-rcl11-esl29-rsm2-rcm69-esm100-rsr2-rcr11-esr100.npz,,,,,0,134,134,94,,right,red,2.83,897.7507147789001,898.226215839386,2,,3,8,lightness,readingArea,realistic,75,2023-03-27_11h11.13.926,tripletExp_regina_11082022,2022.2.4,119.6014713849839,
14,5,11,2,0.25,3.10526315789474,2,1.0,0.298245614035088,2,1.0,1.0,ReadingArea_rsl2-rcl25-esl310-rsm2-rcm100-esm29-rsr2-rcr100-esr100,exr/ReadingArea_rsl2-rcl25-esl310-rsm2-rcm100-esm29-rsr2-rcr100-esr100.exr,ReadingArea_rsl2-rcl25-esl310-rsm2-rcm100-esm29-rsr2-rcr100-esr100.npz,,,,,0,135,135,161,,left,green,3.87,903.4666328430176,903.9680528640747,2,,3,8,lightness,readingArea,realistic,75,2023-03-27_11h11.13.926,tripletExp_regina_11082022,2022.2.4,119.6014713849839,
3,1,6,2,0.444444444444444,0.298245614035088,2,0.111111111111111,0.298245614035088,2,0.027777777777778,1.0,ReadingArea_rsl2-rcl44-esl29-rsm2-rcm11-esm29-rsr2-rcr2-esr100,exr/ReadingArea_rsl2-rcl44-esl29-rsm2-rcm11-esm29-rsr2-rcr2-esr100.exr,ReadingArea_rsl2-rcl44-esl29-rsm2-rcm11-esm29-rsr2-rcr2-esr100.npz,,,,,0,136,136,464,,right,red,4.03,909.2203359603882,909.7028698921204,2,,3,8,lightness,readingArea,realistic,75,2023-03-27_11h11.13.926,tripletExp_regina_11082022,2022.2.4,119.6014713849839,
4,13,1,2,0.694444444444444,0.298245614035088,2,0.111111111111111,3.10526315789474,2,0.111111111111111,0.298245614035088,ReadingArea_rsl2-rcl69-esl29-rsm2-rcm11-esm310-rsr2-rcr11-esr29,exr/ReadingArea_rsl2-rcl69-esl29-rsm2-rcm11-esm310-rsr2-rcr11-esr29.exr,ReadingArea_rsl2-rcl69-esl29-rsm2-rcm11-esm310-rsr2-rcr11-esr29.npz,,,,,0,137,137,192,,left,green,2.86,913.1761269569397,913.6719388961792,2,,3,8,lightness,readingArea,realistic,75,2023-03-27_11h11.13.926,tripletExp_regina_11082022,2022.2.4,119.6014713849839,
4,10,9,2,0.694444444444444,0.298245614035088,2,0.694444444444444,1.0,2,0.444444444444444,1.0,ReadingArea_rsl2-rcl69-esl29-rsm2-rcm69-esm100-rsr2-rcr44-esr100,exr/ReadingArea_rsl2-rcl69-esl29-rsm2-rcm69-esm100-rsr2-rcr44-esr100.exr,ReadingArea_rsl2-rcl69-esl29-rsm2-rcm69-esm100-rsr2-rcr44-esr100.npz,,,,,0,138,138,516,,right,red,2.43,917.1339979171753,,2,,3,8,lightness,readingArea,realistic,75,2023-03-27_11h11.13.926,tripletExp_regina_11082022,2022.2.4,119.6014713849839,
5,10,2,2,1.0,0.298245614035088,2,0.694444444444444,1.0,2,0.25,0.298245614035088,ReadingArea_rsl2-rcl100-esl29-rsm2-rcm69-esm100-rsr2-rcr25-esr29,exr/ReadingArea_rsl2-rcl100-esl29-rsm2-rcm69-esm100-rsr2-rcr25-esr29.exr,ReadingArea_rsl2-rcl100-esl29-rsm2-rcm69-esm100-rsr2-rcr25-esr29.npz,,,,,0,139,139,489,,left,green,2.99,921.0934407711029,921.5548939704895,2,,3,8,lightness,readingArea,realistic,75,2023-03-27_11h11.13.926,tripletExp_regina_11082022,2022.2.4,119.6014713849839,
14,2,0,2,0.25,3.10526315789474,2,0.25,0.298245614035088,2,0.027777777777778,0.298245614035088,ReadingArea_rsl2-rcl25-esl310-rsm2-rcm25-esm29-rsr2-rcr2-esr29,exr/ReadingArea_rsl2-rcl25-esl310-rsm2-rcm25-esm29-rsr2-rcr2-esr29.exr,ReadingArea_rsl2-rcl25-esl310-rsm2-rcm25-esm29-rsr2-rcr2-esr29.npz,,,,,0,140,140,460,,left,green,2.04,925.0014779567719,925.4991488456726,2,,3,8,lightness,readingArea,realistic,75,2023-03-27_11h11.13.926,tripletExp_regina_11082022,2022.2.4,119.6014713849839,
7,6,11,2,0.111111111111111,1.0,2,0.027777777777778,1.0,2,1.0,1.0,ReadingArea_rsl2-rcl11-esl100-rsm2-rcm2-esm100-rsr2-rcr100-esr100,exr/ReadingArea_rsl2-rcl11-esl100-rsm2-rcm2-esm100-rsr2-rcr100-esr100.exr,ReadingArea_rsl2-rcl11-esl100-rsm2-rcm2-esm100-rsr2-rcr100-esr100.npz,,,,,0,141,141,84,,left,green,3.57,928.9494488239288,929.4190258979797,2,,3,8,lightness,readingArea,realistic,75,2023-03-27_11h11.13.926,tripletExp_regina_11082022,2022.2.4,119.6014713849839,
9,4,11,2,0.444444444444444,1.0,2,0.694444444444444,0.298245614035088,2,1.0,1.0,ReadingArea_rsl2-rcl44-esl100-rsm2-rcm69-esm29-rsr2-rcr100-esr100,exr/ReadingArea_rsl2-rcl44-esl100-rsm2-rcm69-esm29-rsr2-rcr100-esr100.exr,ReadingArea_rsl2-rcl44-esl100-rsm2-rcm69-esm29-rsr2-rcr100-esr100.npz,,,,,0,142,142,133,,left,green,2.4,932.8985359668732,933.4096789360046,2,,3,8,lightness,readingArea,realistic,75,2023-03-27_11h11.13.926,tripletExp_regina_11082022,2022.2.4,119.6014713849839,
14,0,5,2,0.25,3.10526315789474,2,0.027777777777778,0.298245614035088,2,1.0,0.298245614035088,ReadingArea_rsl2-rcl25-esl310-rsm2-rcm2-esm29-rsr2-rcr100-esr29,exr/ReadingArea_rsl2-rcl25-esl310-rsm2-rcm2-esm29-rsr2-rcr100-esr29.exr,ReadingArea_rsl2-rcl25-esl310-rsm2-rcm2-esm29-rsr2-rcr100-esr29.npz,,,,,0,143,143,418,,right,red,2.18,936.8943839073181,937.3633019924164,2,,3,8,lightness,readingArea,realistic,75,2023-03-27_11h11.13.926,tripletExp_regina_11082022,2022.2.4,119.6014713849839,
12,7,2,2,0.027777777777778,3.10526315789474,2,0.111111111111111,1.0,2,0.25,0.298245614035088,ReadingArea_rsl2-rcl2-esl310-rsm2-rcm11-esm100-rsr2-rcr25-esr29,exr/ReadingArea_rsl2-rcl2-esl310-rsm2-rcm11-esm100-rsr2-rcr25-esr29.exr,ReadingArea_rsl2-rcl2-esl310-rsm2-rcm11-esm100-rsr2-rcr25-esr29.npz,,,,,0,144,144,248,,right,red,2.14,940.851203918457,941.3380007743835,2,,3,8,lightness,readingArea,realistic,75,2023-03-27_11h11.13.926,tripletExp_regina_11082022,2022.2.4,119.6014713849839,
10,11,12,2,0.694444444444444,1.0,2,1.0,1.0,2,0.027777777777778,3.10526315789474,ReadingArea_rsl2-rcl69-esl100-rsm2-rcm100-esm100-rsr2-rcr2-esr310,exr/ReadingArea_rsl2-rcl69-esl100-rsm2-rcm100-esm100-rsr2-rcr2-esr310.exr,ReadingArea_rsl2-rcl69-esl100-rsm2-rcm100-esm100-rsr2-rcr2-esr310.npz,,,,,0,145,145,533,,left,green,2.26,944.8111407756805,945.2819828987122,2,,3,8,lightness,readingArea,realistic,75,2023-03-27_11h11.13.926,tripletExp_regina_11082022,2022.2.4,119.6014713849839,
11,5,1,2,1.0,1.0,2,1.0,0.298245614035088,2,0.111111111111111,0.298245614035088,ReadingArea_rsl2-rcl100-esl100-rsm2-rcm100-esm29-rsr2-rcr11-esr29,exr/ReadingArea_rsl2-rcl100-esl100-rsm2-rcm100-esm29-rsr2-rcr11-esr29.exr,ReadingArea_rsl2-rcl100-esl100-rsm2-rcm100-esm29-rsr2-rcr11-esr29.npz,,,,,0,146,146,48,,left,green,4.72,950.525200843811,950.9972848892212,2,,3,8,lightness,readingArea,realistic,75,2023-03-27_11h11.13.926,tripletExp_regina_11082022,2022.2.4,119.6014713849839,
11,4,0,2,1.0,1.0,2,0.694444444444444,0.298245614035088,2,0.027777777777778,0.298245614035088,ReadingArea_rsl2-rcl100-esl100-rsm2-rcm69-esm29-rsr2-rcr2-esr29,exr/ReadingArea_rsl2-rcl100-esl100-rsm2-rcm69-esm29-rsr2-rcr2-esr29.exr,ReadingArea_rsl2-rcl100-esl100-rsm2-rcm69-esm29-rsr2-rcr2-esr29.npz,,,,,0,147,147,219,,left,green,2.27,954.4963607788086,954.9721088409424,2,,3,8,lightness,readingArea,realistic,75,2023-03-27_11h11.13.926,tripletExp_regina_11082022,2022.2.4,119.6014713849839,
12,6,9,2,0.027777777777778,3.10526315789474,2,0.027777777777778,1.0,2,0.444444444444444,1.0,ReadingArea_rsl2-rcl2-esl310-rsm2-rcm2-esm100-rsr2-rcr44-esr100,exr/ReadingArea_rsl2-rcl2-esl310-rsm2-rcm2-esm100-rsr2-rcr44-esr100.exr,ReadingArea_rsl2-rcl2-esl310-rsm2-rcm2-esm100-rsr2-rcr44-esr100.npz,,,,,0,148,148,177,,left,green,2.14,958.4193499088287,959.0099189281464,2,,3,8,lightness,readingArea,realistic,75,2023-03-27_11h11.13.926,tripletExp_regina_11082022,2022.2.4,119.6014713849839,
3,6,5,2,0.444444444444444,0.298245614035088,2,0.027777777777778,1.0,2,1.0,0.298245614035088,ReadingArea_rsl2-rcl44-esl29-rsm2-rcm2-esm100-rsr2-rcr100-esr29,exr/ReadingArea_rsl2-rcl44-esl29-rsm2-rcm2-esm100-rsr2-rcr100-esr29.exr,ReadingArea_rsl2-rcl44-esl29-rsm2-rcm2-esm100-rsr2-rcr100-esr29.npz,,,,,0,149,149,274,,left,green,2.24,962.4670197963715,962.6731119155884,2,,3,8,lightness,readingArea,realistic,75,2023-03-27_11h11.13.926,tripletExp_regina_11082022,2022.2.4,119.6014713849839,
12,6,7,2,0.027777777777778,3.10526315789474,2,0.027777777777778,1.0,2,0.111111111111111,1.0,ReadingArea_rsl2-rcl2-esl310-rsm2-rcm2-esm100-rsr2-rcr11-esr100,exr/ReadingArea_rsl2-rcl2-esl310-rsm2-rcm2-esm100-rsr2-rcr11-esr100.exr,ReadingArea_rsl2-rcl2-esl310-rsm2-rcm2-esm100-rsr2-rcr11-esr100.npz,,,,,0,150,150,308,,left,green,2.16,1027.0394909381866,1027.4925158023834,3,,3,8,lightness,readingArea,realistic,75,2023-03-27_11h11.13.926,tripletExp_regina_11082022,2022.2.4,119.6014713849839,
10,7,13,2,0.694444444444444,1.0,2,0.111111111111111,1.0,2,0.111111111111111,3.10526315789474,ReadingArea_rsl2-rcl69-esl100-rsm2-rcm11-esm100-rsr2-rcr11-esr310,exr/ReadingArea_rsl2-rcl69-esl100-rsm2-rcm11-esm100-rsr2-rcr11-esr310.exr,ReadingArea_rsl2-rcl69-esl100-rsm2-rcm11-esm100-rsr2-rcr11-esr310.npz,,,,,0,151,151,379,,right,red,2.21,1030.97944688797,1031.460343837738,3,,3,8,lightness,readingArea,realistic,75,2023-03-27_11h11.13.926,tripletExp_regina_11082022,2022.2.4,119.6014713849839,
4,8,3,2,0.694444444444444,0.298245614035088,2,0.25,1.0,2,0.444444444444444,0.298245614035088,ReadingArea_rsl2-rcl69-esl29-rsm2-rcm25-esm100-rsr2-rcr44-esr29,exr/ReadingArea_rsl2-rcl69-esl29-rsm2-rcm25-esm100-rsr2-rcr44-esr29.exr,ReadingArea_rsl2-rcl69-esl29-rsm2-rcm25-esm100-rsr2-rcr44-esr29.npz,,,,,0,152,152,292,,left,green,3.11,1034.9277908802032,1035.4077169895172,3,,3,8,lightness,readingArea,realistic,75,2023-03-27_11h11.13.926,tripletExp_regina_11082022,2022.2.4,119.6014713849839,
9,13,5,2,0.444444444444444,1.0,2,0.111111111111111,3.10526315789474,2,1.0,0.298245614035088,ReadingArea_rsl2-rcl44-esl100-rsm2-rcm11-esm310-rsr2-rcr100-esr29,exr/ReadingArea_rsl2-rcl44-esl100-rsm2-rcm11-esm310-rsr2-rcr100-esr29.exr,ReadingArea_rsl2-rcl44-esl100-rsm2-rcm11-esm310-rsr2-rcr100-esr29.npz,,,,,0,153,153,349,,right,red,3.89,1040.6706759929657,1041.294883966446,3,,3,8,lightness,readingArea,realistic,75,2023-03-27_11h11.13.926,tripletExp_regina_11082022,2022.2.4,119.6014713849839,
12,3,10,2,0.027777777777778,3.10526315789474,2,0.444444444444444,0.298245614035088,2,0.694444444444444,1.0,ReadingArea_rsl2-rcl2-esl310-rsm2-rcm44-esm29-rsr2-rcr69-esr100,exr/ReadingArea_rsl2-rcl2-esl310-rsm2-rcm44-esm29-rsr2-rcr69-esr100.exr,ReadingArea_rsl2-rcl2-esl310-rsm2-rcm44-esm29-rsr2-rcr69-esr100.npz,,,,,0,154,154,437,,right,red,3.98,1046.5439867973328,1047.0055029392242,3,,3,8,lightness,readingArea,realistic,75,2023-03-27_11h11.13.926,tripletExp_regina_11082022,2022.2.4,119.6014713849839,
6,13,8,2,0.027777777777778,1.0,2,0.111111111111111,3.10526315789474,2,0.25,1.0,ReadingArea_rsl2-rcl2-esl100-rsm2-rcm11-esm310-rsr2-rcr25-esr100,exr/ReadingArea_rsl2-rcl2-esl100-rsm2-rcm11-esm310-rsr2-rcr25-esr100.exr,ReadingArea_rsl2-rcl2-esl100-rsm2-rcm11-esm310-rsr2-rcr25-esr100.npz,,,,,0,155,155,535,,right,red,2.11,1050.4659328460693,1050.9764139652252,3,,3,8,lightness,readingArea,realistic,75,2023-03-27_11h11.13.926,tripletExp_regina_11082022,2022.2.4,119.6014713849839,
8,10,6,2,0.25,1.0,2,0.694444444444444,1.0,2,0.027777777777778,1.0,ReadingArea_rsl2-rcl25-esl100-rsm2-rcm69-esm100-rsr2-rcr2-esr100,exr/ReadingArea_rsl2-rcl25-esl100-rsm2-rcm69-esm100-rsr2-rcr2-esr100.exr,ReadingArea_rsl2-rcl25-esl100-rsm2-rcm69-esm100-rsr2-rcr2-esr100.npz,,,,,0,156,156,129,,left,green,2.09,1054.4274117946625,1054.9098999500275,3,,3,8,lightness,readingArea,realistic,75,2023-03-27_11h11.13.926,tripletExp_regina_11082022,2022.2.4,119.6014713849839,
4,13,2,2,0.694444444444444,0.298245614035088,2,0.111111111111111,3.10526315789474,2,0.25,0.298245614035088,ReadingArea_rsl2-rcl69-esl29-rsm2-rcm11-esm310-rsr2-rcr25-esr29,exr/ReadingArea_rsl2-rcl69-esl29-rsm2-rcm11-esm310-rsr2-rcr25-esr29.exr,ReadingArea_rsl2-rcl69-esl29-rsm2-rcm11-esm310-rsr2-rcr25-esr29.npz,,,,,0,157,157,592,,left,green,2.44,1058.375599861145,1058.8232758045197,3,,3,8,lightness,readingArea,realistic,75,2023-03-27_11h11.13.926,tripletExp_regina_11082022,2022.2.4,119.6014713849839,
2,1,6,2,0.25,0.298245614035088,2,0.111111111111111,0.298245614035088,2,0.027777777777778,1.0,ReadingArea_rsl2-rcl25-esl29-rsm2-rcm11-esm29-rsr2-rcr2-esr100,exr/ReadingArea_rsl2-rcl25-esl29-rsm2-rcm11-esm29-rsr2-rcr2-esr100.exr,ReadingArea_rsl2-rcl25-esl29-rsm2-rcm11-esm29-rsr2-rcr2-esr100.npz,,,,,0,158,158,171,,left,green,2.54,1062.2808928489685,1062.762943983078,3,,3,8,lightness,readingArea,realistic,75,2023-03-27_11h11.13.926,tripletExp_regina_11082022,2022.2.4,119.6014713849839,
11,5,8,2,1.0,1.0,2,1.0,0.298245614035088,2,0.25,1.0,ReadingArea_rsl2-rcl100-esl100-rsm2-rcm100-esm29-rsr2-rcr25-esr100,exr/ReadingArea_rsl2-rcl100-esl100-rsm2-rcm100-esm29-rsr2-rcr25-esr100.exr,ReadingArea_rsl2-rcl100-esl100-rsm2-rcm100-esm29-rsr2-rcr25-esr100.npz,,,,,0,159,159,86,,right,red,2.18,1066.2573628425598,,3,,3,8,lightness,readingArea,realistic,75,2023-03-27_11h11.13.926,tripletExp_regina_11082022,2022.2.4,119.6014713849839,
13,14,7,2,0.111111111111111,3.10526315789474,2,0.25,3.10526315789474,2,0.111111111111111,1.0,ReadingArea_rsl2-rcl11-esl310-rsm2-rcm25-esm310-rsr2-rcr11-esr100,exr/ReadingArea_rsl2-rcl11-esl310-rsm2-rcm25-esm310-rsr2-rcr11-esr100.exr,ReadingArea_rsl2-rcl11-esl310-rsm2-rcm25-esm310-rsr2-rcr11-esr100.npz,,,,,0,160,160,324,,left,green,4.47,1071.9840359687805,1072.5166838169098,3,,3,8,lightness,readingArea,realistic,75,2023-03-27_11h11.13.926,tripletExp_regina_11082022,2022.2.4,119.6014713849839,
0,5,2,2,0.027777777777778,0.298245614035088,2,1.0,0.298245614035088,2,0.25,0.298245614035088,ReadingArea_rsl2-rcl2-esl29-rsm2-rcm100-esm29-rsr2-rcr25-esr29,exr/ReadingArea_rsl2-rcl2-esl29-rsm2-rcm100-esm29-rsr2-rcr25-esr29.exr,ReadingArea_rsl2-rcl2-esl29-rsm2-rcm100-esm29-rsr2-rcr25-esr29.npz,,,,,0,161,161,25,,right,red,2.13,1075.9758608341217,,3,,3,8,lightness,readingArea,realistic,75,2023-03-27_11h11.13.926,tripletExp_regina_11082022,2022.2.4,119.6014713849839,
9,6,8,2,0.444444444444444,1.0,2,0.027777777777778,1.0,2,0.25,1.0,ReadingArea_rsl2-rcl44-esl100-rsm2-rcm2-esm100-rsr2-rcr25-esr100,exr/ReadingArea_rsl2-rcl44-esl100-rsm2-rcm2-esm100-rsr2-rcr25-esr100.exr,ReadingArea_rsl2-rcl44-esl100-rsm2-rcm2-esm100-rsr2-rcr25-esr100.npz,,,,,0,162,162,312,,right,red,4.61,1081.6775498390198,1082.155230998993,3,,3,8,lightness,readingArea,realistic,75,2023-03-27_11h11.13.926,tripletExp_regina_11082022,2022.2.4,119.6014713849839,
7,4,2,2,0.111111111111111,1.0,2,0.694444444444444,0.298245614035088,2,0.25,0.298245614035088,ReadingArea_rsl2-rcl11-esl100-rsm2-rcm69-esm29-rsr2-rcr25-esr29,exr/ReadingArea_rsl2-rcl11-esl100-rsm2-rcm69-esm29-rsr2-rcr25-esr29.exr,ReadingArea_rsl2-rcl11-esl100-rsm2-rcm69-esm29-rsr2-rcr25-esr29.npz,,,,,0,163,163,146,,right,red,4.47,1087.3813598155975,1087.9300608634949,3,,3,8,lightness,readingArea,realistic,75,2023-03-27_11h11.13.926,tripletExp_regina_11082022,2022.2.4,119.6014713849839,
13,0,8,2,0.111111111111111,3.10526315789474,2,0.027777777777778,0.298245614035088,2,0.25,1.0,ReadingArea_rsl2-rcl11-esl310-rsm2-rcm2-esm29-rsr2-rcr25-esr100,exr/ReadingArea_rsl2-rcl11-esl310-rsm2-rcm2-esm29-rsr2-rcr25-esr100.exr,ReadingArea_rsl2-rcl11-esl310-rsm2-rcm2-esm29-rsr2-rcr25-esr100.npz,,,,,0,164,164,249,,right,red,4.25,1093.1475369930267,1093.694463968277,3,,3,8,lightness,readingArea,realistic,75,2023-03-27_11h11.13.926,tripletExp_regina_11082022,2022.2.4,119.6014713849839,
7,4,1,2,0.111111111111111,1.0,2,0.694444444444444,0.298245614035088,2,0.111111111111111,0.298245614035088,ReadingArea_rsl2-rcl11-esl100-rsm2-rcm69-esm29-rsr2-rcr11-esr29,exr/ReadingArea_rsl2-rcl11-esl100-rsm2-rcm69-esm29-rsr2-rcr11-esr29.exr,ReadingArea_rsl2-rcl11-esl100-rsm2-rcm69-esm29-rsr2-rcr11-esr29.npz,,,,,0,165,165,369,,left,green,2.82,1097.1602549552917,1097.6452097892761,3,,3,8,lightness,readingArea,realistic,75,2023-03-27_11h11.13.926,tripletExp_regina_11082022,2022.2.4,119.6014713849839,
3,0,4,2,0.444444444444444,0.298245614035088,2,0.027777777777778,0.298245614035088,2,0.694444444444444,0.298245614035088,ReadingArea_rsl2-rcl44-esl29-rsm2-rcm2-esm29-rsr2-rcr69-esr29,exr/ReadingArea_rsl2-rcl44-esl29-rsm2-rcm2-esm29-rsr2-rcr69-esr29.exr,ReadingArea_rsl2-rcl44-esl29-rsm2-rcm2-esm29-rsr2-rcr69-esr29.npz,,,,,0,166,166,111,,left,green,2.07,1101.0964028835297,,3,,3,8,lightness,readingArea,realistic,75,2023-03-27_11h11.13.926,tripletExp_regina_11082022,2022.2.4,119.6014713849839,
5,14,8,2,1.0,0.298245614035088,2,0.25,3.10526315789474,2,0.25,1.0,ReadingArea_rsl2-rcl100-esl29-rsm2-rcm25-esm310-rsr2-rcr25-esr100,exr/ReadingArea_rsl2-rcl100-esl29-rsm2-rcm25-esm310-rsr2-rcr25-esr100.exr,ReadingArea_rsl2-rcl100-esl29-rsm2-rcm25-esm310-rsr2-rcr25-esr100.npz,,,,,0,167,167,14,,left,green,4.19,1106.8318819999695,1107.3090229034424,3,,3,8,lightness,readingArea,realistic,75,2023-03-27_11h11.13.926,tripletExp_regina_11082022,2022.2.4,119.6014713849839,
2,12,6,2,0.25,0.298245614035088,2,0.027777777777778,3.10526315789474,2,0.027777777777778,1.0,ReadingArea_rsl2-rcl25-esl29-rsm2-rcm2-esm310-rsr2-rcr2-esr100,exr/ReadingArea_rsl2-rcl25-esl29-rsm2-rcm2-esm310-rsr2-rcr2-esr100.exr,ReadingArea_rsl2-rcl25-esl29-rsm2-rcm2-esm310-rsr2-rcr2-esr100.npz,,,,,0,168,168,400,,right,red,2.63,1110.7727918624878,,3,,3,8,lightness,readingArea,realistic,75,2023-03-27_11h11.13.926,tripletExp_regina_11082022,2022.2.4,119.6014713849839,
3,6,10,2,0.444444444444444,0.298245614035088,2,0.027777777777778,1.0,2,0.694444444444444,1.0,ReadingArea_rsl2-rcl44-esl29-rsm2-rcm2-esm100-rsr2-rcr69-esr100,exr/ReadingArea_rsl2-rcl44-esl29-rsm2-rcm2-esm100-rsr2-rcr69-esr100.exr,ReadingArea_rsl2-rcl44-esl29-rsm2-rcm2-esm100-rsr2-rcr69-esr100.npz,,,,,0,169,169,138,,left,green,2.5,1114.749752998352,1115.2321939468384,3,,3,8,lightness,readingArea,realistic,75,2023-03-27_11h11.13.926,tripletExp_regina_11082022,2022.2.4,119.6014713849839,
3,0,2,2,0.444444444444444,0.298245614035088,2,0.027777777777778,0.298245614035088,2,0.25,0.298245614035088,ReadingArea_rsl2-rcl44-esl29-rsm2-rcm2-esm29-rsr2-rcr25-esr29,exr/ReadingArea_rsl2-rcl44-esl29-rsm2-rcm2-esm29-rsr2-rcr25-esr29.exr,ReadingArea_rsl2-rcl44-esl29-rsm2-rcm2-esm29-rsr2-rcr25-esr29.npz,,,,,0,170,170,334,,right,red,2.06,1118.723582983017,,3,,3,8,lightness,readingArea,realistic,75,2023-03-27_11h11.13.926,tripletExp_regina_11082022,2022.2.4,119.6014713849839,
5,14,4,2,1.0,0.298245614035088,2,0.25,3.10526315789474,2,0.694444444444444,0.298245614035088,ReadingArea_rsl2-rcl100-esl29-rsm2-rcm25-esm310-rsr2-rcr69-esr29,exr/ReadingArea_rsl2-rcl100-esl29-rsm2-rcm25-esm310-rsr2-rcr69-esr29.exr,ReadingArea_rsl2-rcl100-esl29-rsm2-rcm25-esm310-rsr2-rcr69-esr29.npz,,,,,0,171,171,69,,right,red,4.31,1124.4602417945862,1124.9642369747162,3,,3,8,lightness,readingArea,realistic,75,2023-03-27_11h11.13.926,tripletExp_regina_11082022,2022.2.4,119.6014713849839,
2,14,9,2,0.25,0.298245614035088,2,0.25,3.10526315789474,2,0.444444444444444,1.0,ReadingArea_rsl2-rcl25-esl29-rsm2-rcm25-esm310-rsr2-rcr44-esr100,exr/ReadingArea_rsl2-rcl25-esl29-rsm2-rcm25-esm310-rsr2-rcr44-esr100.exr,ReadingArea_rsl2-rcl25-esl29-rsm2-rcm25-esm310-rsr2-rcr44-esr100.npz,,,,,0,172,172,51,,right,red,2.87,1128.4430708885193,1128.8955109119415,3,,3,8,lightness,readingArea,realistic,75,2023-03-27_11h11.13.926,tripletExp_regina_11082022,2022.2.4,119.6014713849839,
9,6,14,2,0.444444444444444,1.0,2,0.027777777777778,1.0,2,0.25,3.10526315789474,ReadingArea_rsl2-rcl44-esl100-rsm2-rcm2-esm100-rsr2-rcr25-esr310,exr/ReadingArea_rsl2-rcl44-esl100-rsm2-rcm2-esm100-rsr2-rcr25-esr310.exr,ReadingArea_rsl2-rcl44-esl100-rsm2-rcm2-esm100-rsr2-rcr25-esr310.npz,,,,,0,173,173,213,,left,green,4.16,1134.1014668941498,,3,,3,8,lightness,readingArea,realistic,75,2023-03-27_11h11.13.926,tripletExp_regina_11082022,2022.2.4,119.6014713849839,
11,0,10,2,1.0,1.0,2,0.027777777777778,0.298245614035088,2,0.694444444444444,1.0,ReadingArea_rsl2-rcl100-esl100-rsm2-rcm2-esm29-rsr2-rcr69-esr100,exr/ReadingArea_rsl2-rcl100-esl100-rsm2-rcm2-esm29-rsr2-rcr69-esr100.exr,ReadingArea_rsl2-rcl100-esl100-rsm2-rcm2-esm29-rsr2-rcr69-esr100.npz,,,,,0,174,174,259,,right,red,2.49,1138.059045791626,1138.521390914917,3,,3,8,lightness,readingArea,realistic,75,2023-03-27_11h11.13.926,tripletExp_regina_11082022,2022.2.4,119.6014713849839,
4,7,1,2,0.694444444444444,0.298245614035088,2,0.111111111111111,1.0,2,0.111111111111111,0.298245614035088,ReadingArea_rsl2-rcl69-esl29-rsm2-rcm11-esm100-rsr2-rcr11-esr29,exr/ReadingArea_rsl2-rcl69-esl29-rsm2-rcm11-esm100-rsr2-rcr11-esr29.exr,ReadingArea_rsl2-rcl69-esl29-rsm2-rcm11-esm100-rsr2-rcr11-esr29.npz,,,,,0,175,175,33,,right,red,4.07,1143.769268989563,,3,,3,8,lightness,readingArea,realistic,75,2023-03-27_11h11.13.926,tripletExp_regina_11082022,2022.2.4,119.6014713849839,
3,1,0,2,0.444444444444444,0.298245614035088,2,0.111111111111111,0.298245614035088,2,0.027777777777778,0.298245614035088,ReadingArea_rsl2-rcl44-esl29-rsm2-rcm11-esm29-rsr2-rcr2-esr29,exr/ReadingArea_rsl2-rcl44-esl29-rsm2-rcm11-esm29-rsr2-rcr2-esr29.exr,ReadingArea_rsl2-rcl44-esl29-rsm2-rcm11-esm29-rsr2-rcr2-esr29.npz,,,,,0,176,176,343,,right,red,2.97,1147.7273488044739,1148.2029299736023,3,,3,8,lightness,readingArea,realistic,75,2023-03-27_11h11.13.926,tripletExp_regina_11082022,2022.2.4,119.6014713849839,
5,13,12,2,1.0,0.298245614035088,2,0.111111111111111,3.10526315789474,2,0.027777777777778,3.10526315789474,ReadingArea_rsl2-rcl100-esl29-rsm2-rcm11-esm310-rsr2-rcr2-esr310,exr/ReadingArea_rsl2-rcl100-esl29-rsm2-rcm11-esm310-rsr2-rcr2-esr310.exr,ReadingArea_rsl2-rcl100-esl29-rsm2-rcm11-esm310-rsr2-rcr2-esr310.npz,,,,,0,177,177,389,,left,green,3.47,1151.6620118618011,1152.1327319145203,3,,3,8,lightness,readingArea,realistic,75,2023-03-27_11h11.13.926,tripletExp_regina_11082022,2022.2.4,119.6014713849839,
7,2,0,2,0.111111111111111,1.0,2,0.25,0.298245614035088,2,0.027777777777778,0.298245614035088,ReadingArea_rsl2-rcl11-esl100-rsm2-rcm25-esm29-rsr2-rcr2-esr29,exr/ReadingArea_rsl2-rcl11-esl100-rsm2-rcm25-esm29-rsr2-rcr2-esr29.exr,ReadingArea_rsl2-rcl11-esl100-rsm2-rcm25-esm29-rsr2-rcr2-esr29.npz,,,,,0,178,178,520,,left,green,2.85,1155.598480939865,1156.0813419818878,3,,3,8,lightness,readingArea,realistic,75,2023-03-27_11h11.13.926,tripletExp_regina_11082022,2022.2.4,119.6014713849839,
3,8,7,2,0.444444444444444,0.298245614035088,2,0.25,1.0,2,0.111111111111111,1.0,ReadingArea_rsl2-rcl44-esl29-rsm2-rcm25-esm100-rsr2-rcr11-esr100,exr/ReadingArea_rsl2-rcl44-esl29-rsm2-rcm25-esm100-rsr2-rcr11-esr100.exr,ReadingArea_rsl2-rcl44-esl29-rsm2-rcm25-esm100-rsr2-rcr11-esr100.npz,,,,,0,179,179,484,,left,green,3.91,1161.3480639457703,1161.91455078125,3,,3,8,lightness,readingArea,realistic,75,2023-03-27_11h11.13.926,tripletExp_regina_11082022,2022.2.4,119.6014713849839,
5,3,0,2,1.0,0.298245614035088,2,0.444444444444444,0.298245614035088,2,0.027777777777778,0.298245614035088,ReadingArea_rsl2-rcl100-esl29-rsm2-rcm44-esm29-rsr2-rcr2-esr29,exr/ReadingArea_rsl2-rcl100-esl29-rsm2-rcm44-esm29-rsr2-rcr2-esr29.exr,ReadingArea_rsl2-rcl100-esl29-rsm2-rcm44-esm29-rsr2-rcr2-esr29.npz,,,,,0,180,180,303,,left,green,4.68,1167.1436388492584,1167.6206867694855,3,,3,8,lightness,readingArea,realistic,75,2023-03-27_11h11.13.926,tripletExp_regina_11082022,2022.2.4,119.6014713849839,
7,9,5,2,0.111111111111111,1.0,2,0.444444444444444,1.0,2,1.0,0.298245614035088,ReadingArea_rsl2-rcl11-esl100-rsm2-rcm44-esm100-rsr2-rcr100-esr29,exr/ReadingArea_rsl2-rcl11-esl100-rsm2-rcm44-esm100-rsr2-rcr100-esr29.exr,ReadingArea_rsl2-rcl11-esl100-rsm2-rcm44-esm100-rsr2-rcr100-esr29.npz,,,,,0,181,181,291,,right,red,2.17,1171.0967299938202,1171.5561208724976,3,,3,8,lightness,readingArea,realistic,75,2023-03-27_11h11.13.926,tripletExp_regina_11082022,2022.2.4,119.6014713849839,
6,11,8,2,0.027777777777778,1.0,2,1.0,1.0,2,0.25,1.0,ReadingArea_rsl2-rcl2-esl100-rsm2-rcm100-esm100-rsr2-rcr25-esr100,exr/ReadingArea_rsl2-rcl2-esl100-rsm2-rcm100-esm100-rsr2-rcr25-esr100.exr,ReadingArea_rsl2-rcl2-esl100-rsm2-rcm100-esm100-rsr2-rcr25-esr100.npz,,,,,0,182,182,176,,right,red,2.1,1175.0491259098053,,3,,3,8,lightness,readingArea,realistic,75,2023-03-27_11h11.13.926,tripletExp_regina_11082022,2022.2.4,119.6014713849839,
11,9,4,2,1.0,1.0,2,0.444444444444444,1.0,2,0.694444444444444,0.298245614035088,ReadingArea_rsl2-rcl100-esl100-rsm2-rcm44-esm100-rsr2-rcr69-esr29,exr/ReadingArea_rsl2-rcl100-esl100-rsm2-rcm44-esm100-rsr2-rcr69-esr29.exr,ReadingArea_rsl2-rcl100-esl100-rsm2-rcm44-esm100-rsr2-rcr69-esr29.npz,,,,,0,183,183,26,,right,red,2.26,1179.0624668598175,1179.5363929271698,3,,3,8,lightness,readingArea,realistic,75,2023-03-27_11h11.13.926,tripletExp_regina_11082022,2022.2.4,119.6014713849839,
11,7,12,2,1.0,1.0,2,0.111111111111111,1.0,2,0.027777777777778,3.10526315789474,ReadingArea_rsl2-rcl100-esl100-rsm2-rcm11-esm100-rsr2-rcr2-esr310,exr/ReadingArea_rsl2-rcl100-esl100-rsm2-rcm11-esm100-rsr2-rcr2-esr310.exr,ReadingArea_rsl2-rcl100-esl100-rsm2-rcm11-esm100-rsr2-rcr2-esr310.npz,,,,,0,184,184,352,,right,red,2.21,1182.990907907486,1183.484983921051,3,,3,8,lightness,readingArea,realistic,75,2023-03-27_11h11.13.926,tripletExp_regina_11082022,2022.2.4,119.6014713849839,
2,9,8,2,0.25,0.298245614035088,2,0.444444444444444,1.0,2,0.25,1.0,ReadingArea_rsl2-rcl25-esl29-rsm2-rcm44-esm100-rsr2-rcr25-esr100,exr/ReadingArea_rsl2-rcl25-esl29-rsm2-rcm44-esm100-rsr2-rcr25-esr100.exr,ReadingArea_rsl2-rcl25-esl29-rsm2-rcm44-esm100-rsr2-rcr25-esr100.npz,,,,,0,185,185,407,,right,red,2.23,1186.9462428092957,1187.4255018234253,3,,3,8,lightness,readingArea,realistic,75,2023-03-27_11h11.13.926,tripletExp_regina_11082022,2022.2.4,119.6014713849839,
5,8,2,2,1.0,0.298245614035088,2,0.25,1.0,2,0.25,0.298245614035088,ReadingArea_rsl2-rcl100-esl29-rsm2-rcm25-esm100-rsr2-rcr25-esr29,exr/ReadingArea_rsl2-rcl100-esl29-rsm2-rcm25-esm100-rsr2-rcr25-esr29.exr,ReadingArea_rsl2-rcl100-esl29-rsm2-rcm25-esm100-rsr2-rcr25-esr29.npz,,,,,0,186,186,65,,right,red,2.32,1190.8736689090729,1191.3564977645874,3,,3,8,lightness,readingArea,realistic,75,2023-03-27_11h11.13.926,tripletExp_regina_11082022,2022.2.4,119.6014713849839,
12,9,14,2,0.027777777777778,3.10526315789474,2,0.444444444444444,1.0,2,0.25,3.10526315789474,ReadingArea_rsl2-rcl2-esl310-rsm2-rcm44-esm100-rsr2-rcr25-esr310,exr/ReadingArea_rsl2-rcl2-esl310-rsm2-rcm44-esm100-rsr2-rcr25-esr310.exr,ReadingArea_rsl2-rcl2-esl310-rsm2-rcm44-esm100-rsr2-rcr25-esr310.npz,,,,,0,187,187,123,,right,red,2.58,1194.819876909256,1195.3240649700165,3,,3,8,lightness,readingArea,realistic,75,2023-03-27_11h11.13.926,tripletExp_regina_11082022,2022.2.4,119.6014713849839,
0,14,6,2,0.027777777777778,0.298245614035088,2,0.25,3.10526315789474,2,0.027777777777778,1.0,ReadingArea_rsl2-rcl2-esl29-rsm2-rcm25-esm310-rsr2-rcr2-esr100,exr/ReadingArea_rsl2-rcl2-esl29-rsm2-rcm25-esm310-rsr2-rcr2-esr100.exr,ReadingArea_rsl2-rcl2-esl29-rsm2-rcm25-esm310-rsr2-rcr2-esr100.npz,,,,,0,188,188,499,,left,green,4.52,1200.5490908622742,1201.0617599487305,3,,3,8,lightness,readingArea,realistic,75,2023-03-27_11h11.13.926,tripletExp_regina_11082022,2022.2.4,119.6014713849839,
7,3,0,2,0.111111111111111,1.0,2,0.444444444444444,0.298245614035088,2,0.027777777777778,0.298245614035088,ReadingArea_rsl2-rcl11-esl100-rsm2-rcm44-esm29-rsr2-rcr2-esr29,exr/ReadingArea_rsl2-rcl11-esl100-rsm2-rcm44-esm29-rsr2-rcr2-esr29.exr,ReadingArea_rsl2-rcl11-esl100-rsm2-rcm44-esm29-rsr2-rcr2-esr29.npz,,,,,0,189,189,318,,left,green,2.29,1204.5446119308472,1205.0257368087769,3,,3,8,lightness,readingArea,realistic,75,2023-03-27_11h11.13.926,tripletExp_regina_11082022,2022.2.4,119.6014713849839,
12,8,9,2,0.027777777777778,3.10526315789474,2,0.25,1.0,2,0.444444444444444,1.0,ReadingArea_rsl2-rcl2-esl310-rsm2-rcm25-esm100-rsr2-rcr44-esr100,exr/ReadingArea_rsl2-rcl2-esl310-rsm2-rcm25-esm100-rsr2-rcr44-esr100.exr,ReadingArea_rsl2-rcl2-esl310-rsm2-rcm25-esm100-rsr2-rcr44-esr100.npz,,,,,0,190,190,517,,right,red,2.09,1208.5131528377533,,3,,3,8,lightness,readingArea,realistic,75,2023-03-27_11h11.13.926,tripletExp_regina_11082022,2022.2.4,119.6014713849839,
6,2,5,2,0.027777777777778,1.0,2,0.25,0.298245614035088,2,1.0,0.298245614035088,ReadingArea_rsl2-rcl2-esl100-rsm2-rcm25-esm29-rsr2-rcr100-esr29,exr/ReadingArea_rsl2-rcl2-esl100-rsm2-rcm25-esm29-rsr2-rcr100-esr29.exr,ReadingArea_rsl2-rcl2-esl100-rsm2-rcm25-esm29-rsr2-rcr100-esr29.npz,,,,,0,191,191,504,,right,red,3.06,1212.4620139598846,1212.9374759197235,3,,3,8,lightness,readingArea,realistic,75,2023-03-27_11h11.13.926,tripletExp_regina_11082022,2022.2.4,119.6014713849839,
1,13,7,2,0.111111111111111,0.298245614035088,2,0.111111111111111,3.10526315789474,2,0.111111111111111,1.0,ReadingArea_rsl2-rcl11-esl29-rsm2-rcm11-esm310-rsr2-rcr11-esr100,exr/ReadingArea_rsl2-rcl11-esl29-rsm2-rcm11-esm310-rsr2-rcr11-esr100.exr,ReadingArea_rsl2-rcl11-esl29-rsm2-rcm11-esm310-rsr2-rcr11-esr100.npz,,,,,0,192,192,158,,right,red,4.53,1218.1649677753448,,3,,3,8,lightness,readingArea,realistic,75,2023-03-27_11h11.13.926,tripletExp_regina_11082022,2022.2.4,119.6014713849839,
12,10,6,2,0.027777777777778,3.10526315789474,2,0.694444444444444,1.0,2,0.027777777777778,1.0,ReadingArea_rsl2-rcl2-esl310-rsm2-rcm69-esm100-rsr2-rcr2-esr100,exr/ReadingArea_rsl2-rcl2-esl310-rsm2-rcm69-esm100-rsr2-rcr2-esr100.exr,ReadingArea_rsl2-rcl2-esl310-rsm2-rcm69-esm100-rsr2-rcr2-esr100.npz,,,,,0,193,193,273,,right,red,2.94,1222.1935539245605,1222.682862997055,3,,3,8,lightness,readingArea,realistic,75,2023-03-27_11h11.13.926,tripletExp_regina_11082022,2022.2.4,119.6014713849839,
9,0,3,2,0.444444444444444,1.0,2,0.027777777777778,0.298245614035088,2,0.444444444444444,0.298245614035088,ReadingArea_rsl2-rcl44-esl100-rsm2-rcm2-esm29-rsr2-rcr44-esr29,exr/ReadingArea_rsl2-rcl44-esl100-rsm2-rcm2-esm29-rsr2-rcr44-esr29.exr,ReadingArea_rsl2-rcl44-esl100-rsm2-rcm2-esm29-rsr2-rcr44-esr29.npz,,,,,0,194,194,2,,right,red,2.44,1226.1393399238586,1226.6449868679047,3,,3,8,lightness,readingArea,realistic,75,2023-03-27_11h11.13.926,tripletExp_regina_11082022,2022.2.4,119.6014713849839,
11,10,0,2,1.0,1.0,2,0.694444444444444,1.0,2,0.027777777777778,0.298245614035088,ReadingArea_rsl2-rcl100-esl100-rsm2-rcm69-esm100-rsr2-rcr2-esr29,exr/ReadingArea_rsl2-rcl100-esl100-rsm2-rcm69-esm100-rsr2-rcr2-esr29.exr,ReadingArea_rsl2-rcl100-esl100-rsm2-rcm69-esm100-rsr2-rcr2-esr29.npz,,,,,0,195,195,549,,left,green,4.34,1231.8786537647247,1232.3662738800049,3,,3,8,lightness,readingArea,realistic,75,2023-03-27_11h11.13.926,tripletExp_regina_11082022,2022.2.4,119.6014713849839,
10,8,1,2,0.694444444444444,1.0,2,0.25,1.0,2,0.111111111111111,0.298245614035088,ReadingArea_rsl2-rcl69-esl100-rsm2-rcm25-esm100-rsr2-rcr11-esr29,exr/ReadingArea_rsl2-rcl69-esl100-rsm2-rcm25-esm100-rsr2-rcr11-esr29.exr,ReadingArea_rsl2-rcl69-esl100-rsm2-rcm25-esm100-rsr2-rcr11-esr29.npz,,,,,0,196,196,247,,right,red,3.16,1235.8199899196625,1236.295688867569,3,,3,8,lightness,readingArea,realistic,75,2023-03-27_11h11.13.926,tripletExp_regina_11082022,2022.2.4,119.6014713849839,
5,9,0,2,1.0,0.298245614035088,2,0.444444444444444,1.0,2,0.027777777777778,0.298245614035088,ReadingArea_rsl2-rcl100-esl29-rsm2-rcm44-esm100-rsr2-rcr2-esr29,exr/ReadingArea_rsl2-rcl100-esl29-rsm2-rcm44-esm100-rsr2-rcr2-esr29.exr,ReadingArea_rsl2-rcl100-esl29-rsm2-rcm44-esm100-rsr2-rcr2-esr29.npz,,,,,0,197,197,575,,left,green,1.97,1239.7511658668518,,3,,3,8,lightness,readingArea,realistic,75,2023-03-27_11h11.13.926,tripletExp_regina_11082022,2022.2.4,119.6014713849839,
2,1,13,2,0.25,0.298245614035088,2,0.111111111111111,0.298245614035088,2,0.111111111111111,3.10526315789474,ReadingArea_rsl2-rcl25-esl29-rsm2-rcm11-esm29-rsr2-rcr11-esr310,exr/ReadingArea_rsl2-rcl25-esl29-rsm2-rcm11-esm29-rsr2-rcr11-esr310.exr,ReadingArea_rsl2-rcl25-esl29-rsm2-rcm11-esm29-rsr2-rcr11-esr310.npz,,,,,0,198,198,290,,left,green,4.83,1245.5849387645721,1246.0505278110504,3,,3,8,lightness,readingArea,realistic,75,2023-03-27_11h11.13.926,tripletExp_regina_11082022,2022.2.4,119.6014713849839,
7,12,3,2,0.111111111111111,1.0,2,0.027777777777778,3.10526315789474,2,0.444444444444444,0.298245614035088,ReadingArea_rsl2-rcl11-esl100-rsm2-rcm2-esm310-rsr2-rcr44-esr29,exr/ReadingArea_rsl2-rcl11-esl100-rsm2-rcm2-esm310-rsr2-rcr44-esr29.exr,ReadingArea_rsl2-rcl11-esl100-rsm2-rcm2-esm310-rsr2-rcr44-esr29.npz,,,,,0,199,199,584,,left,green,3.55,1249.5309569835663,1250.0125069618225,3,,3,8,lightness,readingArea,realistic,75,2023-03-27_11h11.13.926,tripletExp_regina_11082022,2022.2.4,119.6014713849839,
0,11,9,2,0.027777777777778,0.298245614035088,2,1.0,1.0,2,0.444444444444444,1.0,ReadingArea_rsl2-rcl2-esl29-rsm2-rcm100-esm100-rsr2-rcr44-esr100,exr/ReadingArea_rsl2-rcl2-esl29-rsm2-rcm100-esm100-rsr2-rcr44-esr100.exr,ReadingArea_rsl2-rcl2-esl29-rsm2-rcm100-esm100-rsr2-rcr44-esr100.npz,,,,,0,200,200,32,,right,red,2.06,1253.5020768642426,1254.0139827728271,3,,3,8,lightness,readingArea,realistic,75,2023-03-27_11h11.13.926,tripletExp_regina_11082022,2022.2.4,119.6014713849839,
14,8,2,2,0.25,3.10526315789474,2,0.25,1.0,2,0.25,0.298245614035088,ReadingArea_rsl2-rcl25-esl310-rsm2-rcm25-esm100-rsr2-rcr25-esr29,exr/ReadingArea_rsl2-rcl25-esl310-rsm2-rcm25-esm100-rsr2-rcr25-esr29.exr,ReadingArea_rsl2-rcl25-esl310-rsm2-rcm25-esm100-rsr2-rcr25-esr29.npz,,,,,0,201,201,251,,right,red,2.61,1257.4693109989166,1257.9762909412384,3,,3,8,lightness,readingArea,realistic,75,2023-03-27_11h11.13.926,tripletExp_regina_11082022,2022.2.4,119.6014713849839,
11,7,14,2,1.0,1.0,2,0.111111111111111,1.0,2,0.25,3.10526315789474,ReadingArea_rsl2-rcl100-esl100-rsm2-rcm11-esm100-rsr2-rcr25-esr310,exr/ReadingArea_rsl2-rcl100-esl100-rsm2-rcm11-esm100-rsr2-rcr25-esr310.exr,ReadingArea_rsl2-rcl100-esl100-rsm2-rcm11-esm100-rsr2-rcr25-esr310.npz,,,,,0,202,202,119,,right,red,4.66,1263.1980137825012,1263.6762478351593,3,,3,8,lightness,readingArea,realistic,75,2023-03-27_11h11.13.926,tripletExp_regina_11082022,2022.2.4,119.6014713849839,
7,14,11,2,0.111111111111111,1.0,2,0.25,3.10526315789474,2,1.0,1.0,ReadingArea_rsl2-rcl11-esl100-rsm2-rcm25-esm310-rsr2-rcr100-esr100,exr/ReadingArea_rsl2-rcl11-esl100-rsm2-rcm25-esm310-rsr2-rcr100-esr100.exr,ReadingArea_rsl2-rcl11-esl100-rsm2-rcm25-esm310-rsr2-rcr100-esr100.npz,,,,,0,203,203,252,,left,green,4.47,1268.915445804596,1269.3967549800873,3,,3,8,lightness,readingArea,realistic,75,2023-03-27_11h11.13.926,tripletExp_regina_11082022,2022.2.4,119.6014713849839,
0,5,12,2,0.027777777777778,0.298245614035088,2,1.0,0.298245614035088,2,0.027777777777778,3.10526315789474,ReadingArea_rsl2-rcl2-esl29-rsm2-rcm100-esm29-rsr2-rcr2-esr310,exr/ReadingArea_rsl2-rcl2-esl29-rsm2-rcm100-esm29-rsr2-rcr2-esr310.exr,ReadingArea_rsl2-rcl2-esl29-rsm2-rcm100-esm29-rsr2-rcr2-esr310.npz,,,,,0,204,204,366,,left,green,4.54,1274.6323628425598,1275.1158938407898,3,,3,8,lightness,readingArea,realistic,75,2023-03-27_11h11.13.926,tripletExp_regina_11082022,2022.2.4,119.6014713849839,
