index_left,index_middle,index_right,reflectance_surround_left,reflectance_center_left,emission_spot_left,reflectance_surround_middle,reflectance_center_middle,emission_spot_middle,reflectance_surround_right,reflectance_center_right,emission_spot_right,ImageName,ImageExr,ImageNpy,trials_2.thisRepN,trials_2.thisTrialN,trials_2.thisN,trials_2.thisIndex,trials.thisRepN,trials.thisTrialN,trials.thisN,trials.thisIndex,sound_1.started,BB_Trial.resp,BB_Trial.color,BB_Trial.rt,text.started,text.stopped,sound_2.started,block,sound_4.started,participant,session,L/B,scene,condition,nTrialsPerBlock,date,expName,psychopyVersion,frameRate,Unnamed: 42
13,1,3,0,0.111111111111111,3.10526315789474,0,0.111111111111111,0.298245614035088,0,0.444444444444444,0.298245614035088,ReadingArea_rsl0-rcl11-esl310-rsm0-rcm11-esm29-rsr0-rcr44-esr29,exr/ReadingArea_rsl0-rcl11-esl310-rsm0-rcm11-esm29-rsr0-rcr44-esr29.exr,ReadingArea_rsl0-rcl11-esl310-rsm0-rcm11-esm29-rsr0-rcr44-esr29.npz,,,,,0,0,0,588,318.0343868017197,right,red,0.98,329.405455827713,329.8557229042053,245.3730665922165,1,,4,1,lightness,readingArea,realistic,75,2023-03-20_12h21.05.780,tripletExp_regina_11082022,2022.2.4,119.92017337702067,
1,14,7,0,0.111111111111111,0.298245614035088,0,0.25,3.10526315789474,0,0.111111111111111,1.0,ReadingArea_rsl0-rcl11-esl29-rsm0-rcm25-esm310-rsr0-rcr11-esr100,exr/ReadingArea_rsl0-rcl11-esl29-rsm0-rcm25-esm310-rsr0-rcr11-esr100.exr,ReadingArea_rsl0-rcl11-esl29-rsm0-rcm25-esm310-rsr0-rcr11-esr100.npz,,,,,0,1,1,583,,right,red,3.84,335.1282248497009,,,1,,4,1,lightness,readingArea,realistic,75,2023-03-20_12h21.05.780,tripletExp_regina_11082022,2022.2.4,119.92017337702067,
2,9,12,0,0.25,0.298245614035088,0,0.444444444444444,1.0,0,0.027777777777778,3.10526315789474,ReadingArea_rsl0-rcl25-esl29-rsm0-rcm44-esm100-rsr0-rcr2-esr310,exr/ReadingArea_rsl0-rcl25-esl29-rsm0-rcm44-esm100-rsr0-rcr2-esr310.exr,ReadingArea_rsl0-rcl25-esl29-rsm0-rcm44-esm100-rsr0-rcr2-esr310.npz,,,,,0,2,2,354,,left,green,4.5,342.92676186561584,343.27017092704773,,1,,4,1,lightness,readingArea,realistic,75,2023-03-20_12h21.05.780,tripletExp_regina_11082022,2022.2.4,119.92017337702067,
11,2,8,0,1.0,1.0,0,0.25,0.298245614035088,0,0.25,1.0,ReadingArea_rsl0-rcl100-esl100-rsm0-rcm25-esm29-rsr0-rcr25-esr100,exr/ReadingArea_rsl0-rcl100-esl100-rsm0-rcm25-esm29-rsr0-rcr25-esr100.exr,ReadingArea_rsl0-rcl100-esl100-rsm0-rcm25-esm29-rsr0-rcr25-esr100.npz,,,,,0,3,3,214,,right,red,3.9,348.5226848125458,348.88189792633057,,1,,4,1,lightness,readingArea,realistic,75,2023-03-20_12h21.05.780,tripletExp_regina_11082022,2022.2.4,119.92017337702067,
5,12,7,0,1.0,0.298245614035088,0,0.027777777777778,3.10526315789474,0,0.111111111111111,1.0,ReadingArea_rsl0-rcl100-esl29-rsm0-rcm2-esm310-rsr0-rcr11-esr100,exr/ReadingArea_rsl0-rcl100-esl29-rsm0-rcm2-esm310-rsr0-rcr11-esr100.exr,ReadingArea_rsl0-rcl100-esl29-rsm0-rcm2-esm310-rsr0-rcr11-esr100.npz,,,,,0,4,4,447,,right,red,3.9,354.11733293533325,354.64439392089844,,1,,4,1,lightness,readingArea,realistic,75,2023-03-20_12h21.05.780,tripletExp_regina_11082022,2022.2.4,119.92017337702067,
1,13,2,0,0.111111111111111,0.298245614035088,0,0.111111111111111,3.10526315789474,0,0.25,0.298245614035088,ReadingArea_rsl0-rcl11-esl29-rsm0-rcm11-esm310-rsr0-rcr25-esr29,exr/ReadingArea_rsl0-rcl11-esl29-rsm0-rcm11-esm310-rsr0-rcr25-esr29.exr,ReadingArea_rsl0-rcl11-esl29-rsm0-rcm11-esm310-rsr0-rcr25-esr29.npz,,,,,0,5,5,118,,,red,3.9,359.8555510044098,,,1,359.5553497552872,4,1,lightness,readingArea,realistic,75,2023-03-20_12h21.05.780,tripletExp_regina_11082022,2022.2.4,119.92017337702067,
7,3,5,0,0.111111111111111,1.0,0,0.444444444444444,0.298245614035088,0,1.0,0.298245614035088,ReadingArea_rsl0-rcl11-esl100-rsm0-rcm44-esm29-rsr0-rcr100-esr29,exr/ReadingArea_rsl0-rcl11-esl100-rsm0-rcm44-esm29-rsr0-rcr100-esr29.exr,ReadingArea_rsl0-rcl11-esl100-rsm0-rcm44-esm29-rsr0-rcr100-esr29.npz,,,,,0,6,6,589,,left,green,2.47,363.748486995697,364.1057658195496,,1,,4,1,lightness,readingArea,realistic,75,2023-03-20_12h21.05.780,tripletExp_regina_11082022,2022.2.4,119.92017337702067,
7,1,9,0,0.111111111111111,1.0,0,0.111111111111111,0.298245614035088,0,0.444444444444444,1.0,ReadingArea_rsl0-rcl11-esl100-rsm0-rcm11-esm29-rsr0-rcr44-esr100,exr/ReadingArea_rsl0-rcl11-esl100-rsm0-rcm11-esm29-rsr0-rcr44-esr100.exr,ReadingArea_rsl0-rcl11-esl100-rsm0-rcm11-esm29-rsr0-rcr44-esr100.npz,,,,,0,7,7,89,,left,green,2.55,367.55348777771,367.9121899604797,,1,,4,1,lightness,readingArea,realistic,75,2023-03-20_12h21.05.780,tripletExp_regina_11082022,2022.2.4,119.92017337702067,
12,13,14,0,0.027777777777778,3.10526315789474,0,0.111111111111111,3.10526315789474,0,0.25,3.10526315789474,ReadingArea_rsl0-rcl2-esl310-rsm0-rcm11-esm310-rsr0-rcr25-esr310,exr/ReadingArea_rsl0-rcl2-esl310-rsm0-rcm11-esm310-rsr0-rcr25-esr310.exr,ReadingArea_rsl0-rcl2-esl310-rsm0-rcm11-esm310-rsr0-rcr25-esr310.npz,,,,,0,8,8,208,,left,green,4.49,373.16026282310486,373.5137729644776,,1,,4,1,lightness,readingArea,realistic,75,2023-03-20_12h21.05.780,tripletExp_regina_11082022,2022.2.4,119.92017337702067,
13,0,4,0,0.111111111111111,3.10526315789474,0,0.027777777777778,0.298245614035088,0,0.694444444444444,0.298245614035088,ReadingArea_rsl0-rcl11-esl310-rsm0-rcm2-esm29-rsr0-rcr69-esr29,exr/ReadingArea_rsl0-rcl11-esl310-rsm0-rcm2-esm29-rsr0-rcr69-esr29.exr,ReadingArea_rsl0-rcl11-esl310-rsm0-rcm2-esm29-rsr0-rcr69-esr29.npz,,,,,0,9,9,270,,right,red,3.89,378.8053448200226,379.2351109981537,,1,,4,1,lightness,readingArea,realistic,75,2023-03-20_12h21.05.780,tripletExp_regina_11082022,2022.2.4,119.92017337702067,
2,1,3,0,0.25,0.298245614035088,0,0.111111111111111,0.298245614035088,0,0.444444444444444,0.298245614035088,ReadingArea_rsl0-rcl25-esl29-rsm0-rcm11-esm29-rsr0-rcr44-esr29,exr/ReadingArea_rsl0-rcl25-esl29-rsm0-rcm11-esm29-rsr0-rcr44-esr29.exr,ReadingArea_rsl0-rcl25-esl29-rsm0-rcm11-esm29-rsr0-rcr44-esr29.npz,,,,,0,10,10,85,,,red,3.89,384.4623308181762,384.8373608589173,,1,384.12563960552217,4,1,lightness,readingArea,realistic,75,2023-03-20_12h21.05.780,tripletExp_regina_11082022,2022.2.4,119.92017337702067,
11,4,2,0,1.0,1.0,0,0.694444444444444,0.298245614035088,0,0.25,0.298245614035088,ReadingArea_rsl0-rcl100-esl100-rsm0-rcm69-esm29-rsr0-rcr25-esr29,exr/ReadingArea_rsl0-rcl100-esl100-rsm0-rcm69-esm29-rsr0-rcr25-esr29.exr,ReadingArea_rsl0-rcl100-esl100-rsm0-rcm69-esm29-rsr0-rcr25-esr29.npz,,,,,0,11,11,280,,right,red,4.1,390.06816577911377,390.4651968479157,,1,,4,1,lightness,readingArea,realistic,75,2023-03-20_12h21.05.780,tripletExp_regina_11082022,2022.2.4,119.92017337702067,
12,7,2,0,0.027777777777778,3.10526315789474,0,0.111111111111111,1.0,0,0.25,0.298245614035088,ReadingArea_rsl0-rcl2-esl310-rsm0-rcm11-esm100-rsr0-rcr25-esr29,exr/ReadingArea_rsl0-rcl2-esl310-rsm0-rcm11-esm100-rsr0-rcr25-esr29.exr,ReadingArea_rsl0-rcl2-esl310-rsm0-rcm11-esm100-rsr0-rcr25-esr29.npz,,,,,0,12,12,248,,right,red,4.27,395.7068338394165,396.1017627716065,,1,,4,1,lightness,readingArea,realistic,75,2023-03-20_12h21.05.780,tripletExp_regina_11082022,2022.2.4,119.92017337702067,
4,2,0,0,0.694444444444444,0.298245614035088,0,0.25,0.298245614035088,0,0.027777777777778,0.298245614035088,ReadingArea_rsl0-rcl69-esl29-rsm0-rcm25-esm29-rsr0-rcr2-esr29,exr/ReadingArea_rsl0-rcl69-esl29-rsm0-rcm25-esm29-rsr0-rcr2-esr29.exr,ReadingArea_rsl0-rcl69-esl29-rsm0-rcm25-esm29-rsr0-rcr2-esr29.npz,,,,,0,13,13,71,,left,green,4.33,401.3162689208984,401.7742269039154,,1,,4,1,lightness,readingArea,realistic,75,2023-03-20_12h21.05.780,tripletExp_regina_11082022,2022.2.4,119.92017337702067,
14,9,12,0,0.25,3.10526315789474,0,0.444444444444444,1.0,0,0.027777777777778,3.10526315789474,ReadingArea_rsl0-rcl25-esl310-rsm0-rcm44-esm100-rsr0-rcr2-esr310,exr/ReadingArea_rsl0-rcl25-esl310-rsm0-rcm44-esm100-rsr0-rcr2-esr310.exr,ReadingArea_rsl0-rcl25-esl310-rsm0-rcm44-esm100-rsr0-rcr2-esr310.npz,,,,,0,14,14,378,,left,green,3.87,407.0498628616333,407.4005818367005,,1,,4,1,lightness,readingArea,realistic,75,2023-03-20_12h21.05.780,tripletExp_regina_11082022,2022.2.4,119.92017337702067,
13,1,7,0,0.111111111111111,3.10526315789474,0,0.111111111111111,0.298245614035088,0,0.111111111111111,1.0,ReadingArea_rsl0-rcl11-esl310-rsm0-rcm11-esm29-rsr0-rcr11-esr100,exr/ReadingArea_rsl0-rcl11-esl310-rsm0-rcm11-esm29-rsr0-rcr11-esr100.exr,ReadingArea_rsl0-rcl11-esl310-rsm0-rcm11-esm29-rsr0-rcr11-esr100.npz,,,,,0,15,15,206,,right,red,3.99,412.658353805542,413.0378530025482,,1,,4,1,lightness,readingArea,realistic,75,2023-03-20_12h21.05.780,tripletExp_regina_11082022,2022.2.4,119.92017337702067,
7,14,5,0,0.111111111111111,1.0,0,0.25,3.10526315789474,0,1.0,0.298245614035088,ReadingArea_rsl0-rcl11-esl100-rsm0-rcm25-esm310-rsr0-rcr100-esr29,exr/ReadingArea_rsl0-rcl11-esl100-rsm0-rcm25-esm310-rsr0-rcr100-esr29.exr,ReadingArea_rsl0-rcl11-esl100-rsm0-rcm25-esm310-rsr0-rcr100-esr29.npz,,,,,0,16,16,372,,right,red,4.25,418.2982778549194,418.75940585136414,,1,,4,1,lightness,readingArea,realistic,75,2023-03-20_12h21.05.780,tripletExp_regina_11082022,2022.2.4,119.92017337702067,
12,5,14,0,0.027777777777778,3.10526315789474,0,1.0,0.298245614035088,0,0.25,3.10526315789474,ReadingArea_rsl0-rcl2-esl310-rsm0-rcm100-esm29-rsr0-rcr25-esr310,exr/ReadingArea_rsl0-rcl2-esl310-rsm0-rcm100-esm29-rsr0-rcr25-esr310.exr,ReadingArea_rsl0-rcl2-esl310-rsm0-rcm100-esm29-rsr0-rcr25-esr310.npz,,,,,0,17,17,193,,left,green,4.25,423.9809639453888,424.4290177822113,,1,,4,1,lightness,readingArea,realistic,75,2023-03-20_12h21.05.780,tripletExp_regina_11082022,2022.2.4,119.92017337702067,
6,1,14,0,0.027777777777778,1.0,0,0.111111111111111,0.298245614035088,0,0.25,3.10526315789474,ReadingArea_rsl0-rcl2-esl100-rsm0-rcm11-esm29-rsr0-rcr25-esr310,exr/ReadingArea_rsl0-rcl2-esl100-rsm0-rcm11-esm29-rsr0-rcr25-esr310.exr,ReadingArea_rsl0-rcl2-esl100-rsm0-rcm11-esm29-rsr0-rcr25-esr310.npz,,,,,0,18,18,381,,left,green,2.46,427.9086589813232,428.2671408653259,,1,,4,1,lightness,readingArea,realistic,75,2023-03-20_12h21.05.780,tripletExp_regina_11082022,2022.2.4,119.92017337702067,
9,8,0,0,0.444444444444444,1.0,0,0.25,1.0,0,0.027777777777778,0.298245614035088,ReadingArea_rsl0-rcl44-esl100-rsm0-rcm25-esm100-rsr0-rcr2-esr29,exr/ReadingArea_rsl0-rcl44-esl100-rsm0-rcm25-esm100-rsr0-rcr2-esr29.exr,ReadingArea_rsl0-rcl44-esl100-rsm0-rcm25-esm100-rsr0-rcr2-esr29.npz,,,,,0,19,19,66,,left,green,2.99,431.74052381515503,432.0757038593292,,1,,4,1,lightness,readingArea,realistic,75,2023-03-20_12h21.05.780,tripletExp_regina_11082022,2022.2.4,119.92017337702067,
12,5,10,0,0.027777777777778,3.10526315789474,0,1.0,0.298245614035088,0,0.694444444444444,1.0,ReadingArea_rsl0-rcl2-esl310-rsm0-rcm100-esm29-rsr0-rcr69-esr100,exr/ReadingArea_rsl0-rcl2-esl310-rsm0-rcm100-esm29-rsr0-rcr69-esr100.exr,ReadingArea_rsl0-rcl2-esl310-rsm0-rcm100-esm29-rsr0-rcr69-esr100.npz,,,,,0,20,20,493,,right,red,4.81,437.3470678329468,437.6881418228149,,1,,4,1,lightness,readingArea,realistic,75,2023-03-20_12h21.05.780,tripletExp_regina_11082022,2022.2.4,119.92017337702067,
6,12,3,0,0.027777777777778,1.0,0,0.027777777777778,3.10526315789474,0,0.444444444444444,0.298245614035088,ReadingArea_rsl0-rcl2-esl100-rsm0-rcm2-esm310-rsr0-rcr44-esr29,exr/ReadingArea_rsl0-rcl2-esl100-rsm0-rcm2-esm310-rsr0-rcr44-esr29.exr,ReadingArea_rsl0-rcl2-esl100-rsm0-rcm2-esm310-rsr0-rcr44-esr29.npz,,,,,0,21,21,284,,right,red,4.14,442.9341208934784,443.2871458530426,,1,,4,1,lightness,readingArea,realistic,75,2023-03-20_12h21.05.780,tripletExp_regina_11082022,2022.2.4,119.92017337702067,
11,1,12,0,1.0,1.0,0,0.111111111111111,0.298245614035088,0,0.027777777777778,3.10526315789474,ReadingArea_rsl0-rcl100-esl100-rsm0-rcm11-esm29-rsr0-rcr2-esr310,exr/ReadingArea_rsl0-rcl100-esl100-rsm0-rcm11-esm29-rsr0-rcr2-esr310.exr,ReadingArea_rsl0-rcl100-esl100-rsm0-rcm11-esm29-rsr0-rcr2-esr310.npz,,,,,0,22,22,339,,right,red,4.31,448.5255448818207,448.8779399394989,,1,,4,1,lightness,readingArea,realistic,75,2023-03-20_12h21.05.780,tripletExp_regina_11082022,2022.2.4,119.92017337702067,
8,10,9,0,0.25,1.0,0,0.694444444444444,1.0,0,0.444444444444444,1.0,ReadingArea_rsl0-rcl25-esl100-rsm0-rcm69-esm100-rsr0-rcr44-esr100,exr/ReadingArea_rsl0-rcl25-esl100-rsm0-rcm69-esm100-rsr0-rcr44-esr100.exr,ReadingArea_rsl0-rcl25-esl100-rsm0-rcm69-esm100-rsr0-rcr44-esr100.npz,,,,,0,23,23,342,,right,red,4.26,454.131707906723,454.491082906723,,1,,4,1,lightness,readingArea,realistic,75,2023-03-20_12h21.05.780,tripletExp_regina_11082022,2022.2.4,119.92017337702067,
14,11,4,0,0.25,3.10526315789474,0,1.0,1.0,0,0.694444444444444,0.298245614035088,ReadingArea_rsl0-rcl25-esl310-rsm0-rcm100-esm100-rsr0-rcr69-esr29,exr/ReadingArea_rsl0-rcl25-esl310-rsm0-rcm100-esm100-rsr0-rcr69-esr29.exr,ReadingArea_rsl0-rcl25-esl310-rsm0-rcm100-esm100-rsr0-rcr69-esr29.npz,,,,,0,24,24,370,,left,green,3.44,457.9849269390106,458.33963084220886,,1,,4,1,lightness,readingArea,realistic,75,2023-03-20_12h21.05.780,tripletExp_regina_11082022,2022.2.4,119.92017337702067,
10,0,8,0,0.694444444444444,1.0,0,0.027777777777778,0.298245614035088,0,0.25,1.0,ReadingArea_rsl0-rcl69-esl100-rsm0-rcm2-esm29-rsr0-rcr25-esr100,exr/ReadingArea_rsl0-rcl69-esl100-rsm0-rcm2-esm29-rsr0-rcr25-esr100.exr,ReadingArea_rsl0-rcl69-esl100-rsm0-rcm2-esm29-rsr0-rcr25-esr100.npz,,,,,0,25,25,552,,right,red,3.39,461.7971498966217,462.18410181999207,,1,,4,1,lightness,readingArea,realistic,75,2023-03-20_12h21.05.780,tripletExp_regina_11082022,2022.2.4,119.92017337702067,
5,6,0,0,1.0,0.298245614035088,0,0.027777777777778,1.0,0,0.027777777777778,0.298245614035088,ReadingArea_rsl0-rcl100-esl29-rsm0-rcm2-esm100-rsr0-rcr2-esr29,exr/ReadingArea_rsl0-rcl100-esl29-rsm0-rcm2-esm100-rsr0-rcr2-esr29.exr,ReadingArea_rsl0-rcl100-esl29-rsm0-rcm2-esm100-rsr0-rcr2-esr29.npz,,,,,0,26,26,511,,right,red,2.58,465.6394629478455,465.9964318275452,,1,,4,1,lightness,readingArea,realistic,75,2023-03-20_12h21.05.780,tripletExp_regina_11082022,2022.2.4,119.92017337702067,
12,3,10,0,0.027777777777778,3.10526315789474,0,0.444444444444444,0.298245614035088,0,0.694444444444444,1.0,ReadingArea_rsl0-rcl2-esl310-rsm0-rcm44-esm29-rsr0-rcr69-esr100,exr/ReadingArea_rsl0-rcl2-esl310-rsm0-rcm44-esm29-rsr0-rcr69-esr100.exr,ReadingArea_rsl0-rcl2-esl310-rsm0-rcm44-esm29-rsr0-rcr69-esr100.npz,,,,,0,27,27,437,,left,green,3.44,469.45778799057007,469.8171668052673,,1,,4,1,lightness,readingArea,realistic,75,2023-03-20_12h21.05.780,tripletExp_regina_11082022,2022.2.4,119.92017337702067,
1,3,4,0,0.111111111111111,0.298245614035088,0,0.444444444444444,0.298245614035088,0,0.694444444444444,0.298245614035088,ReadingArea_rsl0-rcl11-esl29-rsm0-rcm44-esm29-rsr0-rcr69-esr29,exr/ReadingArea_rsl0-rcl11-esl29-rsm0-rcm44-esm29-rsr0-rcr69-esr29.exr,ReadingArea_rsl0-rcl11-esl29-rsm0-rcm44-esm29-rsr0-rcr69-esr29.npz,,,,,0,28,28,153,,right,red,3.98,475.0394549369812,475.3889110088349,,1,,4,1,lightness,readingArea,realistic,75,2023-03-20_12h21.05.780,tripletExp_regina_11082022,2022.2.4,119.92017337702067,
4,8,11,0,0.694444444444444,0.298245614035088,0,0.25,1.0,0,1.0,1.0,ReadingArea_rsl0-rcl69-esl29-rsm0-rcm25-esm100-rsr0-rcr100-esr100,exr/ReadingArea_rsl0-rcl69-esl29-rsm0-rcm25-esm100-rsr0-rcr100-esr100.exr,ReadingArea_rsl0-rcl69-esl29-rsm0-rcm25-esm100-rsr0-rcr100-esr100.npz,,,,,0,29,29,403,,left,green,2.55,478.8656659126282,,,1,,4,1,lightness,readingArea,realistic,75,2023-03-20_12h21.05.780,tripletExp_regina_11082022,2022.2.4,119.92017337702067,
7,13,4,0,0.111111111111111,1.0,0,0.111111111111111,3.10526315789474,0,0.694444444444444,0.298245614035088,ReadingArea_rsl0-rcl11-esl100-rsm0-rcm11-esm310-rsr0-rcr69-esr29,exr/ReadingArea_rsl0-rcl11-esl100-rsm0-rcm11-esm310-rsr0-rcr69-esr29.exr,ReadingArea_rsl0-rcl11-esl100-rsm0-rcm11-esm310-rsr0-rcr69-esr29.npz,,,,,0,30,30,456,,right,red,4.48,484.4588568210602,484.8046398162842,,1,,4,1,lightness,readingArea,realistic,75,2023-03-20_12h21.05.780,tripletExp_regina_11082022,2022.2.4,119.92017337702067,
5,14,8,0,1.0,0.298245614035088,0,0.25,3.10526315789474,0,0.25,1.0,ReadingArea_rsl0-rcl100-esl29-rsm0-rcm25-esm310-rsr0-rcr25-esr100,exr/ReadingArea_rsl0-rcl100-esl29-rsm0-rcm25-esm310-rsr0-rcr25-esr100.exr,ReadingArea_rsl0-rcl100-esl29-rsm0-rcm25-esm310-rsr0-rcr25-esr100.npz,,,,,0,31,31,14,,left,green,3.9,490.0602359771729,490.405378818512,,1,,4,1,lightness,readingArea,realistic,75,2023-03-20_12h21.05.780,tripletExp_regina_11082022,2022.2.4,119.92017337702067,
14,5,9,0,0.25,3.10526315789474,0,1.0,0.298245614035088,0,0.444444444444444,1.0,ReadingArea_rsl0-rcl25-esl310-rsm0-rcm100-esm29-rsr0-rcr44-esr100,exr/ReadingArea_rsl0-rcl25-esl310-rsm0-rcm100-esm29-rsr0-rcr44-esr100.exr,ReadingArea_rsl0-rcl25-esl310-rsm0-rcm100-esm29-rsr0-rcr44-esr100.npz,,,,,0,32,32,482,,right,red,4.2,495.68760991096497,496.0453028678894,,1,,4,1,lightness,readingArea,realistic,75,2023-03-20_12h21.05.780,tripletExp_regina_11082022,2022.2.4,119.92017337702067,
6,0,11,0,0.027777777777778,1.0,0,0.027777777777778,0.298245614035088,0,1.0,1.0,ReadingArea_rsl0-rcl2-esl100-rsm0-rcm2-esm29-rsr0-rcr100-esr100,exr/ReadingArea_rsl0-rcl2-esl100-rsm0-rcm2-esm29-rsr0-rcr100-esr100.exr,ReadingArea_rsl0-rcl2-esl100-rsm0-rcm2-esm29-rsr0-rcr100-esr100.npz,,,,,0,33,33,245,,left,green,3.19,499.5186820030213,,,1,,4,1,lightness,readingArea,realistic,75,2023-03-20_12h21.05.780,tripletExp_regina_11082022,2022.2.4,119.92017337702067,
6,5,13,0,0.027777777777778,1.0,0,1.0,0.298245614035088,0,0.111111111111111,3.10526315789474,ReadingArea_rsl0-rcl2-esl100-rsm0-rcm100-esm29-rsr0-rcr11-esr310,exr/ReadingArea_rsl0-rcl2-esl100-rsm0-rcm100-esm29-rsr0-rcr11-esr310.exr,ReadingArea_rsl0-rcl2-esl100-rsm0-rcm100-esm29-rsr0-rcr11-esr310.npz,,,,,0,34,34,450,,right,red,2.01,503.3761398792267,503.724828004837,,1,,4,1,lightness,readingArea,realistic,75,2023-03-20_12h21.05.780,tripletExp_regina_11082022,2022.2.4,119.92017337702067,
11,6,14,0,1.0,1.0,0,0.027777777777778,1.0,0,0.25,3.10526315789474,ReadingArea_rsl0-rcl100-esl100-rsm0-rcm2-esm100-rsr0-rcr25-esr310,exr/ReadingArea_rsl0-rcl100-esl100-rsm0-rcm2-esm100-rsr0-rcr25-esr310.exr,ReadingArea_rsl0-rcl100-esl100-rsm0-rcm2-esm100-rsr0-rcr25-esr310.npz,,,,,0,35,35,305,,right,red,4.44,508.94292187690735,509.4052867889404,,1,,4,1,lightness,readingArea,realistic,75,2023-03-20_12h21.05.780,tripletExp_regina_11082022,2022.2.4,119.92017337702067,
14,9,0,0,0.25,3.10526315789474,0,0.444444444444444,1.0,0,0.027777777777778,0.298245614035088,ReadingArea_rsl0-rcl25-esl310-rsm0-rcm44-esm100-rsr0-rcr2-esr29,exr/ReadingArea_rsl0-rcl25-esl310-rsm0-rcm44-esm100-rsr0-rcr2-esr29.exr,ReadingArea_rsl0-rcl25-esl310-rsm0-rcm44-esm100-rsr0-rcr2-esr29.npz,,,,,0,36,36,313,,left,green,1.86,512.8561289310455,513.2115077972412,,1,,4,1,lightness,readingArea,realistic,75,2023-03-20_12h21.05.780,tripletExp_regina_11082022,2022.2.4,119.92017337702067,
9,7,2,0,0.444444444444444,1.0,0,0.111111111111111,1.0,0,0.25,0.298245614035088,ReadingArea_rsl0-rcl44-esl100-rsm0-rcm11-esm100-rsr0-rcr25-esr29,exr/ReadingArea_rsl0-rcl44-esl100-rsm0-rcm11-esm100-rsr0-rcr25-esr29.exr,ReadingArea_rsl0-rcl44-esl100-rsm0-rcm11-esm100-rsr0-rcr25-esr29.npz,,,,,0,37,37,428,,right,red,1.41,514.9117558002472,515.2504198551178,,1,,4,1,lightness,readingArea,realistic,75,2023-03-20_12h21.05.780,tripletExp_regina_11082022,2022.2.4,119.92017337702067,
11,7,8,0,1.0,1.0,0,0.111111111111111,1.0,0,0.25,1.0,ReadingArea_rsl0-rcl100-esl100-rsm0-rcm11-esm100-rsr0-rcr25-esr100,exr/ReadingArea_rsl0-rcl100-esl100-rsm0-rcm11-esm100-rsr0-rcr25-esr100.exr,ReadingArea_rsl0-rcl100-esl100-rsm0-rcm11-esm100-rsr0-rcr25-esr100.npz,,,,,0,38,38,37,,right,red,2.82,518.722265958786,,,1,,4,1,lightness,readingArea,realistic,75,2023-03-20_12h21.05.780,tripletExp_regina_11082022,2022.2.4,119.92017337702067,
8,12,4,0,0.25,1.0,0,0.027777777777778,3.10526315789474,0,0.694444444444444,0.298245614035088,ReadingArea_rsl0-rcl25-esl100-rsm0-rcm2-esm310-rsr0-rcr69-esr29,exr/ReadingArea_rsl0-rcl25-esl100-rsm0-rcm2-esm310-rsr0-rcr69-esr29.exr,ReadingArea_rsl0-rcl25-esl100-rsm0-rcm2-esm310-rsr0-rcr69-esr29.npz,,,,,0,39,39,30,,left,green,4.35,524.333221912384,524.7012717723846,,1,,4,1,lightness,readingArea,realistic,75,2023-03-20_12h21.05.780,tripletExp_regina_11082022,2022.2.4,119.92017337702067,
1,3,12,0,0.111111111111111,0.298245614035088,0,0.444444444444444,0.298245614035088,0,0.027777777777778,3.10526315789474,ReadingArea_rsl0-rcl11-esl29-rsm0-rcm44-esm29-rsr0-rcr2-esr310,exr/ReadingArea_rsl0-rcl11-esl29-rsm0-rcm44-esm29-rsr0-rcr2-esr310.exr,ReadingArea_rsl0-rcl11-esl29-rsm0-rcm44-esm29-rsr0-rcr2-esr310.npz,,,,,0,40,40,323,,right,red,4.82,529.961562871933,530.3407859802246,,1,,4,1,lightness,readingArea,realistic,75,2023-03-20_12h21.05.780,tripletExp_regina_11082022,2022.2.4,119.92017337702067,
2,4,10,0,0.25,0.298245614035088,0,0.694444444444444,0.298245614035088,0,0.694444444444444,1.0,ReadingArea_rsl0-rcl25-esl29-rsm0-rcm69-esm29-rsr0-rcr69-esr100,exr/ReadingArea_rsl0-rcl25-esl29-rsm0-rcm69-esm29-rsr0-rcr69-esr100.exr,ReadingArea_rsl0-rcl25-esl29-rsm0-rcm69-esm29-rsr0-rcr69-esr100.npz,,,,,0,41,41,174,,right,red,3.36,533.8410468101501,,,1,,4,1,lightness,readingArea,realistic,75,2023-03-20_12h21.05.780,tripletExp_regina_11082022,2022.2.4,119.92017337702067,
3,8,7,0,0.444444444444444,0.298245614035088,0,0.25,1.0,0,0.111111111111111,1.0,ReadingArea_rsl0-rcl44-esl29-rsm0-rcm25-esm100-rsr0-rcr11-esr100,exr/ReadingArea_rsl0-rcl44-esl29-rsm0-rcm25-esm100-rsr0-rcr11-esr100.exr,ReadingArea_rsl0-rcl44-esl29-rsm0-rcm25-esm100-rsr0-rcr11-esr100.npz,,,,,0,42,42,484,,left,green,4.09,539.4614999294281,539.8229098320007,,1,,4,1,lightness,readingArea,realistic,75,2023-03-20_12h21.05.780,tripletExp_regina_11082022,2022.2.4,119.92017337702067,
12,10,6,0,0.027777777777778,3.10526315789474,0,0.694444444444444,1.0,0,0.027777777777778,1.0,ReadingArea_rsl0-rcl2-esl310-rsm0-rcm69-esm100-rsr0-rcr2-esr100,exr/ReadingArea_rsl0-rcl2-esl310-rsm0-rcm69-esm100-rsr0-rcr2-esr100.exr,ReadingArea_rsl0-rcl2-esl310-rsm0-rcm69-esm100-rsr0-rcr2-esr100.npz,,,,,0,43,43,273,,left,green,3.76,545.0660929679871,545.4212348461151,,1,,4,1,lightness,readingArea,realistic,75,2023-03-20_12h21.05.780,tripletExp_regina_11082022,2022.2.4,119.92017337702067,
9,11,6,0,0.444444444444444,1.0,0,1.0,1.0,0,0.027777777777778,1.0,ReadingArea_rsl0-rcl44-esl100-rsm0-rcm100-esm100-rsr0-rcr2-esr100,exr/ReadingArea_rsl0-rcl44-esl100-rsm0-rcm100-esm100-rsr0-rcr2-esr100.exr,ReadingArea_rsl0-rcl44-esl100-rsm0-rcm100-esm100-rsr0-rcr2-esr100.npz,,,,,0,44,44,404,,left,green,3.1,548.86448097229,549.2329609394073,,1,,4,1,lightness,readingArea,realistic,75,2023-03-20_12h21.05.780,tripletExp_regina_11082022,2022.2.4,119.92017337702067,
0,14,8,0,0.027777777777778,0.298245614035088,0,0.25,3.10526315789474,0,0.25,1.0,ReadingArea_rsl0-rcl2-esl29-rsm0-rcm25-esm310-rsr0-rcr25-esr100,exr/ReadingArea_rsl0-rcl2-esl29-rsm0-rcm25-esm310-rsr0-rcr25-esr100.exr,ReadingArea_rsl0-rcl2-esl29-rsm0-rcm25-esm310-rsr0-rcr25-esr100.npz,,,,,0,45,45,545,,right,red,3.58,554.4717438220978,554.8155508041382,,1,,4,1,lightness,readingArea,realistic,75,2023-03-20_12h21.05.780,tripletExp_regina_11082022,2022.2.4,119.92017337702067,
1,10,7,0,0.111111111111111,0.298245614035088,0,0.694444444444444,1.0,0,0.111111111111111,1.0,ReadingArea_rsl0-rcl11-esl29-rsm0-rcm69-esm100-rsr0-rcr11-esr100,exr/ReadingArea_rsl0-rcl11-esl29-rsm0-rcm69-esm100-rsr0-rcr11-esr100.exr,ReadingArea_rsl0-rcl11-esl29-rsm0-rcm69-esm100-rsr0-rcr11-esr100.npz,,,,,0,46,46,94,,,red,3.58,560.024484872818,560.3662459850311,,1,559.7658735990524,4,1,lightness,readingArea,realistic,75,2023-03-20_12h21.05.780,tripletExp_regina_11082022,2022.2.4,119.92017337702067,
1,10,11,0,0.111111111111111,0.298245614035088,0,0.694444444444444,1.0,0,1.0,1.0,ReadingArea_rsl0-rcl11-esl29-rsm0-rcm69-esm100-rsr0-rcr100-esr100,exr/ReadingArea_rsl0-rcl11-esl29-rsm0-rcm69-esm100-rsr0-rcr100-esr100.exr,ReadingArea_rsl0-rcl11-esl29-rsm0-rcm69-esm100-rsr0-rcr100-esr100.npz,,,,,0,47,47,483,,right,red,2.07,563.8317518234253,564.2072010040283,,1,,4,1,lightness,readingArea,realistic,75,2023-03-20_12h21.05.780,tripletExp_regina_11082022,2022.2.4,119.92017337702067,
5,2,10,0,1.0,0.298245614035088,0,0.25,0.298245614035088,0,0.694444444444444,1.0,ReadingArea_rsl0-rcl100-esl29-rsm0-rcm25-esm29-rsr0-rcr69-esr100,exr/ReadingArea_rsl0-rcl100-esl29-rsm0-rcm25-esm29-rsr0-rcr69-esr100.exr,ReadingArea_rsl0-rcl100-esl29-rsm0-rcm25-esm29-rsr0-rcr69-esr100.npz,,,,,0,48,48,595,,left,green,2.64,567.6819729804993,568.127198934555,,1,,4,1,lightness,readingArea,realistic,75,2023-03-20_12h21.05.780,tripletExp_regina_11082022,2022.2.4,119.92017337702067,
9,6,11,0,0.444444444444444,1.0,0,0.027777777777778,1.0,0,1.0,1.0,ReadingArea_rsl0-rcl44-esl100-rsm0-rcm2-esm100-rsr0-rcr100-esr100,exr/ReadingArea_rsl0-rcl44-esl100-rsm0-rcm2-esm100-rsr0-rcr100-esr100.exr,ReadingArea_rsl0-rcl44-esl100-rsm0-rcm2-esm100-rsr0-rcr100-esr100.npz,,,,,0,49,49,572,,left,green,2.45,571.6126418113708,571.9652509689331,,1,,4,1,lightness,readingArea,realistic,75,2023-03-20_12h21.05.780,tripletExp_regina_11082022,2022.2.4,119.92017337702067,
5,3,4,0,1.0,0.298245614035088,0,0.444444444444444,0.298245614035088,0,0.694444444444444,0.298245614035088,ReadingArea_rsl0-rcl100-esl29-rsm0-rcm44-esm29-rsr0-rcr69-esr29,exr/ReadingArea_rsl0-rcl100-esl29-rsm0-rcm44-esm29-rsr0-rcr69-esr29.exr,ReadingArea_rsl0-rcl100-esl29-rsm0-rcm44-esm29-rsr0-rcr69-esr29.npz,,,,,0,50,50,201,,right,red,4.36,577.1943860054016,577.5366749763489,,1,,4,1,lightness,readingArea,realistic,75,2023-03-20_12h21.05.780,tripletExp_regina_11082022,2022.2.4,119.92017337702067,
2,3,4,0,0.25,0.298245614035088,0,0.444444444444444,0.298245614035088,0,0.694444444444444,0.298245614035088,ReadingArea_rsl0-rcl25-esl29-rsm0-rcm44-esm29-rsr0-rcr69-esr29,exr/ReadingArea_rsl0-rcl25-esl29-rsm0-rcm44-esm29-rsr0-rcr69-esr29.exr,ReadingArea_rsl0-rcl25-esl29-rsm0-rcm44-esm29-rsr0-rcr69-esr29.npz,,,,,0,51,51,61,,left,green,3.82,582.7737848758698,,,1,,4,1,lightness,readingArea,realistic,75,2023-03-20_12h21.05.780,tripletExp_regina_11082022,2022.2.4,119.92017337702067,
6,2,12,0,0.027777777777778,1.0,0,0.25,0.298245614035088,0,0.027777777777778,3.10526315789474,ReadingArea_rsl0-rcl2-esl100-rsm0-rcm25-esm29-rsr0-rcr2-esr310,exr/ReadingArea_rsl0-rcl2-esl100-rsm0-rcm25-esm29-rsr0-rcr2-esr310.exr,ReadingArea_rsl0-rcl2-esl100-rsm0-rcm25-esm29-rsr0-rcr2-esr310.npz,,,,,0,52,52,480,,right,red,3.89,588.4009988307953,588.7471978664398,,1,,4,1,lightness,readingArea,realistic,75,2023-03-20_12h21.05.780,tripletExp_regina_11082022,2022.2.4,119.92017337702067,
12,8,9,0,0.027777777777778,3.10526315789474,0,0.25,1.0,0,0.444444444444444,1.0,ReadingArea_rsl0-rcl2-esl310-rsm0-rcm25-esm100-rsr0-rcr44-esr100,exr/ReadingArea_rsl0-rcl2-esl310-rsm0-rcm25-esm100-rsr0-rcr44-esr100.exr,ReadingArea_rsl0-rcl2-esl310-rsm0-rcm25-esm100-rsr0-rcr44-esr100.npz,,,,,0,53,53,517,,left,green,2.87,592.1997799873352,592.5564739704132,,1,,4,1,lightness,readingArea,realistic,75,2023-03-20_12h21.05.780,tripletExp_regina_11082022,2022.2.4,119.92017337702067,
11,8,2,0,1.0,1.0,0,0.25,1.0,0,0.25,0.298245614035088,ReadingArea_rsl0-rcl100-esl100-rsm0-rcm25-esm100-rsr0-rcr25-esr29,exr/ReadingArea_rsl0-rcl100-esl100-rsm0-rcm25-esm100-rsr0-rcr25-esr29.exr,ReadingArea_rsl0-rcl100-esl100-rsm0-rcm25-esm100-rsr0-rcr25-esr29.npz,,,,,0,54,54,406,,right,red,2.99,596.0311138629913,596.3892798423767,,1,,4,1,lightness,readingArea,realistic,75,2023-03-20_12h21.05.780,tripletExp_regina_11082022,2022.2.4,119.92017337702067,
14,2,0,0,0.25,3.10526315789474,0,0.25,0.298245614035088,0,0.027777777777778,0.298245614035088,ReadingArea_rsl0-rcl25-esl310-rsm0-rcm25-esm29-rsr0-rcr2-esr29,exr/ReadingArea_rsl0-rcl25-esl310-rsm0-rcm25-esm29-rsr0-rcr2-esr29.exr,ReadingArea_rsl0-rcl25-esl310-rsm0-rcm25-esm29-rsr0-rcr2-esr29.npz,,,,,0,55,55,460,,right,red,2.69,599.8624827861786,600.2379598617554,,1,,4,1,lightness,readingArea,realistic,75,2023-03-20_12h21.05.780,tripletExp_regina_11082022,2022.2.4,119.92017337702067,
14,4,7,0,0.25,3.10526315789474,0,0.694444444444444,0.298245614035088,0,0.111111111111111,1.0,ReadingArea_rsl0-rcl25-esl310-rsm0-rcm69-esm29-rsr0-rcr11-esr100,exr/ReadingArea_rsl0-rcl25-esl310-rsm0-rcm69-esm29-rsr0-rcr11-esr100.exr,ReadingArea_rsl0-rcl25-esl310-rsm0-rcm69-esm29-rsr0-rcr11-esr100.npz,,,,,0,56,56,136,,right,red,4.14,605.5136368274689,605.9756708145142,,1,,4,1,lightness,readingArea,realistic,75,2023-03-20_12h21.05.780,tripletExp_regina_11082022,2022.2.4,119.92017337702067,
0,13,1,0,0.027777777777778,0.298245614035088,0,0.111111111111111,3.10526315789474,0,0.111111111111111,0.298245614035088,ReadingArea_rsl0-rcl2-esl29-rsm0-rcm11-esm310-rsr0-rcr11-esr29,exr/ReadingArea_rsl0-rcl2-esl29-rsm0-rcm11-esm310-rsr0-rcr11-esr29.exr,ReadingArea_rsl0-rcl2-esl29-rsm0-rcm11-esm310-rsr0-rcr11-esr29.npz,,,,,0,57,57,458,,right,red,4.19,611.2099928855896,611.6411738395691,,1,,4,1,lightness,readingArea,realistic,75,2023-03-20_12h21.05.780,tripletExp_regina_11082022,2022.2.4,119.92017337702067,
9,11,3,0,0.444444444444444,1.0,0,1.0,1.0,0,0.444444444444444,0.298245614035088,ReadingArea_rsl0-rcl44-esl100-rsm0-rcm100-esm100-rsr0-rcr44-esr29,exr/ReadingArea_rsl0-rcl44-esl100-rsm0-rcm100-esm100-rsr0-rcr44-esr29.exr,ReadingArea_rsl0-rcl44-esl100-rsm0-rcm100-esm100-rsr0-rcr44-esr29.npz,,,,,0,58,58,348,,left,green,4.19,616.9255809783936,617.3115348815918,,1,,4,1,lightness,readingArea,realistic,75,2023-03-20_12h21.05.780,tripletExp_regina_11082022,2022.2.4,119.92017337702067,
10,8,1,0,0.694444444444444,1.0,0,0.25,1.0,0,0.111111111111111,0.298245614035088,ReadingArea_rsl0-rcl69-esl100-rsm0-rcm25-esm100-rsr0-rcr11-esr29,exr/ReadingArea_rsl0-rcl69-esl100-rsm0-rcm25-esm100-rsr0-rcr11-esr29.exr,ReadingArea_rsl0-rcl69-esl100-rsm0-rcm25-esm100-rsr0-rcr11-esr29.npz,,,,,0,59,59,247,,right,red,3.06,620.7976908683777,621.1649990081787,,1,,4,1,lightness,readingArea,realistic,75,2023-03-20_12h21.05.780,tripletExp_regina_11082022,2022.2.4,119.92017337702067,
10,3,1,0,0.694444444444444,1.0,0,0.444444444444444,0.298245614035088,0,0.111111111111111,0.298245614035088,ReadingArea_rsl0-rcl69-esl100-rsm0-rcm44-esm29-rsr0-rcr11-esr29,exr/ReadingArea_rsl0-rcl69-esl100-rsm0-rcm44-esm29-rsr0-rcr11-esr29.exr,ReadingArea_rsl0-rcl69-esl100-rsm0-rcm44-esm29-rsr0-rcr11-esr29.npz,,,,,0,60,60,420,,right,red,4.17,626.4551548957825,,,1,,4,1,lightness,readingArea,realistic,75,2023-03-20_12h21.05.780,tripletExp_regina_11082022,2022.2.4,119.92017337702067,
4,7,10,0,0.694444444444444,0.298245614035088,0,0.111111111111111,1.0,0,0.694444444444444,1.0,ReadingArea_rsl0-rcl69-esl29-rsm0-rcm11-esm100-rsr0-rcr69-esr100,exr/ReadingArea_rsl0-rcl69-esl29-rsm0-rcm11-esm100-rsr0-rcr69-esr100.exr,ReadingArea_rsl0-rcl69-esl29-rsm0-rcm11-esm100-rsr0-rcr69-esr100.npz,,,,,0,61,61,8,,left,green,2.31,630.2850689888,630.6455738544464,,1,,4,1,lightness,readingArea,realistic,75,2023-03-20_12h21.05.780,tripletExp_regina_11082022,2022.2.4,119.92017337702067,
12,3,5,0,0.027777777777778,3.10526315789474,0,0.444444444444444,0.298245614035088,0,1.0,0.298245614035088,ReadingArea_rsl0-rcl2-esl310-rsm0-rcm44-esm29-rsr0-rcr100-esr29,exr/ReadingArea_rsl0-rcl2-esl310-rsm0-rcm44-esm29-rsr0-rcr100-esr29.exr,ReadingArea_rsl0-rcl2-esl310-rsm0-rcm44-esm29-rsr0-rcr100-esr29.npz,,,,,0,62,62,188,,left,green,1.94,634.1442558765411,634.5021557807922,,1,,4,1,lightness,readingArea,realistic,75,2023-03-20_12h21.05.780,tripletExp_regina_11082022,2022.2.4,119.92017337702067,
6,5,0,0,0.027777777777778,1.0,0,1.0,0.298245614035088,0,0.027777777777778,0.298245614035088,ReadingArea_rsl0-rcl2-esl100-rsm0-rcm100-esm29-rsr0-rcr2-esr29,exr/ReadingArea_rsl0-rcl2-esl100-rsm0-rcm100-esm29-rsr0-rcr2-esr29.exr,ReadingArea_rsl0-rcl2-esl100-rsm0-rcm100-esm29-rsr0-rcr2-esr29.npz,,,,,0,63,63,558,,left,green,2.54,637.9632549285889,638.3224918842316,,1,,4,1,lightness,readingArea,realistic,75,2023-03-20_12h21.05.780,tripletExp_regina_11082022,2022.2.4,119.92017337702067,
12,7,9,0,0.027777777777778,3.10526315789474,0,0.111111111111111,1.0,0,0.444444444444444,1.0,ReadingArea_rsl0-rcl2-esl310-rsm0-rcm11-esm100-rsr0-rcr44-esr100,exr/ReadingArea_rsl0-rcl2-esl310-rsm0-rcm11-esm100-rsr0-rcr44-esr100.exr,ReadingArea_rsl0-rcl2-esl310-rsm0-rcm11-esm100-rsr0-rcr44-esr100.npz,,,,,0,64,64,124,,left,green,1.74,640.0261039733887,640.4109399318695,,1,,4,1,lightness,readingArea,realistic,75,2023-03-20_12h21.05.780,tripletExp_regina_11082022,2022.2.4,119.92017337702067,
7,12,0,0,0.111111111111111,1.0,0,0.027777777777778,3.10526315789474,0,0.027777777777778,0.298245614035088,ReadingArea_rsl0-rcl11-esl100-rsm0-rcm2-esm310-rsr0-rcr2-esr29,exr/ReadingArea_rsl0-rcl11-esl100-rsm0-rcm2-esm310-rsr0-rcr2-esr29.exr,ReadingArea_rsl0-rcl11-esl100-rsm0-rcm2-esm310-rsr0-rcr2-esr29.npz,,,,,0,65,65,425,,left,green,1.76,642.1119589805603,642.4859228134155,,1,,4,1,lightness,readingArea,realistic,75,2023-03-20_12h21.05.780,tripletExp_regina_11082022,2022.2.4,119.92017337702067,
11,5,4,0,1.0,1.0,0,1.0,0.298245614035088,0,0.694444444444444,0.298245614035088,ReadingArea_rsl0-rcl100-esl100-rsm0-rcm100-esm29-rsr0-rcr69-esr29,exr/ReadingArea_rsl0-rcl100-esl100-rsm0-rcm100-esm29-rsr0-rcr69-esr29.exr,ReadingArea_rsl0-rcl100-esl100-rsm0-rcm100-esm29-rsr0-rcr69-esr29.npz,,,,,0,66,66,564,,right,red,2.73,645.9545919895172,646.3456048965454,,1,,4,1,lightness,readingArea,realistic,75,2023-03-20_12h21.05.780,tripletExp_regina_11082022,2022.2.4,119.92017337702067,
3,9,10,0,0.444444444444444,0.298245614035088,0,0.444444444444444,1.0,0,0.694444444444444,1.0,ReadingArea_rsl0-rcl44-esl29-rsm0-rcm44-esm100-rsr0-rcr69-esr100,exr/ReadingArea_rsl0-rcl44-esl29-rsm0-rcm44-esm100-rsr0-rcr69-esr100.exr,ReadingArea_rsl0-rcl44-esl29-rsm0-rcm44-esm100-rsr0-rcr69-esr100.npz,,,,,0,67,67,581,,left,green,4.24,651.5998458862305,651.9983417987823,,1,,4,1,lightness,readingArea,realistic,75,2023-03-20_12h21.05.780,tripletExp_regina_11082022,2022.2.4,119.92017337702067,
6,11,3,0,0.027777777777778,1.0,0,1.0,1.0,0,0.444444444444444,0.298245614035088,ReadingArea_rsl0-rcl2-esl100-rsm0-rcm100-esm100-rsr0-rcr44-esr29,exr/ReadingArea_rsl0-rcl2-esl100-rsm0-rcm100-esm100-rsr0-rcr44-esr29.exr,ReadingArea_rsl0-rcl2-esl100-rsm0-rcm100-esm100-rsr0-rcr44-esr29.npz,,,,,0,68,68,11,,right,red,4.48,657.2441639900208,657.5908207893372,,1,,4,1,lightness,readingArea,realistic,75,2023-03-20_12h21.05.780,tripletExp_regina_11082022,2022.2.4,119.92017337702067,
10,11,0,0,0.694444444444444,1.0,0,1.0,1.0,0,0.027777777777778,0.298245614035088,ReadingArea_rsl0-rcl69-esl100-rsm0-rcm100-esm100-rsr0-rcr2-esr29,exr/ReadingArea_rsl0-rcl69-esl100-rsm0-rcm100-esm100-rsr0-rcr2-esr29.exr,ReadingArea_rsl0-rcl69-esl100-rsm0-rcm100-esm100-rsr0-rcr2-esr29.npz,,,,,0,69,69,58,,left,green,1.72,659.2913188934326,659.6372468471527,,1,,4,1,lightness,readingArea,realistic,75,2023-03-20_12h21.05.780,tripletExp_regina_11082022,2022.2.4,119.92017337702067,
14,7,13,0,0.25,3.10526315789474,0,0.111111111111111,1.0,0,0.111111111111111,3.10526315789474,ReadingArea_rsl0-rcl25-esl310-rsm0-rcm11-esm100-rsr0-rcr11-esr310,exr/ReadingArea_rsl0-rcl25-esl310-rsm0-rcm11-esm100-rsr0-rcr11-esr310.exr,ReadingArea_rsl0-rcl25-esl310-rsm0-rcm11-esm100-rsr0-rcr11-esr310.npz,,,,,0,70,70,358,,right,red,3.19,663.1259949207306,663.4676578044891,,1,,4,1,lightness,readingArea,realistic,75,2023-03-20_12h21.05.780,tripletExp_regina_11082022,2022.2.4,119.92017337702067,
12,5,2,0,0.027777777777778,3.10526315789474,0,1.0,0.298245614035088,0,0.25,0.298245614035088,ReadingArea_rsl0-rcl2-esl310-rsm0-rcm100-esm29-rsr0-rcr25-esr29,exr/ReadingArea_rsl0-rcl2-esl310-rsm0-rcm100-esm29-rsr0-rcr25-esr29.exr,ReadingArea_rsl0-rcl2-esl310-rsm0-rcm100-esm29-rsr0-rcr25-esr29.npz,,,,,0,71,71,415,,left,green,3.45,666.9535899162292,,,1,,4,1,lightness,readingArea,realistic,75,2023-03-20_12h21.05.780,tripletExp_regina_11082022,2022.2.4,119.92017337702067,
3,5,7,0,0.444444444444444,0.298245614035088,0,1.0,0.298245614035088,0,0.111111111111111,1.0,ReadingArea_rsl0-rcl44-esl29-rsm0-rcm100-esm29-rsr0-rcr11-esr100,exr/ReadingArea_rsl0-rcl44-esl29-rsm0-rcm100-esm29-rsr0-rcr11-esr100.exr,ReadingArea_rsl0-rcl44-esl29-rsm0-rcm100-esm29-rsr0-rcr11-esr100.npz,,,,,0,72,72,474,,right,red,4.45,672.5219178199768,672.8941628932953,,1,,4,1,lightness,readingArea,realistic,75,2023-03-20_12h21.05.780,tripletExp_regina_11082022,2022.2.4,119.92017337702067,
11,5,1,0,1.0,1.0,0,1.0,0.298245614035088,0,0.111111111111111,0.298245614035088,ReadingArea_rsl0-rcl100-esl100-rsm0-rcm100-esm29-rsr0-rcr11-esr29,exr/ReadingArea_rsl0-rcl100-esl100-rsm0-rcm100-esm29-rsr0-rcr11-esr29.exr,ReadingArea_rsl0-rcl100-esl100-rsm0-rcm100-esm29-rsr0-rcr11-esr29.npz,,,,,0,73,73,48,,left,green,3.43,676.3646957874298,676.7277219295502,,1,,4,1,lightness,readingArea,realistic,75,2023-03-20_12h21.05.780,tripletExp_regina_11082022,2022.2.4,119.92017337702067,
0,9,14,0,0.027777777777778,0.298245614035088,0,0.444444444444444,1.0,0,0.25,3.10526315789474,ReadingArea_rsl0-rcl2-esl29-rsm0-rcm44-esm100-rsr0-rcr25-esr310,exr/ReadingArea_rsl0-rcl2-esl29-rsm0-rcm44-esm100-rsr0-rcr25-esr310.exr,ReadingArea_rsl0-rcl2-esl29-rsm0-rcm44-esm100-rsr0-rcr25-esr310.npz,,,,,0,74,74,433,,right,red,2.05,680.198793888092,680.4044418334961,,1,,4,1,lightness,readingArea,realistic,75,2023-03-20_12h21.05.780,tripletExp_regina_11082022,2022.2.4,119.92017337702067,
3,14,10,0,0.444444444444444,0.298245614035088,0,0.25,3.10526315789474,0,0.694444444444444,1.0,ReadingArea_rsl0-rcl44-esl29-rsm0-rcm25-esm310-rsr0-rcr69-esr100,exr/ReadingArea_rsl0-rcl44-esl29-rsm0-rcm25-esm310-rsr0-rcr69-esr100.exr,ReadingArea_rsl0-rcl44-esl29-rsm0-rcm25-esm310-rsr0-rcr69-esr100.npz,,,,,0,75,75,279,,right,red,0.98,688.8082449436188,689.161367893219,,2,,4,1,lightness,readingArea,realistic,75,2023-03-20_12h21.05.780,tripletExp_regina_11082022,2022.2.4,119.92017337702067,
5,4,12,0,1.0,0.298245614035088,0,0.694444444444444,0.298245614035088,0,0.027777777777778,3.10526315789474,ReadingArea_rsl0-rcl100-esl29-rsm0-rcm69-esm29-rsr0-rcr2-esr310,exr/ReadingArea_rsl0-rcl100-esl29-rsm0-rcm69-esm29-rsr0-rcr2-esr310.exr,ReadingArea_rsl0-rcl100-esl29-rsm0-rcm69-esm29-rsr0-rcr2-esr310.npz,,,,,0,76,76,82,,left,green,1.21,690.8537077903748,691.1990048885345,,2,,4,1,lightness,readingArea,realistic,75,2023-03-20_12h21.05.780,tripletExp_regina_11082022,2022.2.4,119.92017337702067,
12,6,7,0,0.027777777777778,3.10526315789474,0,0.027777777777778,1.0,0,0.111111111111111,1.0,ReadingArea_rsl0-rcl2-esl310-rsm0-rcm2-esm100-rsr0-rcr11-esr100,exr/ReadingArea_rsl0-rcl2-esl310-rsm0-rcm2-esm100-rsr0-rcr11-esr100.exr,ReadingArea_rsl0-rcl2-esl310-rsm0-rcm2-esm100-rsr0-rcr11-esr100.npz,,,,,0,77,77,308,,right,red,4.44,696.4523408412933,696.8775107860565,,2,,4,1,lightness,readingArea,realistic,75,2023-03-20_12h21.05.780,tripletExp_regina_11082022,2022.2.4,119.92017337702067,
1,5,14,0,0.111111111111111,0.298245614035088,0,1.0,0.298245614035088,0,0.25,3.10526315789474,ReadingArea_rsl0-rcl11-esl29-rsm0-rcm100-esm29-rsr0-rcr25-esr310,exr/ReadingArea_rsl0-rcl11-esl29-rsm0-rcm100-esm29-rsr0-rcr25-esr310.exr,ReadingArea_rsl0-rcl11-esl29-rsm0-rcm100-esm29-rsr0-rcr25-esr310.npz,,,,,0,78,78,191,,right,red,2.48,700.3474888801575,700.7152979373932,,2,,4,1,lightness,readingArea,realistic,75,2023-03-20_12h21.05.780,tripletExp_regina_11082022,2022.2.4,119.92017337702067,
4,10,6,0,0.694444444444444,0.298245614035088,0,0.694444444444444,1.0,0,0.027777777777778,1.0,ReadingArea_rsl0-rcl69-esl29-rsm0-rcm69-esm100-rsr0-rcr2-esr100,exr/ReadingArea_rsl0-rcl69-esl29-rsm0-rcm69-esm100-rsr0-rcr2-esr100.exr,ReadingArea_rsl0-rcl69-esl29-rsm0-rcm69-esm100-rsr0-rcr2-esr100.npz,,,,,0,79,79,468,,left,green,2.01,704.1754939556122,704.5355768203735,,2,,4,1,lightness,readingArea,realistic,75,2023-03-20_12h21.05.780,tripletExp_regina_11082022,2022.2.4,119.92017337702067,
3,13,1,0,0.444444444444444,0.298245614035088,0,0.111111111111111,3.10526315789474,0,0.111111111111111,0.298245614035088,ReadingArea_rsl0-rcl44-esl29-rsm0-rcm11-esm310-rsr0-rcr11-esr29,exr/ReadingArea_rsl0-rcl44-esl29-rsm0-rcm11-esm310-rsr0-rcr11-esr29.exr,ReadingArea_rsl0-rcl44-esl29-rsm0-rcm11-esm310-rsr0-rcr11-esr29.npz,,,,,0,80,80,421,,left,green,4.36,709.7570908069611,710.1180379390717,,2,,4,1,lightness,readingArea,realistic,75,2023-03-20_12h21.05.780,tripletExp_regina_11082022,2022.2.4,119.92017337702067,
14,10,13,0,0.25,3.10526315789474,0,0.694444444444444,1.0,0,0.111111111111111,3.10526315789474,ReadingArea_rsl0-rcl25-esl310-rsm0-rcm69-esm100-rsr0-rcr11-esr310,exr/ReadingArea_rsl0-rcl25-esl310-rsm0-rcm69-esm100-rsr0-rcr11-esr310.exr,ReadingArea_rsl0-rcl25-esl310-rsm0-rcm69-esm100-rsr0-rcr11-esr310.npz,,,,,0,81,81,204,,left,green,2.38,713.598258972168,713.9624729156494,,2,,4,1,lightness,readingArea,realistic,75,2023-03-20_12h21.05.780,tripletExp_regina_11082022,2022.2.4,119.92017337702067,
11,6,8,0,1.0,1.0,0,0.027777777777778,1.0,0,0.25,1.0,ReadingArea_rsl0-rcl100-esl100-rsm0-rcm2-esm100-rsr0-rcr25-esr100,exr/ReadingArea_rsl0-rcl100-esl100-rsm0-rcm2-esm100-rsr0-rcr25-esr100.exr,ReadingArea_rsl0-rcl100-esl100-rsm0-rcm2-esm100-rsr0-rcr25-esr100.npz,,,,,0,82,82,599,,right,red,2.63,717.4319608211517,717.8921179771423,,2,,4,1,lightness,readingArea,realistic,75,2023-03-20_12h21.05.780,tripletExp_regina_11082022,2022.2.4,119.92017337702067,
3,13,10,0,0.444444444444444,0.298245614035088,0,0.111111111111111,3.10526315789474,0,0.694444444444444,1.0,ReadingArea_rsl0-rcl44-esl29-rsm0-rcm11-esm310-rsr0-rcr69-esr100,exr/ReadingArea_rsl0-rcl44-esl29-rsm0-rcm11-esm310-rsr0-rcr69-esr100.exr,ReadingArea_rsl0-rcl44-esl29-rsm0-rcm11-esm310-rsr0-rcr69-esr100.npz,,,,,0,83,83,416,,left,green,1.82,721.3546659946442,721.7188529968262,,2,,4,1,lightness,readingArea,realistic,75,2023-03-20_12h21.05.780,tripletExp_regina_11082022,2022.2.4,119.92017337702067,
2,1,14,0,0.25,0.298245614035088,0,0.111111111111111,0.298245614035088,0,0.25,3.10526315789474,ReadingArea_rsl0-rcl25-esl29-rsm0-rcm11-esm29-rsr0-rcr25-esr310,exr/ReadingArea_rsl0-rcl25-esl29-rsm0-rcm11-esm29-rsr0-rcr25-esr310.exr,ReadingArea_rsl0-rcl25-esl29-rsm0-rcm11-esm29-rsr0-rcr25-esr310.npz,,,,,0,84,84,59,,left,green,2.37,725.1837368011475,725.5449140071869,,2,,4,1,lightness,readingArea,realistic,75,2023-03-20_12h21.05.780,tripletExp_regina_11082022,2022.2.4,119.92017337702067,
0,8,6,0,0.027777777777778,0.298245614035088,0,0.25,1.0,0,0.027777777777778,1.0,ReadingArea_rsl0-rcl2-esl29-rsm0-rcm25-esm100-rsr0-rcr2-esr100,exr/ReadingArea_rsl0-rcl2-esl29-rsm0-rcm25-esm100-rsr0-rcr2-esr100.exr,ReadingArea_rsl0-rcl2-esl29-rsm0-rcm25-esm100-rsr0-rcr2-esr100.npz,,,,,0,85,85,92,,right,red,2.61,729.0233528614044,729.387048959732,,2,,4,1,lightness,readingArea,realistic,75,2023-03-20_12h21.05.780,tripletExp_regina_11082022,2022.2.4,119.92017337702067,
4,6,3,0,0.694444444444444,0.298245614035088,0,0.027777777777778,1.0,0,0.444444444444444,0.298245614035088,ReadingArea_rsl0-rcl69-esl29-rsm0-rcm2-esm100-rsr0-rcr44-esr29,exr/ReadingArea_rsl0-rcl69-esl29-rsm0-rcm2-esm100-rsr0-rcr44-esr29.exr,ReadingArea_rsl0-rcl69-esl29-rsm0-rcm2-esm100-rsr0-rcr44-esr29.npz,,,,,0,86,86,344,,right,red,3.75,734.6586458683014,735.0060358047485,,2,,4,1,lightness,readingArea,realistic,75,2023-03-20_12h21.05.780,tripletExp_regina_11082022,2022.2.4,119.92017337702067,
11,7,14,0,1.0,1.0,0,0.111111111111111,1.0,0,0.25,3.10526315789474,ReadingArea_rsl0-rcl100-esl100-rsm0-rcm11-esm100-rsr0-rcr25-esr310,exr/ReadingArea_rsl0-rcl100-esl100-rsm0-rcm11-esm100-rsr0-rcr25-esr310.exr,ReadingArea_rsl0-rcl100-esl100-rsm0-rcm11-esm100-rsr0-rcr25-esr310.npz,,,,,0,87,87,119,,right,red,3.92,740.2582898139954,740.6201508045197,,2,,4,1,lightness,readingArea,realistic,75,2023-03-20_12h21.05.780,tripletExp_regina_11082022,2022.2.4,119.92017337702067,
0,5,6,0,0.027777777777778,0.298245614035088,0,1.0,0.298245614035088,0,0.027777777777778,1.0,ReadingArea_rsl0-rcl2-esl29-rsm0-rcm100-esm29-rsr0-rcr2-esr100,exr/ReadingArea_rsl0-rcl2-esl29-rsm0-rcm100-esm29-rsr0-rcr2-esr100.exr,ReadingArea_rsl0-rcl2-esl29-rsm0-rcm100-esm29-rsr0-rcr2-esr100.npz,,,,,0,88,88,374,,right,red,2.7,744.0944018363953,744.4604067802429,,2,,4,1,lightness,readingArea,realistic,75,2023-03-20_12h21.05.780,tripletExp_regina_11082022,2022.2.4,119.92017337702067,
7,8,6,0,0.111111111111111,1.0,0,0.25,1.0,0,0.027777777777778,1.0,ReadingArea_rsl0-rcl11-esl100-rsm0-rcm25-esm100-rsr0-rcr2-esr100,exr/ReadingArea_rsl0-rcl11-esl100-rsm0-rcm25-esm100-rsr0-rcr2-esr100.exr,ReadingArea_rsl0-rcl11-esl100-rsm0-rcm25-esm100-rsr0-rcr2-esr100.npz,,,,,0,89,89,387,,left,green,2.54,747.9448308944702,748.2993628978729,,2,,4,1,lightness,readingArea,realistic,75,2023-03-20_12h21.05.780,tripletExp_regina_11082022,2022.2.4,119.92017337702067,
3,14,12,0,0.444444444444444,0.298245614035088,0,0.25,3.10526315789474,0,0.027777777777778,3.10526315789474,ReadingArea_rsl0-rcl44-esl29-rsm0-rcm25-esm310-rsr0-rcr2-esr310,exr/ReadingArea_rsl0-rcl44-esl29-rsm0-rcm25-esm310-rsr0-rcr2-esr310.exr,ReadingArea_rsl0-rcl44-esl29-rsm0-rcm25-esm310-rsr0-rcr2-esr310.npz,,,,,0,90,90,336,,left,green,2.81,751.777706861496,752.1358528137207,,2,,4,1,lightness,readingArea,realistic,75,2023-03-20_12h21.05.780,tripletExp_regina_11082022,2022.2.4,119.92017337702067,
14,6,11,0,0.25,3.10526315789474,0,0.027777777777778,1.0,0,1.0,1.0,ReadingArea_rsl0-rcl25-esl310-rsm0-rcm2-esm100-rsr0-rcr100-esr100,exr/ReadingArea_rsl0-rcl25-esl310-rsm0-rcm2-esm100-rsr0-rcr100-esr100.exr,ReadingArea_rsl0-rcl25-esl310-rsm0-rcm2-esm100-rsr0-rcr100-esr100.npz,,,,,0,91,91,337,,left,green,2.51,755.6080429553986,755.9646399021149,,2,,4,1,lightness,readingArea,realistic,75,2023-03-20_12h21.05.780,tripletExp_regina_11082022,2022.2.4,119.92017337702067,
9,3,0,0,0.444444444444444,1.0,0,0.444444444444444,0.298245614035088,0,0.027777777777778,0.298245614035088,ReadingArea_rsl0-rcl44-esl100-rsm0-rcm44-esm29-rsr0-rcr2-esr29,exr/ReadingArea_rsl0-rcl44-esl100-rsm0-rcm44-esm29-rsr0-rcr2-esr29.exr,ReadingArea_rsl0-rcl44-esl100-rsm0-rcm44-esm29-rsr0-rcr2-esr29.npz,,,,,0,92,92,120,,left,green,2.53,759.4480979442596,759.8122267723083,,2,,4,1,lightness,readingArea,realistic,75,2023-03-20_12h21.05.780,tripletExp_regina_11082022,2022.2.4,119.92017337702067,
11,7,10,0,1.0,1.0,0,0.111111111111111,1.0,0,0.694444444444444,1.0,ReadingArea_rsl0-rcl100-esl100-rsm0-rcm11-esm100-rsr0-rcr69-esr100,exr/ReadingArea_rsl0-rcl100-esl100-rsm0-rcm11-esm100-rsr0-rcr69-esr100.exr,ReadingArea_rsl0-rcl100-esl100-rsm0-rcm11-esm100-rsr0-rcr69-esr100.npz,,,,,0,93,93,411,,right,red,2.6,763.2880148887634,763.6550588607788,,2,,4,1,lightness,readingArea,realistic,75,2023-03-20_12h21.05.780,tripletExp_regina_11082022,2022.2.4,119.92017337702067,
8,3,9,0,0.25,1.0,0,0.444444444444444,0.298245614035088,0,0.444444444444444,1.0,ReadingArea_rsl0-rcl25-esl100-rsm0-rcm44-esm29-rsr0-rcr44-esr100,exr/ReadingArea_rsl0-rcl25-esl100-rsm0-rcm44-esm29-rsr0-rcr44-esr100.exr,ReadingArea_rsl0-rcl25-esl100-rsm0-rcm44-esm29-rsr0-rcr44-esr100.npz,,,,,0,94,94,15,,left,green,1.42,765.3508448600769,765.7152209281921,,2,,4,1,lightness,readingArea,realistic,75,2023-03-20_12h21.05.780,tripletExp_regina_11082022,2022.2.4,119.92017337702067,
10,13,1,0,0.694444444444444,1.0,0,0.111111111111111,3.10526315789474,0,0.111111111111111,0.298245614035088,ReadingArea_rsl0-rcl69-esl100-rsm0-rcm11-esm310-rsr0-rcr11-esr29,exr/ReadingArea_rsl0-rcl69-esl100-rsm0-rcm11-esm310-rsr0-rcr11-esr29.exr,ReadingArea_rsl0-rcl69-esl100-rsm0-rcm11-esm310-rsr0-rcr11-esr29.npz,,,,,0,95,95,149,,left,green,4.54,770.9677817821503,771.3330438137054,,2,,4,1,lightness,readingArea,realistic,75,2023-03-20_12h21.05.780,tripletExp_regina_11082022,2022.2.4,119.92017337702067,
5,11,14,0,1.0,0.298245614035088,0,1.0,1.0,0,0.25,3.10526315789474,ReadingArea_rsl0-rcl100-esl29-rsm0-rcm100-esm100-rsr0-rcr25-esr310,exr/ReadingArea_rsl0-rcl100-esl29-rsm0-rcm100-esm100-rsr0-rcr25-esr310.exr,ReadingArea_rsl0-rcl100-esl29-rsm0-rcm100-esm100-rsr0-rcr25-esr310.npz,,,,,0,96,96,258,,right,red,2.08,774.7855188846588,775.14617395401,,2,,4,1,lightness,readingArea,realistic,75,2023-03-20_12h21.05.780,tripletExp_regina_11082022,2022.2.4,119.92017337702067,
3,7,9,0,0.444444444444444,0.298245614035088,0,0.111111111111111,1.0,0,0.444444444444444,1.0,ReadingArea_rsl0-rcl44-esl29-rsm0-rcm11-esm100-rsr0-rcr44-esr100,exr/ReadingArea_rsl0-rcl44-esl29-rsm0-rcm11-esm100-rsr0-rcr44-esr100.exr,ReadingArea_rsl0-rcl44-esl29-rsm0-rcm11-esm100-rsr0-rcr44-esr100.npz,,,,,0,97,97,382,,left,green,0.91,776.8494939804077,777.196897983551,,2,,4,1,lightness,readingArea,realistic,75,2023-03-20_12h21.05.780,tripletExp_regina_11082022,2022.2.4,119.92017337702067,
6,10,9,0,0.027777777777778,1.0,0,0.694444444444444,1.0,0,0.444444444444444,1.0,ReadingArea_rsl0-rcl2-esl100-rsm0-rcm69-esm100-rsr0-rcr44-esr100,exr/ReadingArea_rsl0-rcl2-esl100-rsm0-rcm69-esm100-rsr0-rcr44-esr100.exr,ReadingArea_rsl0-rcl2-esl100-rsm0-rcm69-esm100-rsr0-rcr44-esr100.npz,,,,,0,98,98,148,,right,red,1.02,778.9062159061432,779.2538139820099,,2,,4,1,lightness,readingArea,realistic,75,2023-03-20_12h21.05.780,tripletExp_regina_11082022,2022.2.4,119.92017337702067,
5,0,6,0,1.0,0.298245614035088,0,0.027777777777778,0.298245614035088,0,0.027777777777778,1.0,ReadingArea_rsl0-rcl100-esl29-rsm0-rcm2-esm29-rsr0-rcr2-esr100,exr/ReadingArea_rsl0-rcl100-esl29-rsm0-rcm2-esm29-rsr0-rcr2-esr100.exr,ReadingArea_rsl0-rcl100-esl29-rsm0-rcm2-esm29-rsr0-rcr2-esr100.npz,,,,,0,99,99,1,,right,red,2.47,782.7231278419495,783.0988428592682,,2,,4,1,lightness,readingArea,realistic,75,2023-03-20_12h21.05.780,tripletExp_regina_11082022,2022.2.4,119.92017337702067,
14,0,6,0,0.25,3.10526315789474,0,0.027777777777778,0.298245614035088,0,0.027777777777778,1.0,ReadingArea_rsl0-rcl25-esl310-rsm0-rcm2-esm29-rsr0-rcr2-esr100,exr/ReadingArea_rsl0-rcl25-esl310-rsm0-rcm2-esm29-rsr0-rcr2-esr100.exr,ReadingArea_rsl0-rcl25-esl310-rsm0-rcm2-esm29-rsr0-rcr2-esr100.npz,,,,,0,100,100,496,,right,red,1.5,784.8017418384552,785.1651458740234,,2,,4,1,lightness,readingArea,realistic,75,2023-03-20_12h21.05.780,tripletExp_regina_11082022,2022.2.4,119.92017337702067,
4,11,14,0,0.694444444444444,0.298245614035088,0,1.0,1.0,0,0.25,3.10526315789474,ReadingArea_rsl0-rcl69-esl29-rsm0-rcm100-esm100-rsr0-rcr25-esr310,exr/ReadingArea_rsl0-rcl69-esl29-rsm0-rcm100-esm100-rsr0-rcr25-esr310.exr,ReadingArea_rsl0-rcl69-esl29-rsm0-rcm100-esm100-rsr0-rcr25-esr310.npz,,,,,0,101,101,165,,right,red,2.44,788.6326789855957,788.9846658706665,,2,,4,1,lightness,readingArea,realistic,75,2023-03-20_12h21.05.780,tripletExp_regina_11082022,2022.2.4,119.92017337702067,
10,13,6,0,0.694444444444444,1.0,0,0.111111111111111,3.10526315789474,0,0.027777777777778,1.0,ReadingArea_rsl0-rcl69-esl100-rsm0-rcm11-esm310-rsr0-rcr2-esr100,exr/ReadingArea_rsl0-rcl69-esl100-rsm0-rcm11-esm310-rsr0-rcr2-esr100.exr,ReadingArea_rsl0-rcl69-esl100-rsm0-rcm11-esm310-rsr0-rcr2-esr100.npz,,,,,0,102,102,351,,left,green,2.75,792.4526398181915,792.8789739608765,,2,,4,1,lightness,readingArea,realistic,75,2023-03-20_12h21.05.780,tripletExp_regina_11082022,2022.2.4,119.92017337702067,
0,4,12,0,0.027777777777778,0.298245614035088,0,0.694444444444444,0.298245614035088,0,0.027777777777778,3.10526315789474,ReadingArea_rsl0-rcl2-esl29-rsm0-rcm69-esm29-rsr0-rcr2-esr310,exr/ReadingArea_rsl0-rcl2-esl29-rsm0-rcm69-esm29-rsr0-rcr2-esr310.exr,ReadingArea_rsl0-rcl2-esl29-rsm0-rcm69-esm29-rsr0-rcr2-esr310.npz,,,,,0,103,103,150,,right,red,2.7,796.366091966629,796.7257039546967,,2,,4,1,lightness,readingArea,realistic,75,2023-03-20_12h21.05.780,tripletExp_regina_11082022,2022.2.4,119.92017337702067,
4,8,0,0,0.694444444444444,0.298245614035088,0,0.25,1.0,0,0.027777777777778,0.298245614035088,ReadingArea_rsl0-rcl69-esl29-rsm0-rcm25-esm100-rsr0-rcr2-esr29,exr/ReadingArea_rsl0-rcl69-esl29-rsm0-rcm25-esm100-rsr0-rcr2-esr29.exr,ReadingArea_rsl0-rcl69-esl29-rsm0-rcm25-esm100-rsr0-rcr2-esr29.npz,,,,,0,104,104,137,,left,green,2.46,800.1841127872467,800.5362379550934,,2,,4,1,lightness,readingArea,realistic,75,2023-03-20_12h21.05.780,tripletExp_regina_11082022,2022.2.4,119.92017337702067,
8,9,1,0,0.25,1.0,0,0.444444444444444,1.0,0,0.111111111111111,0.298245614035088,ReadingArea_rsl0-rcl25-esl100-rsm0-rcm44-esm100-rsr0-rcr11-esr29,exr/ReadingArea_rsl0-rcl25-esl100-rsm0-rcm44-esm100-rsr0-rcr11-esr29.exr,ReadingArea_rsl0-rcl25-esl100-rsm0-rcm44-esm100-rsr0-rcr11-esr29.npz,,,,,0,105,105,266,,left,green,2.23,804.0345277786255,804.404091835022,,2,,4,1,lightness,readingArea,realistic,75,2023-03-20_12h21.05.780,tripletExp_regina_11082022,2022.2.4,119.92017337702067,
0,9,10,0,0.027777777777778,0.298245614035088,0,0.444444444444444,1.0,0,0.694444444444444,1.0,ReadingArea_rsl0-rcl2-esl29-rsm0-rcm44-esm100-rsr0-rcr69-esr100,exr/ReadingArea_rsl0-rcl2-esl29-rsm0-rcm44-esm100-rsr0-rcr69-esr100.exr,ReadingArea_rsl0-rcl2-esl29-rsm0-rcm44-esm100-rsr0-rcr69-esr100.npz,,,,,0,106,106,434,,right,red,2.5,807.8493700027466,808.3018097877502,,2,,4,1,lightness,readingArea,realistic,75,2023-03-20_12h21.05.780,tripletExp_regina_11082022,2022.2.4,119.92017337702067,
10,4,13,0,0.694444444444444,1.0,0,0.694444444444444,0.298245614035088,0,0.111111111111111,3.10526315789474,ReadingArea_rsl0-rcl69-esl100-rsm0-rcm69-esm29-rsr0-rcr11-esr310,exr/ReadingArea_rsl0-rcl69-esl100-rsm0-rcm69-esm29-rsr0-rcr11-esr310.exr,ReadingArea_rsl0-rcl69-esl100-rsm0-rcm69-esm29-rsr0-rcr11-esr310.npz,,,,,0,107,107,24,,right,red,3.65,813.5187540054321,813.9445488452911,,2,,4,1,lightness,readingArea,realistic,75,2023-03-20_12h21.05.780,tripletExp_regina_11082022,2022.2.4,119.92017337702067,
3,14,4,0,0.444444444444444,0.298245614035088,0,0.25,3.10526315789474,0,0.694444444444444,0.298245614035088,ReadingArea_rsl0-rcl44-esl29-rsm0-rcm25-esm310-rsr0-rcr69-esr29,exr/ReadingArea_rsl0-rcl44-esl29-rsm0-rcm25-esm310-rsr0-rcr69-esr29.exr,ReadingArea_rsl0-rcl44-esl29-rsm0-rcm25-esm310-rsr0-rcr69-esr29.npz,,,,,0,108,108,537,,right,red,4.61,819.206316947937,819.7677719593048,,2,,4,1,lightness,readingArea,realistic,75,2023-03-20_12h21.05.780,tripletExp_regina_11082022,2022.2.4,119.92017337702067,
3,4,13,0,0.444444444444444,0.298245614035088,0,0.694444444444444,0.298245614035088,0,0.111111111111111,3.10526315789474,ReadingArea_rsl0-rcl44-esl29-rsm0-rcm69-esm29-rsr0-rcr11-esr310,exr/ReadingArea_rsl0-rcl44-esl29-rsm0-rcm69-esm29-rsr0-rcr11-esr310.exr,ReadingArea_rsl0-rcl44-esl29-rsm0-rcm69-esm29-rsr0-rcr11-esr310.npz,,,,,0,109,109,63,,right,red,2.08,823.2204167842865,823.5846948623657,,2,,4,1,lightness,readingArea,realistic,75,2023-03-20_12h21.05.780,tripletExp_regina_11082022,2022.2.4,119.92017337702067,
12,1,2,0,0.027777777777778,3.10526315789474,0,0.111111111111111,0.298245614035088,0,0.25,0.298245614035088,ReadingArea_rsl0-rcl2-esl310-rsm0-rcm11-esm29-rsr0-rcr25-esr29,exr/ReadingArea_rsl0-rcl2-esl310-rsm0-rcm11-esm29-rsr0-rcr25-esr29.exr,ReadingArea_rsl0-rcl2-esl310-rsm0-rcm11-esm29-rsr0-rcr25-esr29.npz,,,,,0,110,110,231,,left,green,4.3,828.8346807956696,829.2055888175964,,2,,4,1,lightness,readingArea,realistic,75,2023-03-20_12h21.05.780,tripletExp_regina_11082022,2022.2.4,119.92017337702067,
11,9,4,0,1.0,1.0,0,0.444444444444444,1.0,0,0.694444444444444,0.298245614035088,ReadingArea_rsl0-rcl100-esl100-rsm0-rcm44-esm100-rsr0-rcr69-esr29,exr/ReadingArea_rsl0-rcl100-esl100-rsm0-rcm44-esm100-rsr0-rcr69-esr29.exr,ReadingArea_rsl0-rcl100-esl100-rsm0-rcm44-esm100-rsr0-rcr69-esr29.npz,,,,,0,111,111,26,,right,red,1.69,830.89865899086,831.2530689239502,,2,,4,1,lightness,readingArea,realistic,75,2023-03-20_12h21.05.780,tripletExp_regina_11082022,2022.2.4,119.92017337702067,
4,0,3,0,0.694444444444444,0.298245614035088,0,0.027777777777778,0.298245614035088,0,0.444444444444444,0.298245614035088,ReadingArea_rsl0-rcl69-esl29-rsm0-rcm2-esm29-rsr0-rcr44-esr29,exr/ReadingArea_rsl0-rcl69-esl29-rsm0-rcm2-esm29-rsr0-rcr44-esr29.exr,ReadingArea_rsl0-rcl69-esl29-rsm0-rcm2-esm29-rsr0-rcr44-esr29.npz,,,,,0,112,112,88,,right,red,2.51,834.7018609046936,835.1269598007202,,2,,4,1,lightness,readingArea,realistic,75,2023-03-20_12h21.05.780,tripletExp_regina_11082022,2022.2.4,119.92017337702067,
11,4,0,0,1.0,1.0,0,0.694444444444444,0.298245614035088,0,0.027777777777778,0.298245614035088,ReadingArea_rsl0-rcl100-esl100-rsm0-rcm69-esm29-rsr0-rcr2-esr29,exr/ReadingArea_rsl0-rcl100-esl100-rsm0-rcm69-esm29-rsr0-rcr2-esr29.exr,ReadingArea_rsl0-rcl100-esl100-rsm0-rcm69-esm29-rsr0-rcr2-esr29.npz,,,,,0,113,113,219,,left,green,4.47,840.3520698547363,840.700178861618,,2,,4,1,lightness,readingArea,realistic,75,2023-03-20_12h21.05.780,tripletExp_regina_11082022,2022.2.4,119.92017337702067,
5,4,10,0,1.0,0.298245614035088,0,0.694444444444444,0.298245614035088,0,0.694444444444444,1.0,ReadingArea_rsl0-rcl100-esl29-rsm0-rcm69-esm29-rsr0-rcr69-esr100,exr/ReadingArea_rsl0-rcl100-esl29-rsm0-rcm69-esm29-rsr0-rcr69-esr100.exr,ReadingArea_rsl0-rcl100-esl29-rsm0-rcm69-esm29-rsr0-rcr69-esr100.npz,,,,,0,114,114,536,,left,green,2.74,844.1665148735046,844.5325257778168,,2,,4,1,lightness,readingArea,realistic,75,2023-03-20_12h21.05.780,tripletExp_regina_11082022,2022.2.4,119.92017337702067,
3,2,8,0,0.444444444444444,0.298245614035088,0,0.25,0.298245614035088,0,0.25,1.0,ReadingArea_rsl0-rcl44-esl29-rsm0-rcm25-esm29-rsr0-rcr25-esr100,exr/ReadingArea_rsl0-rcl44-esl29-rsm0-rcm25-esm29-rsr0-rcr25-esr100.exr,ReadingArea_rsl0-rcl44-esl29-rsm0-rcm25-esm29-rsr0-rcr25-esr100.npz,,,,,0,115,115,181,,left,green,2.43,848.0108029842377,848.374752998352,,2,,4,1,lightness,readingArea,realistic,75,2023-03-20_12h21.05.780,tripletExp_regina_11082022,2022.2.4,119.92017337702067,
8,1,6,0,0.25,1.0,0,0.111111111111111,0.298245614035088,0,0.027777777777778,1.0,ReadingArea_rsl0-rcl25-esl100-rsm0-rcm11-esm29-rsr0-rcr2-esr100,exr/ReadingArea_rsl0-rcl25-esl100-rsm0-rcm11-esm29-rsr0-rcr2-esr100.exr,ReadingArea_rsl0-rcl25-esl100-rsm0-rcm11-esm29-rsr0-rcr2-esr100.npz,,,,,0,116,116,62,,right,red,2.18,851.8289198875427,852.1988198757172,,2,,4,1,lightness,readingArea,realistic,75,2023-03-20_12h21.05.780,tripletExp_regina_11082022,2022.2.4,119.92017337702067,
10,4,8,0,0.694444444444444,1.0,0,0.694444444444444,0.298245614035088,0,0.25,1.0,ReadingArea_rsl0-rcl69-esl100-rsm0-rcm69-esm29-rsr0-rcr25-esr100,exr/ReadingArea_rsl0-rcl69-esl100-rsm0-rcm69-esm29-rsr0-rcr25-esr100.exr,ReadingArea_rsl0-rcl69-esl100-rsm0-rcm69-esm29-rsr0-rcr25-esr100.npz,,,,,0,117,117,562,,right,red,2.5,855.6725919246674,856.1178979873657,,2,,4,1,lightness,readingArea,realistic,75,2023-03-20_12h21.05.780,tripletExp_regina_11082022,2022.2.4,119.92017337702067,
4,10,11,0,0.694444444444444,0.298245614035088,0,0.694444444444444,1.0,0,1.0,1.0,ReadingArea_rsl0-rcl69-esl29-rsm0-rcm69-esm100-rsr0-rcr100-esr100,exr/ReadingArea_rsl0-rcl69-esl29-rsm0-rcm69-esm100-rsr0-rcr100-esr100.exr,ReadingArea_rsl0-rcl69-esl29-rsm0-rcm69-esm100-rsr0-rcr100-esr100.npz,,,,,0,118,118,180,,right,red,2.94,859.5880498886108,859.9388988018036,,2,,4,1,lightness,readingArea,realistic,75,2023-03-20_12h21.05.780,tripletExp_regina_11082022,2022.2.4,119.92017337702067,
13,3,7,0,0.111111111111111,3.10526315789474,0,0.444444444444444,0.298245614035088,0,0.111111111111111,1.0,ReadingArea_rsl0-rcl11-esl310-rsm0-rcm44-esm29-rsr0-rcr11-esr100,exr/ReadingArea_rsl0-rcl11-esl310-rsm0-rcm44-esm29-rsr0-rcr11-esr100.exr,ReadingArea_rsl0-rcl11-esl310-rsm0-rcm44-esm29-rsr0-rcr11-esr100.npz,,,,,0,119,119,497,,right,red,2.67,863.4117457866669,863.786426782608,,2,,4,1,lightness,readingArea,realistic,75,2023-03-20_12h21.05.780,tripletExp_regina_11082022,2022.2.4,119.92017337702067,
3,11,2,0,0.444444444444444,0.298245614035088,0,1.0,1.0,0,0.25,0.298245614035088,ReadingArea_rsl0-rcl44-esl29-rsm0-rcm100-esm100-rsr0-rcr25-esr29,exr/ReadingArea_rsl0-rcl44-esl29-rsm0-rcm100-esm100-rsr0-rcr25-esr29.exr,ReadingArea_rsl0-rcl44-esl29-rsm0-rcm100-esm100-rsr0-rcr25-esr29.npz,,,,,0,120,120,220,,left,green,3.91,869.0354268550873,,,2,,4,1,lightness,readingArea,realistic,75,2023-03-20_12h21.05.780,tripletExp_regina_11082022,2022.2.4,119.92017337702067,
12,6,9,0,0.027777777777778,3.10526315789474,0,0.027777777777778,1.0,0,0.444444444444444,1.0,ReadingArea_rsl0-rcl2-esl310-rsm0-rcm2-esm100-rsr0-rcr44-esr100,exr/ReadingArea_rsl0-rcl2-esl310-rsm0-rcm2-esm100-rsr0-rcr44-esr100.exr,ReadingArea_rsl0-rcl2-esl310-rsm0-rcm2-esm100-rsr0-rcr44-esr100.npz,,,,,0,121,121,177,,left,green,4.24,874.6286599636078,875.0125060081482,,2,,4,1,lightness,readingArea,realistic,75,2023-03-20_12h21.05.780,tripletExp_regina_11082022,2022.2.4,119.92017337702067,
10,7,8,0,0.694444444444444,1.0,0,0.111111111111111,1.0,0,0.25,1.0,ReadingArea_rsl0-rcl69-esl100-rsm0-rcm11-esm100-rsr0-rcr25-esr100,exr/ReadingArea_rsl0-rcl69-esl100-rsm0-rcm11-esm100-rsr0-rcr25-esr100.exr,ReadingArea_rsl0-rcl69-esl100-rsm0-rcm11-esm100-rsr0-rcr25-esr100.npz,,,,,0,122,122,57,,right,red,3.87,880.2364459037781,880.6470749378204,,2,,4,1,lightness,readingArea,realistic,75,2023-03-20_12h21.05.780,tripletExp_regina_11082022,2022.2.4,119.92017337702067,
4,12,6,0,0.694444444444444,0.298245614035088,0,0.027777777777778,3.10526315789474,0,0.027777777777778,1.0,ReadingArea_rsl0-rcl69-esl29-rsm0-rcm2-esm310-rsr0-rcr2-esr100,exr/ReadingArea_rsl0-rcl69-esl29-rsm0-rcm2-esm310-rsr0-rcr2-esr100.exr,ReadingArea_rsl0-rcl69-esl29-rsm0-rcm2-esm310-rsr0-rcr2-esr100.npz,,,,,0,123,123,99,,left,green,3.76,885.8859739303589,886.2888479232788,,2,,4,1,lightness,readingArea,realistic,75,2023-03-20_12h21.05.780,tripletExp_regina_11082022,2022.2.4,119.92017337702067,
8,12,3,0,0.25,1.0,0,0.027777777777778,3.10526315789474,0,0.444444444444444,0.298245614035088,ReadingArea_rsl0-rcl25-esl100-rsm0-rcm2-esm310-rsr0-rcr44-esr29,exr/ReadingArea_rsl0-rcl25-esl100-rsm0-rcm2-esm310-rsr0-rcr44-esr29.exr,ReadingArea_rsl0-rcl25-esl100-rsm0-rcm2-esm310-rsr0-rcr44-esr29.npz,,,,,0,124,124,6,,right,red,4.73,891.5438928604126,891.9085609912872,,2,,4,1,lightness,readingArea,realistic,75,2023-03-20_12h21.05.780,tripletExp_regina_11082022,2022.2.4,119.92017337702067,
5,2,7,0,1.0,0.298245614035088,0,0.25,0.298245614035088,0,0.111111111111111,1.0,ReadingArea_rsl0-rcl100-esl29-rsm0-rcm25-esm29-rsr0-rcr11-esr100,exr/ReadingArea_rsl0-rcl100-esl29-rsm0-rcm25-esm29-rsr0-rcr11-esr100.exr,ReadingArea_rsl0-rcl100-esl29-rsm0-rcm25-esm29-rsr0-rcr11-esr100.npz,,,,,0,125,125,179,,right,red,2.84,895.398717880249,895.7703700065613,,2,,4,1,lightness,readingArea,realistic,75,2023-03-20_12h21.05.780,tripletExp_regina_11082022,2022.2.4,119.92017337702067,
9,0,6,0,0.444444444444444,1.0,0,0.027777777777778,0.298245614035088,0,0.027777777777778,1.0,ReadingArea_rsl0-rcl44-esl100-rsm0-rcm2-esm29-rsr0-rcr2-esr100,exr/ReadingArea_rsl0-rcl44-esl100-rsm0-rcm2-esm29-rsr0-rcr2-esr100.exr,ReadingArea_rsl0-rcl44-esl100-rsm0-rcm2-esm29-rsr0-rcr2-esr100.npz,,,,,0,126,126,362,,right,red,3.87,901.0267767906188,901.3919939994812,,2,,4,1,lightness,readingArea,realistic,75,2023-03-20_12h21.05.780,tripletExp_regina_11082022,2022.2.4,119.92017337702067,
6,9,2,0,0.027777777777778,1.0,0,0.444444444444444,1.0,0,0.25,0.298245614035088,ReadingArea_rsl0-rcl2-esl100-rsm0-rcm44-esm100-rsr0-rcr25-esr29,exr/ReadingArea_rsl0-rcl2-esl100-rsm0-rcm44-esm100-rsr0-rcr25-esr29.exr,ReadingArea_rsl0-rcl2-esl100-rsm0-rcm44-esm100-rsr0-rcr25-esr29.npz,,,,,0,127,127,182,,right,red,2.59,904.883948802948,905.2582828998566,,2,,4,1,lightness,readingArea,realistic,75,2023-03-20_12h21.05.780,tripletExp_regina_11082022,2022.2.4,119.92017337702067,
13,11,2,0,0.111111111111111,3.10526315789474,0,1.0,1.0,0,0.25,0.298245614035088,ReadingArea_rsl0-rcl11-esl310-rsm0-rcm100-esm100-rsr0-rcr25-esr29,exr/ReadingArea_rsl0-rcl11-esl310-rsm0-rcm100-esm100-rsr0-rcr25-esr29.exr,ReadingArea_rsl0-rcl11-esl310-rsm0-rcm100-esm100-rsr0-rcr25-esr29.npz,,,,,0,128,128,55,,left,green,2.51,908.7461829185486,909.113213777542,,2,,4,1,lightness,readingArea,realistic,75,2023-03-20_12h21.05.780,tripletExp_regina_11082022,2022.2.4,119.92017337702067,
3,0,4,0,0.444444444444444,0.298245614035088,0,0.027777777777778,0.298245614035088,0,0.694444444444444,0.298245614035088,ReadingArea_rsl0-rcl44-esl29-rsm0-rcm2-esm29-rsr0-rcr69-esr29,exr/ReadingArea_rsl0-rcl44-esl29-rsm0-rcm2-esm29-rsr0-rcr69-esr29.exr,ReadingArea_rsl0-rcl44-esl29-rsm0-rcm2-esm29-rsr0-rcr69-esr29.npz,,,,,0,129,129,111,,right,red,4.74,914.3678488731384,,,2,,4,1,lightness,readingArea,realistic,75,2023-03-20_12h21.05.780,tripletExp_regina_11082022,2022.2.4,119.92017337702067,
10,5,1,0,0.694444444444444,1.0,0,1.0,0.298245614035088,0,0.111111111111111,0.298245614035088,ReadingArea_rsl0-rcl69-esl100-rsm0-rcm100-esm29-rsr0-rcr11-esr29,exr/ReadingArea_rsl0-rcl69-esl100-rsm0-rcm100-esm29-rsr0-rcr11-esr29.exr,ReadingArea_rsl0-rcl69-esl100-rsm0-rcm100-esm29-rsr0-rcr11-esr29.npz,,,,,0,130,130,152,,left,green,2.69,918.2664527893066,918.6253349781036,,2,,4,1,lightness,readingArea,realistic,75,2023-03-20_12h21.05.780,tripletExp_regina_11082022,2022.2.4,119.92017337702067,
5,14,3,0,1.0,0.298245614035088,0,0.25,3.10526315789474,0,0.444444444444444,0.298245614035088,ReadingArea_rsl0-rcl100-esl29-rsm0-rcm25-esm310-rsr0-rcr44-esr29,exr/ReadingArea_rsl0-rcl100-esl29-rsm0-rcm25-esm310-rsr0-rcr44-esr29.exr,ReadingArea_rsl0-rcl100-esl29-rsm0-rcm25-esm310-rsr0-rcr44-esr29.npz,,,,,0,131,131,93,,left,green,2.66,922.0835258960724,922.4428009986876,,2,,4,1,lightness,readingArea,realistic,75,2023-03-20_12h21.05.780,tripletExp_regina_11082022,2022.2.4,119.92017337702067,
2,12,6,0,0.25,0.298245614035088,0,0.027777777777778,3.10526315789474,0,0.027777777777778,1.0,ReadingArea_rsl0-rcl25-esl29-rsm0-rcm2-esm310-rsr0-rcr2-esr100,exr/ReadingArea_rsl0-rcl25-esl29-rsm0-rcm2-esm310-rsr0-rcr2-esr100.exr,ReadingArea_rsl0-rcl25-esl29-rsm0-rcm2-esm310-rsr0-rcr2-esr100.npz,,,,,0,132,132,400,,left,green,2.13,925.8966159820556,926.26882481575,,2,,4,1,lightness,readingArea,realistic,75,2023-03-20_12h21.05.780,tripletExp_regina_11082022,2022.2.4,119.92017337702067,
11,0,12,0,1.0,1.0,0,0.027777777777778,0.298245614035088,0,0.027777777777778,3.10526315789474,ReadingArea_rsl0-rcl100-esl100-rsm0-rcm2-esm29-rsr0-rcr2-esr310,exr/ReadingArea_rsl0-rcl100-esl100-rsm0-rcm2-esm29-rsr0-rcr2-esr310.exr,ReadingArea_rsl0-rcl100-esl100-rsm0-rcm2-esm29-rsr0-rcr2-esr310.npz,,,,,0,133,133,166,,right,red,2.91,929.7513978481292,930.0996499061584,,2,,4,1,lightness,readingArea,realistic,75,2023-03-20_12h21.05.780,tripletExp_regina_11082022,2022.2.4,119.92017337702067,
10,14,4,0,0.694444444444444,1.0,0,0.25,3.10526315789474,0,0.694444444444444,0.298245614035088,ReadingArea_rsl0-rcl69-esl100-rsm0-rcm25-esm310-rsr0-rcr69-esr29,exr/ReadingArea_rsl0-rcl69-esl100-rsm0-rcm25-esm310-rsr0-rcr69-esr29.exr,ReadingArea_rsl0-rcl69-esl100-rsm0-rcm25-esm310-rsr0-rcr69-esr29.npz,,,,,0,134,134,267,,left,green,1.18,931.8005089759828,932.1869139671326,,2,,4,1,lightness,readingArea,realistic,75,2023-03-20_12h21.05.780,tripletExp_regina_11082022,2022.2.4,119.92017337702067,
2,9,11,0,0.25,0.298245614035088,0,0.444444444444444,1.0,0,1.0,1.0,ReadingArea_rsl0-rcl25-esl29-rsm0-rcm44-esm100-rsr0-rcr100-esr100,exr/ReadingArea_rsl0-rcl25-esl29-rsm0-rcm44-esm100-rsr0-rcr100-esr100.exr,ReadingArea_rsl0-rcl25-esl29-rsm0-rcm44-esm100-rsr0-rcr100-esr100.npz,,,,,0,135,135,164,,right,red,2.61,935.6646809577942,936.0448298454284,,2,,4,1,lightness,readingArea,realistic,75,2023-03-20_12h21.05.780,tripletExp_regina_11082022,2022.2.4,119.92017337702067,
3,1,0,0,0.444444444444444,0.298245614035088,0,0.111111111111111,0.298245614035088,0,0.027777777777778,0.298245614035088,ReadingArea_rsl0-rcl44-esl29-rsm0-rcm11-esm29-rsr0-rcr2-esr29,exr/ReadingArea_rsl0-rcl44-esl29-rsm0-rcm11-esm29-rsr0-rcr2-esr29.exr,ReadingArea_rsl0-rcl44-esl29-rsm0-rcm11-esm29-rsr0-rcr2-esr29.npz,,,,,0,136,136,343,,left,green,3.89,941.274003982544,941.6422238349916,,2,,4,1,lightness,readingArea,realistic,75,2023-03-20_12h21.05.780,tripletExp_regina_11082022,2022.2.4,119.92017337702067,
3,2,11,0,0.444444444444444,0.298245614035088,0,0.25,0.298245614035088,0,1.0,1.0,ReadingArea_rsl0-rcl44-esl29-rsm0-rcm25-esm29-rsr0-rcr100-esr100,exr/ReadingArea_rsl0-rcl44-esl29-rsm0-rcm25-esm29-rsr0-rcr100-esr100.exr,ReadingArea_rsl0-rcl44-esl29-rsm0-rcm25-esm29-rsr0-rcr100-esr100.npz,,,,,0,137,137,257,,left,green,2.33,945.1189839839936,945.4855668544768,,2,,4,1,lightness,readingArea,realistic,75,2023-03-20_12h21.05.780,tripletExp_regina_11082022,2022.2.4,119.92017337702067,
13,6,0,0,0.111111111111111,3.10526315789474,0,0.027777777777778,1.0,0,0.027777777777778,0.298245614035088,ReadingArea_rsl0-rcl11-esl310-rsm0-rcm2-esm100-rsr0-rcr2-esr29,exr/ReadingArea_rsl0-rcl11-esl310-rsm0-rcm2-esm100-rsr0-rcr2-esr29.exr,ReadingArea_rsl0-rcl11-esl310-rsm0-rcm2-esm100-rsr0-rcr2-esr29.npz,,,,,0,138,138,309,,right,red,4.42,950.764506816864,,,2,,4,1,lightness,readingArea,realistic,75,2023-03-20_12h21.05.780,tripletExp_regina_11082022,2022.2.4,119.92017337702067,
0,4,7,0,0.027777777777778,0.298245614035088,0,0.694444444444444,0.298245614035088,0,0.111111111111111,1.0,ReadingArea_rsl0-rcl2-esl29-rsm0-rcm69-esm29-rsr0-rcr11-esr100,exr/ReadingArea_rsl0-rcl2-esl29-rsm0-rcm69-esm29-rsr0-rcr11-esr100.exr,ReadingArea_rsl0-rcl2-esl29-rsm0-rcm69-esm29-rsr0-rcr11-esr100.npz,,,,,0,139,139,200,,right,red,4.25,956.36767578125,956.7252609729768,,2,,4,1,lightness,readingArea,realistic,75,2023-03-20_12h21.05.780,tripletExp_regina_11082022,2022.2.4,119.92017337702067,
1,5,8,0,0.111111111111111,0.298245614035088,0,1.0,0.298245614035088,0,0.25,1.0,ReadingArea_rsl0-rcl11-esl29-rsm0-rcm100-esm29-rsr0-rcr25-esr100,exr/ReadingArea_rsl0-rcl11-esl29-rsm0-rcm100-esm29-rsr0-rcr25-esr100.exr,ReadingArea_rsl0-rcl11-esl29-rsm0-rcm100-esm29-rsr0-rcr25-esr100.npz,,,,,0,140,140,238,,right,red,4.12,961.9840288162231,962.3385848999023,,2,,4,1,lightness,readingArea,realistic,75,2023-03-20_12h21.05.780,tripletExp_regina_11082022,2022.2.4,119.92017337702067,
7,4,2,0,0.111111111111111,1.0,0,0.694444444444444,0.298245614035088,0,0.25,0.298245614035088,ReadingArea_rsl0-rcl11-esl100-rsm0-rcm69-esm29-rsr0-rcr25-esr29,exr/ReadingArea_rsl0-rcl11-esl100-rsm0-rcm69-esm29-rsr0-rcr25-esr29.exr,ReadingArea_rsl0-rcl11-esl100-rsm0-rcm69-esm29-rsr0-rcr25-esr29.npz,,,,,0,141,141,146,,left,green,4.4,967.541090965271,967.9158329963684,,2,,4,1,lightness,readingArea,realistic,75,2023-03-20_12h21.05.780,tripletExp_regina_11082022,2022.2.4,119.92017337702067,
2,3,9,0,0.25,0.298245614035088,0,0.444444444444444,0.298245614035088,0,0.444444444444444,1.0,ReadingArea_rsl0-rcl25-esl29-rsm0-rcm44-esm29-rsr0-rcr44-esr100,exr/ReadingArea_rsl0-rcl25-esl29-rsm0-rcm44-esm29-rsr0-rcr44-esr100.exr,ReadingArea_rsl0-rcl25-esl29-rsm0-rcm44-esm29-rsr0-rcr44-esr100.npz,,,,,0,142,142,190,,right,red,4.16,973.2006239891052,973.562299966812,,2,,4,1,lightness,readingArea,realistic,75,2023-03-20_12h21.05.780,tripletExp_regina_11082022,2022.2.4,119.92017337702067,
1,14,6,0,0.111111111111111,0.298245614035088,0,0.25,3.10526315789474,0,0.027777777777778,1.0,ReadingArea_rsl0-rcl11-esl29-rsm0-rcm25-esm310-rsr0-rcr2-esr100,exr/ReadingArea_rsl0-rcl11-esl29-rsm0-rcm25-esm310-rsr0-rcr2-esr100.exr,ReadingArea_rsl0-rcl11-esl29-rsm0-rcm25-esm310-rsr0-rcr2-esr100.npz,,,,,0,143,143,475,,left,green,2.83,977.03906083107,977.5064599514008,,2,,4,1,lightness,readingArea,realistic,75,2023-03-20_12h21.05.780,tripletExp_regina_11082022,2022.2.4,119.92017337702067,
2,9,10,0,0.25,0.298245614035088,0,0.444444444444444,1.0,0,0.694444444444444,1.0,ReadingArea_rsl0-rcl25-esl29-rsm0-rcm44-esm100-rsr0-rcr69-esr100,exr/ReadingArea_rsl0-rcl25-esl29-rsm0-rcm44-esm100-rsr0-rcr69-esr100.exr,ReadingArea_rsl0-rcl25-esl29-rsm0-rcm44-esm100-rsr0-rcr69-esr100.npz,,,,,0,144,144,117,,right,red,2.04,981.004630804062,981.375118970871,,2,,4,1,lightness,readingArea,realistic,75,2023-03-20_12h21.05.780,tripletExp_regina_11082022,2022.2.4,119.92017337702067,
14,6,12,0,0.25,3.10526315789474,0,0.027777777777778,1.0,0,0.027777777777778,3.10526315789474,ReadingArea_rsl0-rcl25-esl310-rsm0-rcm2-esm100-rsr0-rcr2-esr310,exr/ReadingArea_rsl0-rcl25-esl310-rsm0-rcm2-esm100-rsr0-rcr2-esr310.exr,ReadingArea_rsl0-rcl25-esl310-rsm0-rcm2-esm100-rsr0-rcr2-esr310.npz,,,,,0,145,145,242,,right,red,2.96,984.8650979995728,985.234165906906,,2,,4,1,lightness,readingArea,realistic,75,2023-03-20_12h21.05.780,tripletExp_regina_11082022,2022.2.4,119.92017337702067,
13,4,0,0,0.111111111111111,3.10526315789474,0,0.694444444444444,0.298245614035088,0,0.027777777777778,0.298245614035088,ReadingArea_rsl0-rcl11-esl310-rsm0-rcm69-esm29-rsr0-rcr2-esr29,exr/ReadingArea_rsl0-rcl11-esl310-rsm0-rcm69-esm29-rsr0-rcr2-esr29.exr,ReadingArea_rsl0-rcl11-esl310-rsm0-rcm69-esm29-rsr0-rcr2-esr29.npz,,,,,0,146,146,269,,left,green,2.06,988.6982789039612,989.0664849281312,,2,,4,1,lightness,readingArea,realistic,75,2023-03-20_12h21.05.780,tripletExp_regina_11082022,2022.2.4,119.92017337702067,
2,5,14,0,0.25,0.298245614035088,0,1.0,0.298245614035088,0,0.25,3.10526315789474,ReadingArea_rsl0-rcl25-esl29-rsm0-rcm100-esm29-rsr0-rcr25-esr310,exr/ReadingArea_rsl0-rcl25-esl29-rsm0-rcm100-esm29-rsr0-rcr25-esr310.exr,ReadingArea_rsl0-rcl25-esl29-rsm0-rcm100-esm29-rsr0-rcr25-esr310.npz,,,,,0,147,147,390,,left,green,4.34,994.31649684906,994.701955795288,,2,,4,1,lightness,readingArea,realistic,75,2023-03-20_12h21.05.780,tripletExp_regina_11082022,2022.2.4,119.92017337702067,
14,2,1,0,0.25,3.10526315789474,0,0.25,0.298245614035088,0,0.111111111111111,0.298245614035088,ReadingArea_rsl0-rcl25-esl310-rsm0-rcm25-esm29-rsr0-rcr11-esr29,exr/ReadingArea_rsl0-rcl25-esl310-rsm0-rcm25-esm29-rsr0-rcr11-esr29.exr,ReadingArea_rsl0-rcl25-esl310-rsm0-rcm25-esm29-rsr0-rcr11-esr29.npz,,,,,0,148,148,321,,right,red,4.21,999.9480459690094,,,2,,4,1,lightness,readingArea,realistic,75,2023-03-20_12h21.05.780,tripletExp_regina_11082022,2022.2.4,119.92017337702067,
7,9,8,0,0.111111111111111,1.0,0,0.444444444444444,1.0,0,0.25,1.0,ReadingArea_rsl0-rcl11-esl100-rsm0-rcm44-esm100-rsr0-rcr25-esr100,exr/ReadingArea_rsl0-rcl11-esl100-rsm0-rcm44-esm100-rsr0-rcr25-esr100.exr,ReadingArea_rsl0-rcl11-esl100-rsm0-rcm44-esm100-rsr0-rcr25-esr100.npz,,,,,0,149,149,515,,right,red,4.44,1005.57474899292,1005.7804129123688,,2,,4,1,lightness,readingArea,realistic,75,2023-03-20_12h21.05.780,tripletExp_regina_11082022,2022.2.4,119.92017337702067,
8,10,6,0,0.25,1.0,0,0.694444444444444,1.0,0,0.027777777777778,1.0,ReadingArea_rsl0-rcl25-esl100-rsm0-rcm69-esm100-rsr0-rcr2-esr100,exr/ReadingArea_rsl0-rcl25-esl100-rsm0-rcm69-esm100-rsr0-rcr2-esr100.exr,ReadingArea_rsl0-rcl25-esl100-rsm0-rcm69-esm100-rsr0-rcr2-esr100.npz,,,,,0,150,150,129,,left,green,1.05,1023.3306188583374,1023.6951248645782,,3,,4,1,lightness,readingArea,realistic,75,2023-03-20_12h21.05.780,tripletExp_regina_11082022,2022.2.4,119.92017337702067,
7,8,3,0,0.111111111111111,1.0,0,0.25,1.0,0,0.444444444444444,0.298245614035088,ReadingArea_rsl0-rcl11-esl100-rsm0-rcm25-esm100-rsr0-rcr44-esr29,exr/ReadingArea_rsl0-rcl11-esl100-rsm0-rcm25-esm100-rsr0-rcr44-esr29.exr,ReadingArea_rsl0-rcl11-esl100-rsm0-rcm25-esm100-rsr0-rcr44-esr29.npz,,,,,0,151,151,459,,right,red,2.82,1027.190090894699,1027.5815608501434,,3,,4,1,lightness,readingArea,realistic,75,2023-03-20_12h21.05.780,tripletExp_regina_11082022,2022.2.4,119.92017337702067,
8,0,4,0,0.25,1.0,0,0.027777777777778,0.298245614035088,0,0.694444444444444,0.298245614035088,ReadingArea_rsl0-rcl25-esl100-rsm0-rcm2-esm29-rsr0-rcr69-esr29,exr/ReadingArea_rsl0-rcl25-esl100-rsm0-rcm2-esm29-rsr0-rcr69-esr29.exr,ReadingArea_rsl0-rcl25-esl100-rsm0-rcm2-esm29-rsr0-rcr69-esr29.npz,,,,,0,152,152,346,,left,green,2.87,1031.029719829559,1031.3958988189695,,3,,4,1,lightness,readingArea,realistic,75,2023-03-20_12h21.05.780,tripletExp_regina_11082022,2022.2.4,119.92017337702067,
0,8,7,0,0.027777777777778,0.298245614035088,0,0.25,1.0,0,0.111111111111111,1.0,ReadingArea_rsl0-rcl2-esl29-rsm0-rcm25-esm100-rsr0-rcr11-esr100,exr/ReadingArea_rsl0-rcl2-esl29-rsm0-rcm25-esm100-rsr0-rcr11-esr100.exr,ReadingArea_rsl0-rcl2-esl29-rsm0-rcm25-esm100-rsr0-rcr11-esr100.npz,,,,,0,153,153,9,,right,red,2.64,1034.8895688056946,1035.2639479637146,,3,,4,1,lightness,readingArea,realistic,75,2023-03-20_12h21.05.780,tripletExp_regina_11082022,2022.2.4,119.92017337702067,
14,3,2,0,0.25,3.10526315789474,0,0.444444444444444,0.298245614035088,0,0.25,0.298245614035088,ReadingArea_rsl0-rcl25-esl310-rsm0-rcm44-esm29-rsr0-rcr25-esr29,exr/ReadingArea_rsl0-rcl25-esl310-rsm0-rcm44-esm29-rsr0-rcr25-esr29.exr,ReadingArea_rsl0-rcl25-esl310-rsm0-rcm44-esm29-rsr0-rcr25-esr29.npz,,,,,0,154,154,52,,right,red,2.48,1038.738392829895,1039.1100709438324,,3,,4,1,lightness,readingArea,realistic,75,2023-03-20_12h21.05.780,tripletExp_regina_11082022,2022.2.4,119.92017337702067,
10,4,9,0,0.694444444444444,1.0,0,0.694444444444444,0.298245614035088,0,0.444444444444444,1.0,ReadingArea_rsl0-rcl69-esl100-rsm0-rcm69-esm29-rsr0-rcr44-esr100,exr/ReadingArea_rsl0-rcl69-esl100-rsm0-rcm69-esm29-rsr0-rcr44-esr100.exr,ReadingArea_rsl0-rcl69-esl100-rsm0-rcm69-esm29-rsr0-rcr44-esr100.npz,,,,,0,155,155,452,,right,red,3.14,1042.5967478752136,1042.9543268680573,,3,,4,1,lightness,readingArea,realistic,75,2023-03-20_12h21.05.780,tripletExp_regina_11082022,2022.2.4,119.92017337702067,
13,9,6,0,0.111111111111111,3.10526315789474,0,0.444444444444444,1.0,0,0.027777777777778,1.0,ReadingArea_rsl0-rcl11-esl310-rsm0-rcm44-esm100-rsr0-rcr2-esr100,exr/ReadingArea_rsl0-rcl11-esl310-rsm0-rcm44-esm100-rsr0-rcr2-esr100.exr,ReadingArea_rsl0-rcl11-esl310-rsm0-rcm44-esm100-rsr0-rcr2-esr100.npz,,,,,0,156,156,19,,left,green,1.84,1046.4295809268951,,,3,,4,1,lightness,readingArea,realistic,75,2023-03-20_12h21.05.780,tripletExp_regina_11082022,2022.2.4,119.92017337702067,
13,9,4,0,0.111111111111111,3.10526315789474,0,0.444444444444444,1.0,0,0.694444444444444,0.298245614035088,ReadingArea_rsl0-rcl11-esl310-rsm0-rcm44-esm100-rsr0-rcr69-esr29,exr/ReadingArea_rsl0-rcl11-esl310-rsm0-rcm44-esm100-rsr0-rcr69-esr29.exr,ReadingArea_rsl0-rcl11-esl310-rsm0-rcm44-esm100-rsr0-rcr69-esr29.npz,,,,,0,157,157,444,,right,red,4.32,1052.0641269683838,,,3,,4,1,lightness,readingArea,realistic,75,2023-03-20_12h21.05.780,tripletExp_regina_11082022,2022.2.4,119.92017337702067,
4,11,12,0,0.694444444444444,0.298245614035088,0,1.0,1.0,0,0.027777777777778,3.10526315789474,ReadingArea_rsl0-rcl69-esl29-rsm0-rcm100-esm100-rsr0-rcr2-esr310,exr/ReadingArea_rsl0-rcl69-esl29-rsm0-rcm100-esm100-rsr0-rcr2-esr310.exr,ReadingArea_rsl0-rcl69-esl29-rsm0-rcm100-esm100-rsr0-rcr2-esr310.npz,,,,,0,158,158,109,,left,green,2.41,1056.0589299201963,1056.429067850113,,3,,4,1,lightness,readingArea,realistic,75,2023-03-20_12h21.05.780,tripletExp_regina_11082022,2022.2.4,119.92017337702067,
7,13,5,0,0.111111111111111,1.0,0,0.111111111111111,3.10526315789474,0,1.0,0.298245614035088,ReadingArea_rsl0-rcl11-esl100-rsm0-rcm11-esm310-rsr0-rcr100-esr29,exr/ReadingArea_rsl0-rcl11-esl100-rsm0-rcm11-esm310-rsr0-rcr100-esr29.exr,ReadingArea_rsl0-rcl11-esl100-rsm0-rcm11-esm310-rsr0-rcr100-esr29.npz,,,,,0,159,159,332,,right,red,2.07,1059.8986418247223,,,3,,4,1,lightness,readingArea,realistic,75,2023-03-20_12h21.05.780,tripletExp_regina_11082022,2022.2.4,119.92017337702067,
11,14,2,0,1.0,1.0,0,0.25,3.10526315789474,0,0.25,0.298245614035088,ReadingArea_rsl0-rcl100-esl100-rsm0-rcm25-esm310-rsr0-rcr25-esr29,exr/ReadingArea_rsl0-rcl100-esl100-rsm0-rcm25-esm310-rsr0-rcr25-esr29.exr,ReadingArea_rsl0-rcl100-esl100-rsm0-rcm25-esm310-rsr0-rcr25-esr29.npz,,,,,0,160,160,419,,left,green,2.64,1063.7534618377686,1064.1265149116516,,3,,4,1,lightness,readingArea,realistic,75,2023-03-20_12h21.05.780,tripletExp_regina_11082022,2022.2.4,119.92017337702067,
0,9,6,0,0.027777777777778,0.298245614035088,0,0.444444444444444,1.0,0,0.027777777777778,1.0,ReadingArea_rsl0-rcl2-esl29-rsm0-rcm44-esm100-rsr0-rcr2-esr100,exr/ReadingArea_rsl0-rcl2-esl29-rsm0-rcm44-esm100-rsr0-rcr2-esr100.exr,ReadingArea_rsl0-rcl2-esl29-rsm0-rcm44-esm100-rsr0-rcr2-esr100.npz,,,,,0,161,161,365,,right,red,4.77,1069.373783826828,1069.7555549144745,,3,,4,1,lightness,readingArea,realistic,75,2023-03-20_12h21.05.780,tripletExp_regina_11082022,2022.2.4,119.92017337702067,
4,2,13,0,0.694444444444444,0.298245614035088,0,0.25,0.298245614035088,0,0.111111111111111,3.10526315789474,ReadingArea_rsl0-rcl69-esl29-rsm0-rcm25-esm29-rsr0-rcr11-esr310,exr/ReadingArea_rsl0-rcl69-esl29-rsm0-rcm25-esm29-rsr0-rcr11-esr310.exr,ReadingArea_rsl0-rcl69-esl29-rsm0-rcm25-esm29-rsr0-rcr11-esr310.npz,,,,,0,162,162,304,,left,green,4.31,1075.0222029685974,1075.3783597946167,,3,,4,1,lightness,readingArea,realistic,75,2023-03-20_12h21.05.780,tripletExp_regina_11082022,2022.2.4,119.92017337702067,
0,8,9,0,0.027777777777778,0.298245614035088,0,0.25,1.0,0,0.444444444444444,1.0,ReadingArea_rsl0-rcl2-esl29-rsm0-rcm25-esm100-rsr0-rcr44-esr100,exr/ReadingArea_rsl0-rcl2-esl29-rsm0-rcm25-esm100-rsr0-rcr44-esr100.exr,ReadingArea_rsl0-rcl2-esl29-rsm0-rcm25-esm100-rsr0-rcr44-esr100.npz,,,,,0,163,163,541,,right,red,2.52,1078.8540589809418,1079.2244279384613,,3,,4,1,lightness,readingArea,realistic,75,2023-03-20_12h21.05.780,tripletExp_regina_11082022,2022.2.4,119.92017337702067,
7,8,12,0,0.111111111111111,1.0,0,0.25,1.0,0,0.027777777777778,3.10526315789474,ReadingArea_rsl0-rcl11-esl100-rsm0-rcm25-esm100-rsr0-rcr2-esr310,exr/ReadingArea_rsl0-rcl11-esl100-rsm0-rcm25-esm100-rsr0-rcr2-esr310.exr,ReadingArea_rsl0-rcl11-esl100-rsm0-rcm25-esm100-rsr0-rcr2-esr310.npz,,,,,0,164,164,271,,left,green,4.08,1084.4747018814087,1084.843889951706,,3,,4,1,lightness,readingArea,realistic,75,2023-03-20_12h21.05.780,tripletExp_regina_11082022,2022.2.4,119.92017337702067,
4,0,1,0,0.694444444444444,0.298245614035088,0,0.027777777777778,0.298245614035088,0,0.111111111111111,0.298245614035088,ReadingArea_rsl0-rcl69-esl29-rsm0-rcm2-esm29-rsr0-rcr11-esr29,exr/ReadingArea_rsl0-rcl69-esl29-rsm0-rcm2-esm29-rsr0-rcr11-esr29.exr,ReadingArea_rsl0-rcl69-esl29-rsm0-rcm2-esm29-rsr0-rcr11-esr29.npz,,,,,0,165,165,173,,right,red,4.08,1090.0966968536377,1090.5722608566284,,3,,4,1,lightness,readingArea,realistic,75,2023-03-20_12h21.05.780,tripletExp_regina_11082022,2022.2.4,119.92017337702067,
9,3,14,0,0.444444444444444,1.0,0,0.444444444444444,0.298245614035088,0,0.25,3.10526315789474,ReadingArea_rsl0-rcl44-esl100-rsm0-rcm44-esm29-rsr0-rcr25-esr310,exr/ReadingArea_rsl0-rcl44-esl100-rsm0-rcm44-esm29-rsr0-rcr25-esr310.exr,ReadingArea_rsl0-rcl44-esl100-rsm0-rcm44-esm29-rsr0-rcr25-esr310.npz,,,,,0,166,166,17,,left,green,2.14,1094.0715928077698,1094.4446358680725,,3,,4,1,lightness,readingArea,realistic,75,2023-03-20_12h21.05.780,tripletExp_regina_11082022,2022.2.4,119.92017337702067,
10,3,11,0,0.694444444444444,1.0,0,0.444444444444444,0.298245614035088,0,1.0,1.0,ReadingArea_rsl0-rcl69-esl100-rsm0-rcm44-esm29-rsr0-rcr100-esr100,exr/ReadingArea_rsl0-rcl69-esl100-rsm0-rcm44-esm29-rsr0-rcr100-esr100.exr,ReadingArea_rsl0-rcl69-esl100-rsm0-rcm44-esm29-rsr0-rcr100-esr100.npz,,,,,0,167,167,485,,left,green,4.25,1099.679655790329,,,3,,4,1,lightness,readingArea,realistic,75,2023-03-20_12h21.05.780,tripletExp_regina_11082022,2022.2.4,119.92017337702067,
13,4,12,0,0.111111111111111,3.10526315789474,0,0.694444444444444,0.298245614035088,0,0.027777777777778,3.10526315789474,ReadingArea_rsl0-rcl11-esl310-rsm0-rcm69-esm29-rsr0-rcr2-esr310,exr/ReadingArea_rsl0-rcl11-esl310-rsm0-rcm69-esm29-rsr0-rcr2-esr310.exr,ReadingArea_rsl0-rcl11-esl310-rsm0-rcm69-esm29-rsr0-rcr2-esr310.npz,,,,,0,168,168,122,,left,green,2.88,1103.5053629875183,,,3,,4,1,lightness,readingArea,realistic,75,2023-03-20_12h21.05.780,tripletExp_regina_11082022,2022.2.4,119.92017337702067,
8,13,2,0,0.25,1.0,0,0.111111111111111,3.10526315789474,0,0.25,0.298245614035088,ReadingArea_rsl0-rcl25-esl100-rsm0-rcm11-esm310-rsr0-rcr25-esr29,exr/ReadingArea_rsl0-rcl25-esl100-rsm0-rcm11-esm310-rsr0-rcr25-esr29.exr,ReadingArea_rsl0-rcl25-esl100-rsm0-rcm11-esm310-rsr0-rcr25-esr29.npz,,,,,0,169,169,376,,left,green,1.54,1105.5722107887268,,,3,,4,1,lightness,readingArea,realistic,75,2023-03-20_12h21.05.780,tripletExp_regina_11082022,2022.2.4,119.92017337702067,
5,0,10,0,1.0,0.298245614035088,0,0.027777777777778,0.298245614035088,0,0.694444444444444,1.0,ReadingArea_rsl0-rcl100-esl29-rsm0-rcm2-esm29-rsr0-rcr69-esr100,exr/ReadingArea_rsl0-rcl100-esl29-rsm0-rcm2-esm29-rsr0-rcr69-esr100.exr,ReadingArea_rsl0-rcl100-esl29-rsm0-rcm2-esm29-rsr0-rcr69-esr100.npz,,,,,0,170,170,361,,left,green,2.74,1109.511029958725,1109.8831918239594,,3,,4,1,lightness,readingArea,realistic,75,2023-03-20_12h21.05.780,tripletExp_regina_11082022,2022.2.4,119.92017337702067,
14,6,2,0,0.25,3.10526315789474,0,0.027777777777778,1.0,0,0.25,0.298245614035088,ReadingArea_rsl0-rcl25-esl310-rsm0-rcm2-esm100-rsr0-rcr25-esr29,exr/ReadingArea_rsl0-rcl25-esl310-rsm0-rcm2-esm100-rsr0-rcr25-esr29.exr,ReadingArea_rsl0-rcl25-esl310-rsm0-rcm2-esm100-rsr0-rcr25-esr29.npz,,,,,0,171,171,272,,right,red,2.34,1113.3544759750366,1113.723361968994,,3,,4,1,lightness,readingArea,realistic,75,2023-03-20_12h21.05.780,tripletExp_regina_11082022,2022.2.4,119.92017337702067,
7,2,0,0,0.111111111111111,1.0,0,0.25,0.298245614035088,0,0.027777777777778,0.298245614035088,ReadingArea_rsl0-rcl11-esl100-rsm0-rcm25-esm29-rsr0-rcr2-esr29,exr/ReadingArea_rsl0-rcl11-esl100-rsm0-rcm25-esm29-rsr0-rcr2-esr29.exr,ReadingArea_rsl0-rcl11-esl100-rsm0-rcm25-esm29-rsr0-rcr2-esr29.npz,,,,,0,172,172,520,,left,green,2.29,1117.2085509300232,1117.593426942825,,3,,4,1,lightness,readingArea,realistic,75,2023-03-20_12h21.05.780,tripletExp_regina_11082022,2022.2.4,119.92017337702067,
11,5,2,0,1.0,1.0,0,1.0,0.298245614035088,0,0.25,0.298245614035088,ReadingArea_rsl0-rcl100-esl100-rsm0-rcm100-esm29-rsr0-rcr25-esr29,exr/ReadingArea_rsl0-rcl100-esl100-rsm0-rcm100-esm29-rsr0-rcr25-esr29.exr,ReadingArea_rsl0-rcl100-esl100-rsm0-rcm100-esm29-rsr0-rcr25-esr29.npz,,,,,0,173,173,596,,right,red,3.08,1121.082736968994,1121.438687801361,,3,,4,1,lightness,readingArea,realistic,75,2023-03-20_12h21.05.780,tripletExp_regina_11082022,2022.2.4,119.92017337702067,
3,14,5,0,0.444444444444444,0.298245614035088,0,0.25,3.10526315789474,0,1.0,0.298245614035088,ReadingArea_rsl0-rcl44-esl29-rsm0-rcm25-esm310-rsr0-rcr100-esr29,exr/ReadingArea_rsl0-rcl44-esl29-rsm0-rcm25-esm310-rsr0-rcr100-esr29.exr,ReadingArea_rsl0-rcl44-esl29-rsm0-rcm25-esm310-rsr0-rcr100-esr29.npz,,,,,0,174,174,131,,right,red,3.0,1124.9334387779236,,,3,,4,1,lightness,readingArea,realistic,75,2023-03-20_12h21.05.780,tripletExp_regina_11082022,2022.2.4,119.92017337702067,
14,2,6,0,0.25,3.10526315789474,0,0.25,0.298245614035088,0,0.027777777777778,1.0,ReadingArea_rsl0-rcl25-esl310-rsm0-rcm25-esm29-rsr0-rcr2-esr100,exr/ReadingArea_rsl0-rcl25-esl310-rsm0-rcm25-esm29-rsr0-rcr2-esr100.exr,ReadingArea_rsl0-rcl25-esl310-rsm0-rcm25-esm29-rsr0-rcr2-esr100.npz,,,,,0,175,175,350,,right,red,4.46,1130.5619549751282,1130.9234609603882,,3,,4,1,lightness,readingArea,realistic,75,2023-03-20_12h21.05.780,tripletExp_regina_11082022,2022.2.4,119.92017337702067,
8,1,3,0,0.25,1.0,0,0.111111111111111,0.298245614035088,0,0.444444444444444,0.298245614035088,ReadingArea_rsl0-rcl25-esl100-rsm0-rcm11-esm29-rsr0-rcr44-esr29,exr/ReadingArea_rsl0-rcl25-esl100-rsm0-rcm11-esm29-rsr0-rcr44-esr29.exr,ReadingArea_rsl0-rcl25-esl100-rsm0-rcm11-esm29-rsr0-rcr44-esr29.npz,,,,,0,176,176,490,,right,red,4.38,1136.1455628871918,1136.6448137760162,,3,,4,1,lightness,readingArea,realistic,75,2023-03-20_12h21.05.780,tripletExp_regina_11082022,2022.2.4,119.92017337702067,
11,8,0,0,1.0,1.0,0,0.25,1.0,0,0.027777777777778,0.298245614035088,ReadingArea_rsl0-rcl100-esl100-rsm0-rcm25-esm100-rsr0-rcr2-esr29,exr/ReadingArea_rsl0-rcl100-esl100-rsm0-rcm25-esm100-rsr0-rcr2-esr29.exr,ReadingArea_rsl0-rcl100-esl100-rsm0-rcm25-esm100-rsr0-rcr2-esr29.npz,,,,,0,177,177,81,,right,red,4.43,1141.9083898067474,1142.2853507995603,,3,,4,1,lightness,readingArea,realistic,75,2023-03-20_12h21.05.780,tripletExp_regina_11082022,2022.2.4,119.92017337702067,
9,0,14,0,0.444444444444444,1.0,0,0.027777777777778,0.298245614035088,0,0.25,3.10526315789474,ReadingArea_rsl0-rcl44-esl100-rsm0-rcm2-esm29-rsr0-rcr25-esr310,exr/ReadingArea_rsl0-rcl44-esl100-rsm0-rcm2-esm29-rsr0-rcr25-esr310.exr,ReadingArea_rsl0-rcl44-esl100-rsm0-rcm2-esm29-rsr0-rcr25-esr310.npz,,,,,0,178,178,550,,left,green,3.62,1147.5060319900513,1147.8993039131165,,3,,4,1,lightness,readingArea,realistic,75,2023-03-20_12h21.05.780,tripletExp_regina_11082022,2022.2.4,119.92017337702067,
9,11,13,0,0.444444444444444,1.0,0,1.0,1.0,0,0.111111111111111,3.10526315789474,ReadingArea_rsl0-rcl44-esl100-rsm0-rcm100-esm100-rsr0-rcr11-esr310,exr/ReadingArea_rsl0-rcl44-esl100-rsm0-rcm100-esm100-rsr0-rcr11-esr310.exr,ReadingArea_rsl0-rcl44-esl100-rsm0-rcm100-esm100-rsr0-rcr11-esr310.npz,,,,,0,179,179,254,,right,red,2.93,1151.379987001419,,,3,,4,1,lightness,readingArea,realistic,75,2023-03-20_12h21.05.780,tripletExp_regina_11082022,2022.2.4,119.92017337702067,
12,5,4,0,0.027777777777778,3.10526315789474,0,1.0,0.298245614035088,0,0.694444444444444,0.298245614035088,ReadingArea_rsl0-rcl2-esl310-rsm0-rcm100-esm29-rsr0-rcr69-esr29,exr/ReadingArea_rsl0-rcl2-esl310-rsm0-rcm100-esm29-rsr0-rcr69-esr29.exr,ReadingArea_rsl0-rcl2-esl310-rsm0-rcm100-esm29-rsr0-rcr69-esr29.npz,,,,,0,180,180,566,,right,red,2.57,1155.232908964157,1155.6088500022888,,3,,4,1,lightness,readingArea,realistic,75,2023-03-20_12h21.05.780,tripletExp_regina_11082022,2022.2.4,119.92017337702067,
12,2,9,0,0.027777777777778,3.10526315789474,0,0.25,0.298245614035088,0,0.444444444444444,1.0,ReadingArea_rsl0-rcl2-esl310-rsm0-rcm25-esm29-rsr0-rcr44-esr100,exr/ReadingArea_rsl0-rcl2-esl310-rsm0-rcm25-esm29-rsr0-rcr44-esr100.exr,ReadingArea_rsl0-rcl2-esl310-rsm0-rcm25-esm29-rsr0-rcr44-esr100.npz,,,,,0,181,181,495,,left,green,1.53,1157.3124799728394,1157.749647855759,,3,,4,1,lightness,readingArea,realistic,75,2023-03-20_12h21.05.780,tripletExp_regina_11082022,2022.2.4,119.92017337702067,
14,6,13,0,0.25,3.10526315789474,0,0.027777777777778,1.0,0,0.111111111111111,3.10526315789474,ReadingArea_rsl0-rcl25-esl310-rsm0-rcm2-esm100-rsr0-rcr11-esr310,exr/ReadingArea_rsl0-rcl25-esl310-rsm0-rcm2-esm100-rsr0-rcr11-esr310.exr,ReadingArea_rsl0-rcl25-esl310-rsm0-rcm2-esm100-rsr0-rcr11-esr310.npz,,,,,0,182,182,91,,right,red,3.49,1161.23410987854,1161.5936059951782,,3,,4,1,lightness,readingArea,realistic,75,2023-03-20_12h21.05.780,tripletExp_regina_11082022,2022.2.4,119.92017337702067,
8,14,3,0,0.25,1.0,0,0.25,3.10526315789474,0,0.444444444444444,0.298245614035088,ReadingArea_rsl0-rcl25-esl100-rsm0-rcm25-esm310-rsr0-rcr44-esr29,exr/ReadingArea_rsl0-rcl25-esl100-rsm0-rcm25-esm310-rsr0-rcr44-esr29.exr,ReadingArea_rsl0-rcl25-esl100-rsm0-rcm25-esm310-rsr0-rcr44-esr29.npz,,,,,0,183,183,503,,left,green,2.87,1165.0863058567047,1165.4570598602295,,3,,4,1,lightness,readingArea,realistic,75,2023-03-20_12h21.05.780,tripletExp_regina_11082022,2022.2.4,119.92017337702067,
10,5,4,0,0.694444444444444,1.0,0,1.0,0.298245614035088,0,0.694444444444444,0.298245614035088,ReadingArea_rsl0-rcl69-esl100-rsm0-rcm100-esm29-rsr0-rcr69-esr29,exr/ReadingArea_rsl0-rcl69-esl100-rsm0-rcm100-esm29-rsr0-rcr69-esr29.exr,ReadingArea_rsl0-rcl69-esl100-rsm0-rcm100-esm29-rsr0-rcr69-esr29.npz,,,,,0,184,184,455,,right,red,2.12,1168.9309918880465,1169.310052871704,,3,,4,1,lightness,readingArea,realistic,75,2023-03-20_12h21.05.780,tripletExp_regina_11082022,2022.2.4,119.92017337702067,
14,2,7,0,0.25,3.10526315789474,0,0.25,0.298245614035088,0,0.111111111111111,1.0,ReadingArea_rsl0-rcl25-esl310-rsm0-rcm25-esm29-rsr0-rcr11-esr100,exr/ReadingArea_rsl0-rcl25-esl310-rsm0-rcm25-esm29-rsr0-rcr11-esr100.exr,ReadingArea_rsl0-rcl25-esl310-rsm0-rcm25-esm29-rsr0-rcr11-esr100.npz,,,,,0,185,185,569,,right,red,2.1,1172.7947328090668,1173.1723909378052,,3,,4,1,lightness,readingArea,realistic,75,2023-03-20_12h21.05.780,tripletExp_regina_11082022,2022.2.4,119.92017337702067,
5,13,12,0,1.0,0.298245614035088,0,0.111111111111111,3.10526315789474,0,0.027777777777778,3.10526315789474,ReadingArea_rsl0-rcl100-esl29-rsm0-rcm11-esm310-rsr0-rcr2-esr310,exr/ReadingArea_rsl0-rcl100-esl29-rsm0-rcm11-esm310-rsr0-rcr2-esr310.exr,ReadingArea_rsl0-rcl100-esl29-rsm0-rcm11-esm310-rsr0-rcr2-esr310.npz,,,,,0,186,186,389,,left,green,1.55,1174.867215871811,1175.2421898841858,,3,,4,1,lightness,readingArea,realistic,75,2023-03-20_12h21.05.780,tripletExp_regina_11082022,2022.2.4,119.92017337702067,
4,1,9,0,0.694444444444444,0.298245614035088,0,0.111111111111111,0.298245614035088,0,0.444444444444444,1.0,ReadingArea_rsl0-rcl69-esl29-rsm0-rcm11-esm29-rsr0-rcr44-esr100,exr/ReadingArea_rsl0-rcl69-esl29-rsm0-rcm11-esm29-rsr0-rcr44-esr100.exr,ReadingArea_rsl0-rcl69-esl29-rsm0-rcm11-esm29-rsr0-rcr44-esr100.npz,,,,,0,187,187,7,,left,green,4.38,1180.4944908618927,1180.8554759025574,,3,,4,1,lightness,readingArea,realistic,75,2023-03-20_12h21.05.780,tripletExp_regina_11082022,2022.2.4,119.92017337702067,
13,14,7,0,0.111111111111111,3.10526315789474,0,0.25,3.10526315789474,0,0.111111111111111,1.0,ReadingArea_rsl0-rcl11-esl310-rsm0-rcm25-esm310-rsr0-rcr11-esr100,exr/ReadingArea_rsl0-rcl11-esl310-rsm0-rcm25-esm310-rsr0-rcr11-esr100.exr,ReadingArea_rsl0-rcl11-esl310-rsm0-rcm25-esm310-rsr0-rcr11-esr100.npz,,,,,0,188,188,324,,left,green,4.57,1186.1109709739685,1186.596196889877,,3,,4,1,lightness,readingArea,realistic,75,2023-03-20_12h21.05.780,tripletExp_regina_11082022,2022.2.4,119.92017337702067,
7,5,1,0,0.111111111111111,1.0,0,1.0,0.298245614035088,0,0.111111111111111,0.298245614035088,ReadingArea_rsl0-rcl11-esl100-rsm0-rcm100-esm29-rsr0-rcr11-esr29,exr/ReadingArea_rsl0-rcl11-esl100-rsm0-rcm100-esm29-rsr0-rcr11-esr29.exr,ReadingArea_rsl0-rcl11-esl100-rsm0-rcm100-esm29-rsr0-rcr11-esr29.npz,,,,,0,189,189,513,,left,green,2.92,1190.0954978466034,1190.469232797623,,3,,4,1,lightness,readingArea,realistic,75,2023-03-20_12h21.05.780,tripletExp_regina_11082022,2022.2.4,119.92017337702067,
7,14,11,0,0.111111111111111,1.0,0,0.25,3.10526315789474,0,1.0,1.0,ReadingArea_rsl0-rcl11-esl100-rsm0-rcm25-esm310-rsr0-rcr100-esr100,exr/ReadingArea_rsl0-rcl11-esl100-rsm0-rcm25-esm310-rsr0-rcr100-esr100.exr,ReadingArea_rsl0-rcl11-esl100-rsm0-rcm25-esm310-rsr0-rcr100-esr100.npz,,,,,0,190,190,252,,right,red,3.05,1193.9395978450775,1194.310909986496,,3,,4,1,lightness,readingArea,realistic,75,2023-03-20_12h21.05.780,tripletExp_regina_11082022,2022.2.4,119.92017337702067,
8,9,2,0,0.25,1.0,0,0.444444444444444,1.0,0,0.25,0.298245614035088,ReadingArea_rsl0-rcl25-esl100-rsm0-rcm44-esm100-rsr0-rcr25-esr29,exr/ReadingArea_rsl0-rcl25-esl100-rsm0-rcm44-esm100-rsr0-rcr25-esr29.exr,ReadingArea_rsl0-rcl25-esl100-rsm0-rcm44-esm100-rsr0-rcr25-esr29.npz,,,,,0,191,191,559,,left,green,2.46,1197.7861559391022,1198.137844800949,,3,,4,1,lightness,readingArea,realistic,75,2023-03-20_12h21.05.780,tripletExp_regina_11082022,2022.2.4,119.92017337702067,
1,9,8,0,0.111111111111111,0.298245614035088,0,0.444444444444444,1.0,0,0.25,1.0,ReadingArea_rsl0-rcl11-esl29-rsm0-rcm44-esm100-rsr0-rcr25-esr100,exr/ReadingArea_rsl0-rcl11-esl29-rsm0-rcm44-esm100-rsr0-rcr25-esr100.exr,ReadingArea_rsl0-rcl11-esl29-rsm0-rcm44-esm100-rsr0-rcr25-esr100.npz,,,,,0,192,192,268,,right,red,2.93,1201.6126899719238,,,3,,4,1,lightness,readingArea,realistic,75,2023-03-20_12h21.05.780,tripletExp_regina_11082022,2022.2.4,119.92017337702067,
14,3,6,0,0.25,3.10526315789474,0,0.444444444444444,0.298245614035088,0,0.027777777777778,1.0,ReadingArea_rsl0-rcl25-esl310-rsm0-rcm44-esm29-rsr0-rcr2-esr100,exr/ReadingArea_rsl0-rcl25-esl310-rsm0-rcm44-esm29-rsr0-rcr2-esr100.exr,ReadingArea_rsl0-rcl25-esl310-rsm0-rcm44-esm29-rsr0-rcr2-esr100.npz,,,,,0,193,193,244,,,red,2.93,1207.2277817726135,1207.595555782318,,3,1206.930746722221,4,1,lightness,readingArea,realistic,75,2023-03-20_12h21.05.780,tripletExp_regina_11082022,2022.2.4,119.92017337702067,
5,3,6,0,1.0,0.298245614035088,0,0.444444444444444,0.298245614035088,0,0.027777777777778,1.0,ReadingArea_rsl0-rcl100-esl29-rsm0-rcm44-esm29-rsr0-rcr2-esr100,exr/ReadingArea_rsl0-rcl100-esl29-rsm0-rcm44-esm29-rsr0-rcr2-esr100.exr,ReadingArea_rsl0-rcl100-esl29-rsm0-rcm44-esm29-rsr0-rcr2-esr100.npz,,,,,0,194,194,316,,left,green,2.08,1211.052985906601,1211.408452987671,,3,,4,1,lightness,readingArea,realistic,75,2023-03-20_12h21.05.780,tripletExp_regina_11082022,2022.2.4,119.92017337702067,
9,6,14,0,0.444444444444444,1.0,0,0.027777777777778,1.0,0,0.25,3.10526315789474,ReadingArea_rsl0-rcl44-esl100-rsm0-rcm2-esm100-rsr0-rcr25-esr310,exr/ReadingArea_rsl0-rcl44-esl100-rsm0-rcm2-esm100-rsr0-rcr25-esr310.exr,ReadingArea_rsl0-rcl44-esl100-rsm0-rcm2-esm100-rsr0-rcr25-esr310.npz,,,,,0,195,195,213,,left,green,2.6,1214.8528399467468,1215.21160697937,,3,,4,1,lightness,readingArea,realistic,75,2023-03-20_12h21.05.780,tripletExp_regina_11082022,2022.2.4,119.92017337702067,
11,3,12,0,1.0,1.0,0,0.444444444444444,0.298245614035088,0,0.027777777777778,3.10526315789474,ReadingArea_rsl0-rcl100-esl100-rsm0-rcm44-esm29-rsr0-rcr2-esr310,exr/ReadingArea_rsl0-rcl100-esl100-rsm0-rcm44-esm29-rsr0-rcr2-esr310.exr,ReadingArea_rsl0-rcl100-esl100-rsm0-rcm44-esm29-rsr0-rcr2-esr310.npz,,,,,0,196,196,355,,right,red,2.43,1218.684297800064,1219.06902384758,,3,,4,1,lightness,readingArea,realistic,75,2023-03-20_12h21.05.780,tripletExp_regina_11082022,2022.2.4,119.92017337702067,
2,6,13,0,0.25,0.298245614035088,0,0.027777777777778,1.0,0,0.111111111111111,3.10526315789474,ReadingArea_rsl0-rcl25-esl29-rsm0-rcm2-esm100-rsr0-rcr11-esr310,exr/ReadingArea_rsl0-rcl25-esl29-rsm0-rcm2-esm100-rsr0-rcr11-esr310.exr,ReadingArea_rsl0-rcl25-esl29-rsm0-rcm2-esm100-rsr0-rcr11-esr310.npz,,,,,0,197,197,388,,left,green,3.88,1224.3580558300018,,,3,,4,1,lightness,readingArea,realistic,75,2023-03-20_12h21.05.780,tripletExp_regina_11082022,2022.2.4,119.92017337702067,
12,13,7,0,0.027777777777778,3.10526315789474,0,0.111111111111111,3.10526315789474,0,0.111111111111111,1.0,ReadingArea_rsl0-rcl2-esl310-rsm0-rcm11-esm310-rsr0-rcr11-esr100,exr/ReadingArea_rsl0-rcl2-esl310-rsm0-rcm11-esm310-rsr0-rcr11-esr100.exr,ReadingArea_rsl0-rcl2-esl310-rsm0-rcm11-esm310-rsr0-rcr11-esr100.npz,,,,,0,198,198,408,,left,green,4.15,1230.0021028518677,1230.3649818897247,,3,,4,1,lightness,readingArea,realistic,75,2023-03-20_12h21.05.780,tripletExp_regina_11082022,2022.2.4,119.92017337702067,
0,14,11,0,0.027777777777778,0.298245614035088,0,0.25,3.10526315789474,0,1.0,1.0,ReadingArea_rsl0-rcl2-esl29-rsm0-rcm25-esm310-rsr0-rcr100-esr100,exr/ReadingArea_rsl0-rcl2-esl29-rsm0-rcm25-esm310-rsr0-rcr100-esr100.exr,ReadingArea_rsl0-rcl2-esl29-rsm0-rcm25-esm310-rsr0-rcr100-esr100.npz,,,,,0,199,199,557,,right,red,1.62,1232.081575870514,1232.4547147750854,,3,,4,1,lightness,readingArea,realistic,75,2023-03-20_12h21.05.780,tripletExp_regina_11082022,2022.2.4,119.92017337702067,
10,7,4,0,0.694444444444444,1.0,0,0.111111111111111,1.0,0,0.694444444444444,0.298245614035088,ReadingArea_rsl0-rcl69-esl100-rsm0-rcm11-esm100-rsr0-rcr69-esr29,exr/ReadingArea_rsl0-rcl69-esl100-rsm0-rcm11-esm100-rsr0-rcr69-esr29.exr,ReadingArea_rsl0-rcl69-esl100-rsm0-rcm11-esm100-rsr0-rcr69-esr29.npz,,,,,0,200,200,223,,right,red,1.35,1234.168557882309,1234.5461030006409,,3,,4,1,lightness,readingArea,realistic,75,2023-03-20_12h21.05.780,tripletExp_regina_11082022,2022.2.4,119.92017337702067,
1,0,4,0,0.111111111111111,0.298245614035088,0,0.027777777777778,0.298245614035088,0,0.694444444444444,0.298245614035088,ReadingArea_rsl0-rcl11-esl29-rsm0-rcm2-esm29-rsr0-rcr69-esr29,exr/ReadingArea_rsl0-rcl11-esl29-rsm0-rcm2-esm29-rsr0-rcr69-esr29.exr,ReadingArea_rsl0-rcl11-esl29-rsm0-rcm2-esm29-rsr0-rcr69-esr29.npz,,,,,0,201,201,494,,left,green,1.5,1236.2595179080963,,,3,,4,1,lightness,readingArea,realistic,75,2023-03-20_12h21.05.780,tripletExp_regina_11082022,2022.2.4,119.92017337702067,
10,6,3,0,0.694444444444444,1.0,0,0.027777777777778,1.0,0,0.444444444444444,0.298245614035088,ReadingArea_rsl0-rcl69-esl100-rsm0-rcm2-esm100-rsr0-rcr44-esr29,exr/ReadingArea_rsl0-rcl69-esl100-rsm0-rcm2-esm100-rsr0-rcr44-esr29.exr,ReadingArea_rsl0-rcl69-esl100-rsm0-rcm2-esm100-rsr0-rcr44-esr29.npz,,,,,0,202,202,0,,right,red,2.45,1240.1189789772034,,,3,,4,1,lightness,readingArea,realistic,75,2023-03-20_12h21.05.780,tripletExp_regina_11082022,2022.2.4,119.92017337702067,
13,11,7,0,0.111111111111111,3.10526315789474,0,1.0,1.0,0,0.111111111111111,1.0,ReadingArea_rsl0-rcl11-esl310-rsm0-rcm100-esm100-rsr0-rcr11-esr100,exr/ReadingArea_rsl0-rcl11-esl310-rsm0-rcm100-esm100-rsr0-rcr11-esr100.exr,ReadingArea_rsl0-rcl11-esl310-rsm0-rcm100-esm100-rsr0-rcr11-esr100.npz,,,,,0,203,203,590,,left,green,2.43,1243.9810647964478,1244.372817993164,,3,,4,1,lightness,readingArea,realistic,75,2023-03-20_12h21.05.780,tripletExp_regina_11082022,2022.2.4,119.92017337702067,
