index_left,index_middle,index_right,reflectance_surround_left,reflectance_center_left,emission_spot_left,reflectance_surround_middle,reflectance_center_middle,emission_spot_middle,reflectance_surround_right,reflectance_center_right,emission_spot_right,ImageName,ImageExr,ImageNpy,trials_2.thisRepN,trials_2.thisTrialN,trials_2.thisN,trials_2.thisIndex,trials.thisRepN,trials.thisTrialN,trials.thisN,trials.thisIndex,sound_1.started,BB_Trial.resp,BB_Trial.color,BB_Trial.rt,text.started,text.stopped,sound_1.stopped,block,participant,session,L/B,scene,condition,nTrialsPerBlock,date,expName,psychopyVersion,frameRate,Unnamed: 41
7,8,11,2,0.111111111111111,1.0,2,0.25,1.0,2,1.0,1.0,ReadingArea_rsl2-rcl11-esl100-rsm2-rcm25-esm100-rsr2-rcr100-esr100,exr/ReadingArea_rsl2-rcl11-esl100-rsm2-rcm25-esm100-rsr2-rcr100-esr100.exr,ReadingArea_rsl2-rcl11-esl100-rsm2-rcm25-esm100-rsr2-rcr100-esr100.npz,,,,,0,0,0,363,126.41283321380617,left,green,1.09,149.53600811958313,125.0408251285553,66.2311499118805,1,6,6,lightness,readingArea,realistic,75,2023-03-23_17h31.32.846,tripletExp_regina_11082022,2022.2.4,119.76197818514076,
13,10,3,2,0.111111111111111,3.10526315789474,2,0.694444444444444,1.0,2,0.444444444444444,0.298245614035088,ReadingArea_rsl2-rcl11-esl310-rsm2-rcm69-esm100-rsr2-rcr44-esr29,exr/ReadingArea_rsl2-rcl11-esl310-rsm2-rcm69-esm100-rsr2-rcr44-esr29.exr,ReadingArea_rsl2-rcl11-esl310-rsm2-rcm69-esm100-rsr2-rcr44-esr29.npz,,,,,0,1,1,224,,left,green,1.38,151.7340989112854,152.18232607841492,,1,6,6,lightness,readingArea,realistic,75,2023-03-23_17h31.32.846,tripletExp_regina_11082022,2022.2.4,119.76197818514076,
6,5,13,2,0.027777777777778,1.0,2,1.0,0.298245614035088,2,0.111111111111111,3.10526315789474,ReadingArea_rsl2-rcl2-esl100-rsm2-rcm100-esm29-rsr2-rcr11-esr310,exr/ReadingArea_rsl2-rcl2-esl100-rsm2-rcm100-esm29-rsr2-rcr11-esr310.exr,ReadingArea_rsl2-rcl2-esl100-rsm2-rcm100-esm29-rsr2-rcr11-esr310.npz,,,,,0,2,2,450,,right,red,1.43,153.8955819606781,154.46053791046145,,1,6,6,lightness,readingArea,realistic,75,2023-03-23_17h31.32.846,tripletExp_regina_11082022,2022.2.4,119.76197818514076,
9,13,5,2,0.444444444444444,1.0,2,0.111111111111111,3.10526315789474,2,1.0,0.298245614035088,ReadingArea_rsl2-rcl44-esl100-rsm2-rcm11-esm310-rsr2-rcr100-esr29,exr/ReadingArea_rsl2-rcl44-esl100-rsm2-rcm11-esm310-rsr2-rcr100-esr29.exr,ReadingArea_rsl2-rcl44-esl100-rsm2-rcm11-esm310-rsr2-rcr100-esr29.npz,,,,,0,3,3,349,,left,green,1.69,156.17835903167725,156.63023805618286,,1,6,6,lightness,readingArea,realistic,75,2023-03-23_17h31.32.846,tripletExp_regina_11082022,2022.2.4,119.76197818514076,
11,12,10,2,1.0,1.0,2,0.027777777777778,3.10526315789474,2,0.694444444444444,1.0,ReadingArea_rsl2-rcl100-esl100-rsm2-rcm2-esm310-rsr2-rcr69-esr100,exr/ReadingArea_rsl2-rcl100-esl100-rsm2-rcm2-esm310-rsr2-rcr69-esr100.exr,ReadingArea_rsl2-rcl100-esl100-rsm2-rcm2-esm310-rsr2-rcr69-esr100.npz,,,,,0,4,4,465,,right,red,1.59,158.35251593589783,,,1,6,6,lightness,readingArea,realistic,75,2023-03-23_17h31.32.846,tripletExp_regina_11082022,2022.2.4,119.76197818514076,
5,14,3,2,1.0,0.298245614035088,2,0.25,3.10526315789474,2,0.444444444444444,0.298245614035088,ReadingArea_rsl2-rcl100-esl29-rsm2-rcm25-esm310-rsr2-rcr44-esr29,exr/ReadingArea_rsl2-rcl100-esl29-rsm2-rcm25-esm310-rsr2-rcr44-esr29.exr,ReadingArea_rsl2-rcl100-esl29-rsm2-rcm25-esm310-rsr2-rcr44-esr29.npz,,,,,0,5,5,93,,left,green,1.65,160.50312089920044,160.95857095718384,,1,6,6,lightness,readingArea,realistic,75,2023-03-23_17h31.32.846,tripletExp_regina_11082022,2022.2.4,119.76197818514076,
8,14,3,2,0.25,1.0,2,0.25,3.10526315789474,2,0.444444444444444,0.298245614035088,ReadingArea_rsl2-rcl25-esl100-rsm2-rcm25-esm310-rsr2-rcr44-esr29,exr/ReadingArea_rsl2-rcl25-esl100-rsm2-rcm25-esm310-rsr2-rcr44-esr29.exr,ReadingArea_rsl2-rcl25-esl100-rsm2-rcm25-esm310-rsr2-rcr44-esr29.npz,,,,,0,6,6,503,,left,green,2.58,164.4111030101776,164.8378200531006,,1,6,6,lightness,readingArea,realistic,75,2023-03-23_17h31.32.846,tripletExp_regina_11082022,2022.2.4,119.76197818514076,
13,9,6,2,0.111111111111111,3.10526315789474,2,0.444444444444444,1.0,2,0.027777777777778,1.0,ReadingArea_rsl2-rcl11-esl310-rsm2-rcm44-esm100-rsr2-rcr2-esr100,exr/ReadingArea_rsl2-rcl11-esl310-rsm2-rcm44-esm100-rsr2-rcr2-esr100.exr,ReadingArea_rsl2-rcl11-esl310-rsm2-rcm44-esm100-rsr2-rcr2-esr100.npz,,,,,0,7,7,19,,left,green,1.4,166.53703904151917,,,1,6,6,lightness,readingArea,realistic,75,2023-03-23_17h31.32.846,tripletExp_regina_11082022,2022.2.4,119.76197818514076,
13,3,14,2,0.111111111111111,3.10526315789474,2,0.444444444444444,0.298245614035088,2,0.25,3.10526315789474,ReadingArea_rsl2-rcl11-esl310-rsm2-rcm44-esm29-rsr2-rcr25-esr310,exr/ReadingArea_rsl2-rcl11-esl310-rsm2-rcm44-esm29-rsr2-rcr25-esr310.exr,ReadingArea_rsl2-rcl11-esl310-rsm2-rcm44-esm29-rsr2-rcr25-esr310.npz,,,,,0,8,8,38,,left,green,2.28,170.45951008796692,170.90183901786804,,1,6,6,lightness,readingArea,realistic,75,2023-03-23_17h31.32.846,tripletExp_regina_11082022,2022.2.4,119.76197818514076,
0,9,14,2,0.027777777777778,0.298245614035088,2,0.444444444444444,1.0,2,0.25,3.10526315789474,ReadingArea_rsl2-rcl2-esl29-rsm2-rcm44-esm100-rsr2-rcr25-esr310,exr/ReadingArea_rsl2-rcl2-esl29-rsm2-rcm44-esm100-rsr2-rcr25-esr310.exr,ReadingArea_rsl2-rcl2-esl29-rsm2-rcm44-esm100-rsr2-rcr25-esr310.npz,,,,,0,9,9,433,,right,red,2.26,174.4130790233612,174.9251310825348,,1,6,6,lightness,readingArea,realistic,75,2023-03-23_17h31.32.846,tripletExp_regina_11082022,2022.2.4,119.76197818514076,
2,9,12,2,0.25,0.298245614035088,2,0.444444444444444,1.0,2,0.027777777777778,3.10526315789474,ReadingArea_rsl2-rcl25-esl29-rsm2-rcm44-esm100-rsr2-rcr2-esr310,exr/ReadingArea_rsl2-rcl25-esl29-rsm2-rcm44-esm100-rsr2-rcr2-esr310.exr,ReadingArea_rsl2-rcl25-esl29-rsm2-rcm44-esm100-rsr2-rcr2-esr310.npz,,,,,0,10,10,354,,left,green,1.45,176.63205790519714,177.05606198310852,,1,6,6,lightness,readingArea,realistic,75,2023-03-23_17h31.32.846,tripletExp_regina_11082022,2022.2.4,119.76197818514076,
9,11,5,2,0.444444444444444,1.0,2,1.0,1.0,2,1.0,0.298245614035088,ReadingArea_rsl2-rcl44-esl100-rsm2-rcm100-esm100-rsr2-rcr100-esr29,exr/ReadingArea_rsl2-rcl44-esl100-rsm2-rcm100-esm100-rsr2-rcr100-esr29.exr,ReadingArea_rsl2-rcl44-esl100-rsm2-rcm100-esm100-rsr2-rcr100-esr29.npz,,,,,0,11,11,142,,right,red,1.52,178.77639412879944,179.19145703315735,,1,6,6,lightness,readingArea,realistic,75,2023-03-23_17h31.32.846,tripletExp_regina_11082022,2022.2.4,119.76197818514076,
4,11,12,2,0.694444444444444,0.298245614035088,2,1.0,1.0,2,0.027777777777778,3.10526315789474,ReadingArea_rsl2-rcl69-esl29-rsm2-rcm100-esm100-rsr2-rcr2-esr310,exr/ReadingArea_rsl2-rcl69-esl29-rsm2-rcm100-esm100-rsr2-rcr2-esr310.exr,ReadingArea_rsl2-rcl69-esl29-rsm2-rcm100-esm100-rsr2-rcr2-esr310.npz,,,,,0,12,12,109,,left,green,1.2,180.91198897361755,181.38872599601743,,1,6,6,lightness,readingArea,realistic,75,2023-03-23_17h31.32.846,tripletExp_regina_11082022,2022.2.4,119.76197818514076,
14,7,13,2,0.25,3.10526315789474,2,0.111111111111111,1.0,2,0.111111111111111,3.10526315789474,ReadingArea_rsl2-rcl25-esl310-rsm2-rcm11-esm100-rsr2-rcr11-esr310,exr/ReadingArea_rsl2-rcl25-esl310-rsm2-rcm11-esm100-rsr2-rcr11-esr310.exr,ReadingArea_rsl2-rcl25-esl310-rsm2-rcm11-esm100-rsr2-rcr11-esr310.npz,,,,,0,13,13,358,,right,red,1.48,183.08195805549624,183.5169050693512,,1,6,6,lightness,readingArea,realistic,75,2023-03-23_17h31.32.846,tripletExp_regina_11082022,2022.2.4,119.76197818514076,
12,7,2,2,0.027777777777778,3.10526315789474,2,0.111111111111111,1.0,2,0.25,0.298245614035088,ReadingArea_rsl2-rcl2-esl310-rsm2-rcm11-esm100-rsr2-rcr25-esr29,exr/ReadingArea_rsl2-rcl2-esl310-rsm2-rcm11-esm100-rsr2-rcr25-esr29.exr,ReadingArea_rsl2-rcl2-esl310-rsm2-rcm11-esm100-rsr2-rcr25-esr29.npz,,,,,0,14,14,248,,left,green,3.04,186.97199201583865,187.4272859096527,,1,6,6,lightness,readingArea,realistic,75,2023-03-23_17h31.32.846,tripletExp_regina_11082022,2022.2.4,119.76197818514076,
4,8,11,2,0.694444444444444,0.298245614035088,2,0.25,1.0,2,1.0,1.0,ReadingArea_rsl2-rcl69-esl29-rsm2-rcm25-esm100-rsr2-rcr100-esr100,exr/ReadingArea_rsl2-rcl69-esl29-rsm2-rcm25-esm100-rsr2-rcr100-esr100.exr,ReadingArea_rsl2-rcl69-esl29-rsm2-rcm25-esm100-rsr2-rcr100-esr100.npz,,,,,0,15,15,403,,left,green,1.85,189.1441171169281,189.58191204071045,,1,6,6,lightness,readingArea,realistic,75,2023-03-23_17h31.32.846,tripletExp_regina_11082022,2022.2.4,119.76197818514076,
7,10,13,2,0.111111111111111,1.0,2,0.694444444444444,1.0,2,0.111111111111111,3.10526315789474,ReadingArea_rsl2-rcl11-esl100-rsm2-rcm69-esm100-rsr2-rcr11-esr310,exr/ReadingArea_rsl2-rcl11-esl100-rsm2-rcm69-esm100-rsr2-rcr11-esr310.exr,ReadingArea_rsl2-rcl11-esl100-rsm2-rcm69-esm100-rsr2-rcr11-esr310.npz,,,,,0,16,16,446,,right,red,1.36,191.3072030544281,,,1,6,6,lightness,readingArea,realistic,75,2023-03-23_17h31.32.846,tripletExp_regina_11082022,2022.2.4,119.76197818514076,
14,3,4,2,0.25,3.10526315789474,2,0.444444444444444,0.298245614035088,2,0.694444444444444,0.298245614035088,ReadingArea_rsl2-rcl25-esl310-rsm2-rcm44-esm29-rsr2-rcr69-esr29,exr/ReadingArea_rsl2-rcl25-esl310-rsm2-rcm44-esm29-rsr2-rcr69-esr29.exr,ReadingArea_rsl2-rcl25-esl310-rsm2-rcm44-esm29-rsr2-rcr69-esr29.npz,,,,,0,17,17,127,,right,red,1.02,193.47846508026123,193.91706109046936,,1,6,6,lightness,readingArea,realistic,75,2023-03-23_17h31.32.846,tripletExp_regina_11082022,2022.2.4,119.76197818514076,
11,8,10,2,1.0,1.0,2,0.25,1.0,2,0.694444444444444,1.0,ReadingArea_rsl2-rcl100-esl100-rsm2-rcm25-esm100-rsr2-rcr69-esr100,exr/ReadingArea_rsl2-rcl100-esl100-rsm2-rcm25-esm100-rsr2-rcr69-esr100.exr,ReadingArea_rsl2-rcl100-esl100-rsm2-rcm25-esm100-rsr2-rcr69-esr100.npz,,,,,0,18,18,67,,right,red,0.96,195.6070799827576,196.05349612236023,,1,6,6,lightness,readingArea,realistic,75,2023-03-23_17h31.32.846,tripletExp_regina_11082022,2022.2.4,119.76197818514076,
7,14,10,2,0.111111111111111,1.0,2,0.25,3.10526315789474,2,0.694444444444444,1.0,ReadingArea_rsl2-rcl11-esl100-rsm2-rcm25-esm310-rsr2-rcr69-esr100,exr/ReadingArea_rsl2-rcl11-esl100-rsm2-rcm25-esm310-rsr2-rcr69-esr100.exr,ReadingArea_rsl2-rcl11-esl100-rsm2-rcm25-esm310-rsr2-rcr69-esr100.npz,,,,,0,19,19,472,,right,red,1.14,197.7770829200745,198.2227818965912,,1,6,6,lightness,readingArea,realistic,75,2023-03-23_17h31.32.846,tripletExp_regina_11082022,2022.2.4,119.76197818514076,
6,11,14,2,0.027777777777778,1.0,2,1.0,1.0,2,0.25,3.10526315789474,ReadingArea_rsl2-rcl2-esl100-rsm2-rcm100-esm100-rsr2-rcr25-esr310,exr/ReadingArea_rsl2-rcl2-esl100-rsm2-rcm100-esm100-rsr2-rcr25-esr310.exr,ReadingArea_rsl2-rcl2-esl100-rsm2-rcm100-esm100-rsr2-rcr25-esr310.npz,,,,,0,20,20,262,,right,red,1.38,199.93480896949768,200.38199710845947,,1,6,6,lightness,readingArea,realistic,75,2023-03-23_17h31.32.846,tripletExp_regina_11082022,2022.2.4,119.76197818514076,
4,2,0,2,0.694444444444444,0.298245614035088,2,0.25,0.298245614035088,2,0.027777777777778,0.298245614035088,ReadingArea_rsl2-rcl69-esl29-rsm2-rcm25-esm29-rsr2-rcr2-esr29,exr/ReadingArea_rsl2-rcl69-esl29-rsm2-rcm25-esm29-rsr2-rcr2-esr29.exr,ReadingArea_rsl2-rcl69-esl29-rsm2-rcm25-esm29-rsr2-rcr2-esr29.npz,,,,,0,21,21,71,,left,green,1.55,202.0707290172577,202.51280307769773,,1,6,6,lightness,readingArea,realistic,75,2023-03-23_17h31.32.846,tripletExp_regina_11082022,2022.2.4,119.76197818514076,
5,3,0,2,1.0,0.298245614035088,2,0.444444444444444,0.298245614035088,2,0.027777777777778,0.298245614035088,ReadingArea_rsl2-rcl100-esl29-rsm2-rcm44-esm29-rsr2-rcr2-esr29,exr/ReadingArea_rsl2-rcl100-esl29-rsm2-rcm44-esm29-rsr2-rcr2-esr29.exr,ReadingArea_rsl2-rcl100-esl29-rsm2-rcm44-esm29-rsr2-rcr2-esr29.npz,,,,,0,22,22,303,,left,green,1.58,204.20695900917053,204.6397070884705,,1,6,6,lightness,readingArea,realistic,75,2023-03-23_17h31.32.846,tripletExp_regina_11082022,2022.2.4,119.76197818514076,
1,10,11,2,0.111111111111111,0.298245614035088,2,0.694444444444444,1.0,2,1.0,1.0,ReadingArea_rsl2-rcl11-esl29-rsm2-rcm69-esm100-rsr2-rcr100-esr100,exr/ReadingArea_rsl2-rcl11-esl29-rsm2-rcm69-esm100-rsr2-rcr100-esr100.exr,ReadingArea_rsl2-rcl11-esl29-rsm2-rcm69-esm100-rsr2-rcr100-esr100.npz,,,,,0,23,23,483,,right,red,1.35,206.33366513252253,206.7923231124878,,1,6,6,lightness,readingArea,realistic,75,2023-03-23_17h31.32.846,tripletExp_regina_11082022,2022.2.4,119.76197818514076,
9,7,3,2,0.444444444444444,1.0,2,0.111111111111111,1.0,2,0.444444444444444,0.298245614035088,ReadingArea_rsl2-rcl44-esl100-rsm2-rcm11-esm100-rsr2-rcr44-esr29,exr/ReadingArea_rsl2-rcl44-esl100-rsm2-rcm11-esm100-rsr2-rcr44-esr29.exr,ReadingArea_rsl2-rcl44-esl100-rsm2-rcm11-esm100-rsr2-rcr44-esr29.npz,,,,,0,24,24,235,,right,red,1.12,208.4882040023804,208.9264640808105,,1,6,6,lightness,readingArea,realistic,75,2023-03-23_17h31.32.846,tripletExp_regina_11082022,2022.2.4,119.76197818514076,
3,1,0,2,0.444444444444444,0.298245614035088,2,0.111111111111111,0.298245614035088,2,0.027777777777778,0.298245614035088,ReadingArea_rsl2-rcl44-esl29-rsm2-rcm11-esm29-rsr2-rcr2-esr29,exr/ReadingArea_rsl2-rcl44-esl29-rsm2-rcm11-esm29-rsr2-rcr2-esr29.exr,ReadingArea_rsl2-rcl44-esl29-rsm2-rcm11-esm29-rsr2-rcr2-esr29.npz,,,,,0,25,25,343,,right,red,1.58,210.6148669719696,211.08328104019165,,1,6,6,lightness,readingArea,realistic,75,2023-03-23_17h31.32.846,tripletExp_regina_11082022,2022.2.4,119.76197818514076,
12,9,13,2,0.027777777777778,3.10526315789474,2,0.444444444444444,1.0,2,0.111111111111111,3.10526315789474,ReadingArea_rsl2-rcl2-esl310-rsm2-rcm44-esm100-rsr2-rcr11-esr310,exr/ReadingArea_rsl2-rcl2-esl310-rsm2-rcm44-esm100-rsr2-rcr11-esr310.exr,ReadingArea_rsl2-rcl2-esl310-rsm2-rcm44-esm100-rsr2-rcr11-esr310.npz,,,,,0,26,26,529,,right,red,3.05,214.5598180294037,215.0082950592041,,1,6,6,lightness,readingArea,realistic,75,2023-03-23_17h31.32.846,tripletExp_regina_11082022,2022.2.4,119.76197818514076,
3,4,11,2,0.444444444444444,0.298245614035088,2,0.694444444444444,0.298245614035088,2,1.0,1.0,ReadingArea_rsl2-rcl44-esl29-rsm2-rcm69-esm29-rsr2-rcr100-esr100,exr/ReadingArea_rsl2-rcl44-esl29-rsm2-rcm69-esm29-rsr2-rcr100-esr100.exr,ReadingArea_rsl2-rcl44-esl29-rsm2-rcm69-esm29-rsr2-rcr100-esr100.npz,,,,,0,27,27,207,,left,green,1.13,216.7234330177307,217.17969512939453,,1,6,6,lightness,readingArea,realistic,75,2023-03-23_17h31.32.846,tripletExp_regina_11082022,2022.2.4,119.76197818514076,
2,14,7,2,0.25,0.298245614035088,2,0.25,3.10526315789474,2,0.111111111111111,1.0,ReadingArea_rsl2-rcl25-esl29-rsm2-rcm25-esm310-rsr2-rcr11-esr100,exr/ReadingArea_rsl2-rcl25-esl29-rsm2-rcm25-esm310-rsr2-rcr11-esr100.exr,ReadingArea_rsl2-rcl25-esl29-rsm2-rcm25-esm310-rsr2-rcr11-esr100.npz,,,,,0,28,28,310,,left,green,2.67,220.6503751277924,221.11506295204163,,1,6,6,lightness,readingArea,realistic,75,2023-03-23_17h31.32.846,tripletExp_regina_11082022,2022.2.4,119.76197818514076,
11,6,8,2,1.0,1.0,2,0.027777777777778,1.0,2,0.25,1.0,ReadingArea_rsl2-rcl100-esl100-rsm2-rcm2-esm100-rsr2-rcr25-esr100,exr/ReadingArea_rsl2-rcl100-esl100-rsm2-rcm2-esm100-rsr2-rcr25-esr100.exr,ReadingArea_rsl2-rcl100-esl100-rsm2-rcm2-esm100-rsr2-rcr25-esr100.npz,,,,,0,29,29,599,,right,red,1.48,222.8120141029358,,,1,6,6,lightness,readingArea,realistic,75,2023-03-23_17h31.32.846,tripletExp_regina_11082022,2022.2.4,119.76197818514076,
8,13,3,2,0.25,1.0,2,0.111111111111111,3.10526315789474,2,0.444444444444444,0.298245614035088,ReadingArea_rsl2-rcl25-esl100-rsm2-rcm11-esm310-rsr2-rcr44-esr29,exr/ReadingArea_rsl2-rcl25-esl100-rsm2-rcm11-esm310-rsr2-rcr44-esr29.exr,ReadingArea_rsl2-rcl25-esl100-rsm2-rcm11-esm310-rsr2-rcr44-esr29.npz,,,,,0,30,30,553,,left,green,2.89,226.7595930099488,227.1999750137329,,1,6,6,lightness,readingArea,realistic,75,2023-03-23_17h31.32.846,tripletExp_regina_11082022,2022.2.4,119.76197818514076,
5,6,0,2,1.0,0.298245614035088,2,0.027777777777778,1.0,2,0.027777777777778,0.298245614035088,ReadingArea_rsl2-rcl100-esl29-rsm2-rcm2-esm100-rsr2-rcr2-esr29,exr/ReadingArea_rsl2-rcl100-esl29-rsm2-rcm2-esm100-rsr2-rcr2-esr29.exr,ReadingArea_rsl2-rcl100-esl29-rsm2-rcm2-esm100-rsr2-rcr2-esr29.npz,,,,,0,31,31,511,,right,red,1.33,228.89064812660217,229.3390610218048,,1,6,6,lightness,readingArea,realistic,75,2023-03-23_17h31.32.846,tripletExp_regina_11082022,2022.2.4,119.76197818514076,
8,10,9,2,0.25,1.0,2,0.694444444444444,1.0,2,0.444444444444444,1.0,ReadingArea_rsl2-rcl25-esl100-rsm2-rcm69-esm100-rsr2-rcr44-esr100,exr/ReadingArea_rsl2-rcl25-esl100-rsm2-rcm69-esm100-rsr2-rcr44-esr100.exr,ReadingArea_rsl2-rcl25-esl100-rsm2-rcm69-esm100-rsr2-rcr44-esr100.npz,,,,,0,32,32,342,,right,red,1.18,231.05854511260983,231.4794750213623,,1,6,6,lightness,readingArea,realistic,75,2023-03-23_17h31.32.846,tripletExp_regina_11082022,2022.2.4,119.76197818514076,
9,0,6,2,0.444444444444444,1.0,2,0.027777777777778,0.298245614035088,2,0.027777777777778,1.0,ReadingArea_rsl2-rcl44-esl100-rsm2-rcm2-esm29-rsr2-rcr2-esr100,exr/ReadingArea_rsl2-rcl44-esl100-rsm2-rcm2-esm29-rsr2-rcr2-esr100.exr,ReadingArea_rsl2-rcl44-esl100-rsm2-rcm2-esm29-rsr2-rcr2-esr100.npz,,,,,0,33,33,362,,right,red,1.0,233.17213010787964,,,1,6,6,lightness,readingArea,realistic,75,2023-03-23_17h31.32.846,tripletExp_regina_11082022,2022.2.4,119.76197818514076,
12,13,7,2,0.027777777777778,3.10526315789474,2,0.111111111111111,3.10526315789474,2,0.111111111111111,1.0,ReadingArea_rsl2-rcl2-esl310-rsm2-rcm11-esm310-rsr2-rcr11-esr100,exr/ReadingArea_rsl2-rcl2-esl310-rsm2-rcm11-esm310-rsr2-rcr11-esr100.exr,ReadingArea_rsl2-rcl2-esl310-rsm2-rcm11-esm310-rsr2-rcr11-esr100.npz,,,,,0,34,34,408,,right,red,1.44,235.3094711303711,235.75819301605225,,1,6,6,lightness,readingArea,realistic,75,2023-03-23_17h31.32.846,tripletExp_regina_11082022,2022.2.4,119.76197818514076,
7,1,9,2,0.111111111111111,1.0,2,0.111111111111111,0.298245614035088,2,0.444444444444444,1.0,ReadingArea_rsl2-rcl11-esl100-rsm2-rcm11-esm29-rsr2-rcr44-esr100,exr/ReadingArea_rsl2-rcl11-esl100-rsm2-rcm11-esm29-rsr2-rcr44-esr100.exr,ReadingArea_rsl2-rcl11-esl100-rsm2-rcm11-esm29-rsr2-rcr44-esr100.npz,,,,,0,35,35,89,,left,green,2.32,239.22797393798828,239.682049036026,,1,6,6,lightness,readingArea,realistic,75,2023-03-23_17h31.32.846,tripletExp_regina_11082022,2022.2.4,119.76197818514076,
12,6,9,2,0.027777777777778,3.10526315789474,2,0.027777777777778,1.0,2,0.444444444444444,1.0,ReadingArea_rsl2-rcl2-esl310-rsm2-rcm2-esm100-rsr2-rcr44-esr100,exr/ReadingArea_rsl2-rcl2-esl310-rsm2-rcm2-esm100-rsr2-rcr44-esr100.exr,ReadingArea_rsl2-rcl2-esl310-rsm2-rcm2-esm100-rsr2-rcr44-esr100.npz,,,,,0,36,36,177,,left,green,1.18,241.39889407157887,,,1,6,6,lightness,readingArea,realistic,75,2023-03-23_17h31.32.846,tripletExp_regina_11082022,2022.2.4,119.76197818514076,
2,11,14,2,0.25,0.298245614035088,2,1.0,1.0,2,0.25,3.10526315789474,ReadingArea_rsl2-rcl25-esl29-rsm2-rcm100-esm100-rsr2-rcr25-esr310,exr/ReadingArea_rsl2-rcl25-esl29-rsm2-rcm100-esm100-rsr2-rcr25-esr310.exr,ReadingArea_rsl2-rcl25-esl29-rsm2-rcm100-esm100-rsr2-rcr25-esr310.npz,,,,,0,37,37,534,,right,red,1.4,243.5739839076996,,,1,6,6,lightness,readingArea,realistic,75,2023-03-23_17h31.32.846,tripletExp_regina_11082022,2022.2.4,119.76197818514076,
1,3,4,2,0.111111111111111,0.298245614035088,2,0.444444444444444,0.298245614035088,2,0.694444444444444,0.298245614035088,ReadingArea_rsl2-rcl11-esl29-rsm2-rcm44-esm29-rsr2-rcr69-esr29,exr/ReadingArea_rsl2-rcl11-esl29-rsm2-rcm44-esm29-rsr2-rcr69-esr29.exr,ReadingArea_rsl2-rcl11-esl29-rsm2-rcm44-esm29-rsr2-rcr69-esr29.npz,,,,,0,38,38,153,,right,red,1.54,245.72827291488647,246.19293594360352,,1,6,6,lightness,readingArea,realistic,75,2023-03-23_17h31.32.846,tripletExp_regina_11082022,2022.2.4,119.76197818514076,
0,8,3,2,0.027777777777778,0.298245614035088,2,0.25,1.0,2,0.444444444444444,0.298245614035088,ReadingArea_rsl2-rcl2-esl29-rsm2-rcm25-esm100-rsr2-rcr44-esr29,exr/ReadingArea_rsl2-rcl2-esl29-rsm2-rcm25-esm100-rsr2-rcr44-esr29.exr,ReadingArea_rsl2-rcl2-esl29-rsm2-rcm25-esm100-rsr2-rcr44-esr29.npz,,,,,0,39,39,301,,right,red,2.49,249.68751406669617,250.13616800308228,,1,6,6,lightness,readingArea,realistic,75,2023-03-23_17h31.32.846,tripletExp_regina_11082022,2022.2.4,119.76197818514076,
3,2,11,2,0.444444444444444,0.298245614035088,2,0.25,0.298245614035088,2,1.0,1.0,ReadingArea_rsl2-rcl44-esl29-rsm2-rcm25-esm29-rsr2-rcr100-esr100,exr/ReadingArea_rsl2-rcl44-esl29-rsm2-rcm25-esm29-rsr2-rcr100-esr100.exr,ReadingArea_rsl2-rcl44-esl29-rsm2-rcm25-esm29-rsr2-rcr100-esr100.npz,,,,,0,40,40,257,,left,green,1.38,251.82738089561465,252.2772560119629,,1,6,6,lightness,readingArea,realistic,75,2023-03-23_17h31.32.846,tripletExp_regina_11082022,2022.2.4,119.76197818514076,
1,6,11,2,0.111111111111111,0.298245614035088,2,0.027777777777778,1.0,2,1.0,1.0,ReadingArea_rsl2-rcl11-esl29-rsm2-rcm2-esm100-rsr2-rcr100-esr100,exr/ReadingArea_rsl2-rcl11-esl29-rsm2-rcm2-esm100-rsr2-rcr100-esr100.exr,ReadingArea_rsl2-rcl11-esl29-rsm2-rcm2-esm100-rsr2-rcr100-esr100.npz,,,,,0,41,41,39,,left,green,1.74,253.9901909828186,254.44149708747864,,1,6,6,lightness,readingArea,realistic,75,2023-03-23_17h31.32.846,tripletExp_regina_11082022,2022.2.4,119.76197818514076,
7,8,14,2,0.111111111111111,1.0,2,0.25,1.0,2,0.25,3.10526315789474,ReadingArea_rsl2-rcl11-esl100-rsm2-rcm25-esm100-rsr2-rcr25-esr310,exr/ReadingArea_rsl2-rcl11-esl100-rsm2-rcm25-esm100-rsr2-rcr25-esr310.exr,ReadingArea_rsl2-rcl11-esl100-rsm2-rcm25-esm100-rsr2-rcr25-esr310.npz,,,,,0,42,42,300,,left,green,2.87,257.94444704055786,258.38637709617615,,1,6,6,lightness,readingArea,realistic,75,2023-03-23_17h31.32.846,tripletExp_regina_11082022,2022.2.4,119.76197818514076,
9,4,6,2,0.444444444444444,1.0,2,0.694444444444444,0.298245614035088,2,0.027777777777778,1.0,ReadingArea_rsl2-rcl44-esl100-rsm2-rcm69-esm29-rsr2-rcr2-esr100,exr/ReadingArea_rsl2-rcl44-esl100-rsm2-rcm69-esm29-rsr2-rcr2-esr100.exr,ReadingArea_rsl2-rcl44-esl100-rsm2-rcm69-esm29-rsr2-rcr2-esr100.npz,,,,,0,43,43,453,,left,green,2.02,261.86388897895813,262.3107719421387,,1,6,6,lightness,readingArea,realistic,75,2023-03-23_17h31.32.846,tripletExp_regina_11082022,2022.2.4,119.76197818514076,
3,6,10,2,0.444444444444444,0.298245614035088,2,0.027777777777778,1.0,2,0.694444444444444,1.0,ReadingArea_rsl2-rcl44-esl29-rsm2-rcm2-esm100-rsr2-rcr69-esr100,exr/ReadingArea_rsl2-rcl44-esl29-rsm2-rcm2-esm100-rsr2-rcr69-esr100.exr,ReadingArea_rsl2-rcl44-esl29-rsm2-rcm2-esm100-rsr2-rcr69-esr100.npz,,,,,0,44,44,138,,left,green,1.44,264.0357339382172,,,1,6,6,lightness,readingArea,realistic,75,2023-03-23_17h31.32.846,tripletExp_regina_11082022,2022.2.4,119.76197818514076,
9,4,14,2,0.444444444444444,1.0,2,0.694444444444444,0.298245614035088,2,0.25,3.10526315789474,ReadingArea_rsl2-rcl44-esl100-rsm2-rcm69-esm29-rsr2-rcr25-esr310,exr/ReadingArea_rsl2-rcl44-esl100-rsm2-rcm69-esm29-rsr2-rcr25-esr310.exr,ReadingArea_rsl2-rcl44-esl100-rsm2-rcm69-esm29-rsr2-rcr25-esr310.npz,,,,,0,45,45,104,,left,green,2.67,267.96340703964233,268.4060699939728,,1,6,6,lightness,readingArea,realistic,75,2023-03-23_17h31.32.846,tripletExp_regina_11082022,2022.2.4,119.76197818514076,
14,4,7,2,0.25,3.10526315789474,2,0.694444444444444,0.298245614035088,2,0.111111111111111,1.0,ReadingArea_rsl2-rcl25-esl310-rsm2-rcm69-esm29-rsr2-rcr11-esr100,exr/ReadingArea_rsl2-rcl25-esl310-rsm2-rcm69-esm29-rsr2-rcr11-esr100.exr,ReadingArea_rsl2-rcl25-esl310-rsm2-rcm69-esm29-rsr2-rcr11-esr100.npz,,,,,0,46,46,136,,left,green,1.25,270.10951495170593,270.55414390563965,,1,6,6,lightness,readingArea,realistic,75,2023-03-23_17h31.32.846,tripletExp_regina_11082022,2022.2.4,119.76197818514076,
0,10,14,2,0.027777777777778,0.298245614035088,2,0.694444444444444,1.0,2,0.25,3.10526315789474,ReadingArea_rsl2-rcl2-esl29-rsm2-rcm69-esm100-rsr2-rcr25-esr310,exr/ReadingArea_rsl2-rcl2-esl29-rsm2-rcm69-esm100-rsr2-rcr25-esr310.exr,ReadingArea_rsl2-rcl2-esl29-rsm2-rcm69-esm100-rsr2-rcr25-esr310.npz,,,,,0,47,47,31,,right,red,1.33,272.24612498283386,272.6953480243683,,1,6,6,lightness,readingArea,realistic,75,2023-03-23_17h31.32.846,tripletExp_regina_11082022,2022.2.4,119.76197818514076,
14,0,3,2,0.25,3.10526315789474,2,0.027777777777778,0.298245614035088,2,0.444444444444444,0.298245614035088,ReadingArea_rsl2-rcl25-esl310-rsm2-rcm2-esm29-rsr2-rcr44-esr29,exr/ReadingArea_rsl2-rcl25-esl310-rsm2-rcm2-esm29-rsr2-rcr44-esr29.exr,ReadingArea_rsl2-rcl25-esl310-rsm2-rcm2-esm29-rsr2-rcr44-esr29.npz,,,,,0,48,48,75,,right,red,1.41,274.4092221260071,274.85497307777405,,1,6,6,lightness,readingArea,realistic,75,2023-03-23_17h31.32.846,tripletExp_regina_11082022,2022.2.4,119.76197818514076,
2,14,9,2,0.25,0.298245614035088,2,0.25,3.10526315789474,2,0.444444444444444,1.0,ReadingArea_rsl2-rcl25-esl29-rsm2-rcm25-esm310-rsr2-rcr44-esr100,exr/ReadingArea_rsl2-rcl25-esl29-rsm2-rcm25-esm310-rsr2-rcr44-esr100.exr,ReadingArea_rsl2-rcl25-esl29-rsm2-rcm25-esm310-rsr2-rcr44-esr100.npz,,,,,0,49,49,51,,right,red,2.63,278.3148140907288,278.9300479888916,,1,6,6,lightness,readingArea,realistic,75,2023-03-23_17h31.32.846,tripletExp_regina_11082022,2022.2.4,119.76197818514076,
2,14,8,2,0.25,0.298245614035088,2,0.25,3.10526315789474,2,0.25,1.0,ReadingArea_rsl2-rcl25-esl29-rsm2-rcm25-esm310-rsr2-rcr25-esr100,exr/ReadingArea_rsl2-rcl25-esl29-rsm2-rcm25-esm310-rsr2-rcr25-esr100.exr,ReadingArea_rsl2-rcl25-esl29-rsm2-rcm25-esm310-rsr2-rcr25-esr100.npz,,,,,0,50,50,255,,right,red,1.5,280.614228963852,281.3006100654602,,1,6,6,lightness,readingArea,realistic,75,2023-03-23_17h31.32.846,tripletExp_regina_11082022,2022.2.4,119.76197818514076,
11,5,1,2,1.0,1.0,2,1.0,0.298245614035088,2,0.111111111111111,0.298245614035088,ReadingArea_rsl2-rcl100-esl100-rsm2-rcm100-esm29-rsr2-rcr11-esr29,exr/ReadingArea_rsl2-rcl100-esl100-rsm2-rcm100-esm29-rsr2-rcr11-esr29.exr,ReadingArea_rsl2-rcl100-esl100-rsm2-rcm100-esm29-rsr2-rcr11-esr29.npz,,,,,0,51,51,48,,left,green,1.42,283.0123391151428,283.4593279361725,,1,6,6,lightness,readingArea,realistic,75,2023-03-23_17h31.32.846,tripletExp_regina_11082022,2022.2.4,119.76197818514076,
10,1,6,2,0.694444444444444,1.0,2,0.111111111111111,0.298245614035088,2,0.027777777777778,1.0,ReadingArea_rsl2-rcl69-esl100-rsm2-rcm11-esm29-rsr2-rcr2-esr100,exr/ReadingArea_rsl2-rcl69-esl100-rsm2-rcm11-esm29-rsr2-rcr2-esr100.exr,ReadingArea_rsl2-rcl69-esl100-rsm2-rcm11-esm29-rsr2-rcr2-esr100.npz,,,,,0,52,52,160,,right,red,1.46,285.1729791164398,285.6173119544983,,1,6,6,lightness,readingArea,realistic,75,2023-03-23_17h31.32.846,tripletExp_regina_11082022,2022.2.4,119.76197818514076,
10,3,6,2,0.694444444444444,1.0,2,0.444444444444444,0.298245614035088,2,0.027777777777778,1.0,ReadingArea_rsl2-rcl69-esl100-rsm2-rcm44-esm29-rsr2-rcr2-esr100,exr/ReadingArea_rsl2-rcl69-esl100-rsm2-rcm44-esm29-rsr2-rcr2-esr100.exr,ReadingArea_rsl2-rcl69-esl100-rsm2-rcm44-esm29-rsr2-rcr2-esr100.npz,,,,,0,53,53,261,,right,red,2.56,289.1074209213257,289.5629689693451,,1,6,6,lightness,readingArea,realistic,75,2023-03-23_17h31.32.846,tripletExp_regina_11082022,2022.2.4,119.76197818514076,
4,3,1,2,0.694444444444444,0.298245614035088,2,0.444444444444444,0.298245614035088,2,0.111111111111111,0.298245614035088,ReadingArea_rsl2-rcl69-esl29-rsm2-rcm44-esm29-rsr2-rcr11-esr29,exr/ReadingArea_rsl2-rcl69-esl29-rsm2-rcm44-esm29-rsr2-rcr11-esr29.exr,ReadingArea_rsl2-rcl69-esl29-rsm2-rcm44-esm29-rsr2-rcr11-esr29.npz,,,,,0,54,54,60,,left,green,1.13,291.25490713119507,291.68975496292114,,1,6,6,lightness,readingArea,realistic,75,2023-03-23_17h31.32.846,tripletExp_regina_11082022,2022.2.4,119.76197818514076,
13,0,14,2,0.111111111111111,3.10526315789474,2,0.027777777777778,0.298245614035088,2,0.25,3.10526315789474,ReadingArea_rsl2-rcl11-esl310-rsm2-rcm2-esm29-rsr2-rcr25-esr310,exr/ReadingArea_rsl2-rcl11-esl310-rsm2-rcm2-esm29-rsr2-rcr25-esr310.exr,ReadingArea_rsl2-rcl11-esl310-rsm2-rcm2-esm29-rsr2-rcr25-esr310.npz,,,,,0,55,55,278,,left,green,1.39,293.40946102142334,293.8592550754547,,1,6,6,lightness,readingArea,realistic,75,2023-03-23_17h31.32.846,tripletExp_regina_11082022,2022.2.4,119.76197818514076,
0,4,6,2,0.027777777777778,0.298245614035088,2,0.694444444444444,0.298245614035088,2,0.027777777777778,1.0,ReadingArea_rsl2-rcl2-esl29-rsm2-rcm69-esm29-rsr2-rcr2-esr100,exr/ReadingArea_rsl2-rcl2-esl29-rsm2-rcm69-esm29-rsr2-rcr2-esr100.exr,ReadingArea_rsl2-rcl2-esl29-rsm2-rcm69-esm29-rsr2-rcr2-esr100.npz,,,,,0,56,56,49,,right,red,2.38,297.3309109210968,297.781564950943,,1,6,6,lightness,readingArea,realistic,75,2023-03-23_17h31.32.846,tripletExp_regina_11082022,2022.2.4,119.76197818514076,
13,0,10,2,0.111111111111111,3.10526315789474,2,0.027777777777778,0.298245614035088,2,0.694444444444444,1.0,ReadingArea_rsl2-rcl11-esl310-rsm2-rcm2-esm29-rsr2-rcr69-esr100,exr/ReadingArea_rsl2-rcl11-esl310-rsm2-rcm2-esm29-rsr2-rcr69-esr100.exr,ReadingArea_rsl2-rcl11-esl310-rsm2-rcm2-esm29-rsr2-rcr69-esr100.npz,,,,,0,57,57,505,,left,green,1.57,299.4723069667816,299.9180200099945,,1,6,6,lightness,readingArea,realistic,75,2023-03-23_17h31.32.846,tripletExp_regina_11082022,2022.2.4,119.76197818514076,
1,12,6,2,0.111111111111111,0.298245614035088,2,0.027777777777778,3.10526315789474,2,0.027777777777778,1.0,ReadingArea_rsl2-rcl11-esl29-rsm2-rcm2-esm310-rsr2-rcr2-esr100,exr/ReadingArea_rsl2-rcl11-esl29-rsm2-rcm2-esm310-rsr2-rcr2-esr100.exr,ReadingArea_rsl2-rcl11-esl29-rsm2-rcm2-esm310-rsr2-rcr2-esr100.npz,,,,,0,58,58,277,,right,red,2.84,303.3572521209717,303.8088159561157,,1,6,6,lightness,readingArea,realistic,75,2023-03-23_17h31.32.846,tripletExp_regina_11082022,2022.2.4,119.76197818514076,
7,12,2,2,0.111111111111111,1.0,2,0.027777777777778,3.10526315789474,2,0.25,0.298245614035088,ReadingArea_rsl2-rcl11-esl100-rsm2-rcm2-esm310-rsr2-rcr25-esr29,exr/ReadingArea_rsl2-rcl11-esl100-rsm2-rcm2-esm310-rsr2-rcr25-esr29.exr,ReadingArea_rsl2-rcl11-esl100-rsm2-rcm2-esm310-rsr2-rcr25-esr29.npz,,,,,0,59,59,72,,right,red,2.71,307.3092739582062,307.7696199417114,,1,6,6,lightness,readingArea,realistic,75,2023-03-23_17h31.32.846,tripletExp_regina_11082022,2022.2.4,119.76197818514076,
10,8,1,2,0.694444444444444,1.0,2,0.25,1.0,2,0.111111111111111,0.298245614035088,ReadingArea_rsl2-rcl69-esl100-rsm2-rcm25-esm100-rsr2-rcr11-esr29,exr/ReadingArea_rsl2-rcl69-esl100-rsm2-rcm25-esm100-rsr2-rcr11-esr29.exr,ReadingArea_rsl2-rcl69-esl100-rsm2-rcm25-esm100-rsr2-rcr11-esr29.npz,,,,,0,60,60,247,,right,red,1.32,309.4869079589844,309.94348192214966,,1,6,6,lightness,readingArea,realistic,75,2023-03-23_17h31.32.846,tripletExp_regina_11082022,2022.2.4,119.76197818514076,
14,2,7,2,0.25,3.10526315789474,2,0.25,0.298245614035088,2,0.111111111111111,1.0,ReadingArea_rsl2-rcl25-esl310-rsm2-rcm25-esm29-rsr2-rcr11-esr100,exr/ReadingArea_rsl2-rcl25-esl310-rsm2-rcm25-esm29-rsr2-rcr11-esr100.exr,ReadingArea_rsl2-rcl25-esl310-rsm2-rcm25-esm29-rsr2-rcr11-esr100.npz,,,,,0,61,61,569,,right,red,2.23,313.41688108444214,314.0884199142456,,1,6,6,lightness,readingArea,realistic,75,2023-03-23_17h31.32.846,tripletExp_regina_11082022,2022.2.4,119.76197818514076,
1,9,8,2,0.111111111111111,0.298245614035088,2,0.444444444444444,1.0,2,0.25,1.0,ReadingArea_rsl2-rcl11-esl29-rsm2-rcm44-esm100-rsr2-rcr25-esr100,exr/ReadingArea_rsl2-rcl11-esl29-rsm2-rcm44-esm100-rsr2-rcr25-esr100.exr,ReadingArea_rsl2-rcl11-esl29-rsm2-rcm44-esm100-rsr2-rcr25-esr100.npz,,,,,0,62,62,268,,right,red,1.47,315.7735059261322,316.2244350910187,,1,6,6,lightness,readingArea,realistic,75,2023-03-23_17h31.32.846,tripletExp_regina_11082022,2022.2.4,119.76197818514076,
14,0,5,2,0.25,3.10526315789474,2,0.027777777777778,0.298245614035088,2,1.0,0.298245614035088,ReadingArea_rsl2-rcl25-esl310-rsm2-rcm2-esm29-rsr2-rcr100-esr29,exr/ReadingArea_rsl2-rcl25-esl310-rsm2-rcm2-esm29-rsr2-rcr100-esr29.exr,ReadingArea_rsl2-rcl25-esl310-rsm2-rcm2-esm29-rsr2-rcr100-esr29.npz,,,,,0,63,63,418,,right,red,2.08,319.7050759792328,320.15952801704407,,1,6,6,lightness,readingArea,realistic,75,2023-03-23_17h31.32.846,tripletExp_regina_11082022,2022.2.4,119.76197818514076,
8,3,9,2,0.25,1.0,2,0.444444444444444,0.298245614035088,2,0.444444444444444,1.0,ReadingArea_rsl2-rcl25-esl100-rsm2-rcm44-esm29-rsr2-rcr44-esr100,exr/ReadingArea_rsl2-rcl25-esl100-rsm2-rcm44-esm29-rsr2-rcr44-esr100.exr,ReadingArea_rsl2-rcl25-esl100-rsm2-rcm44-esm29-rsr2-rcr44-esr100.npz,,,,,0,64,64,15,,left,green,1.48,321.8789050579071,322.3248770236969,,1,6,6,lightness,readingArea,realistic,75,2023-03-23_17h31.32.846,tripletExp_regina_11082022,2022.2.4,119.76197818514076,
7,14,11,2,0.111111111111111,1.0,2,0.25,3.10526315789474,2,1.0,1.0,ReadingArea_rsl2-rcl11-esl100-rsm2-rcm25-esm310-rsr2-rcr100-esr100,exr/ReadingArea_rsl2-rcl11-esl100-rsm2-rcm25-esm310-rsr2-rcr100-esr100.exr,ReadingArea_rsl2-rcl11-esl100-rsm2-rcm25-esm310-rsr2-rcr100-esr100.npz,,,,,0,65,65,252,,right,red,3.36,325.81475710868835,326.2856750488281,,1,6,6,lightness,readingArea,realistic,75,2023-03-23_17h31.32.846,tripletExp_regina_11082022,2022.2.4,119.76197818514076,
10,13,1,2,0.694444444444444,1.0,2,0.111111111111111,3.10526315789474,2,0.111111111111111,0.298245614035088,ReadingArea_rsl2-rcl69-esl100-rsm2-rcm11-esm310-rsr2-rcr11-esr29,exr/ReadingArea_rsl2-rcl69-esl100-rsm2-rcm11-esm310-rsr2-rcr11-esr29.exr,ReadingArea_rsl2-rcl69-esl100-rsm2-rcm11-esm310-rsr2-rcr11-esr29.npz,,,,,0,66,66,149,,right,red,1.34,327.975093126297,328.39676308631897,,1,6,6,lightness,readingArea,realistic,75,2023-03-23_17h31.32.846,tripletExp_regina_11082022,2022.2.4,119.76197818514076,
3,7,9,2,0.444444444444444,0.298245614035088,2,0.111111111111111,1.0,2,0.444444444444444,1.0,ReadingArea_rsl2-rcl44-esl29-rsm2-rcm11-esm100-rsr2-rcr44-esr100,exr/ReadingArea_rsl2-rcl44-esl29-rsm2-rcm11-esm100-rsr2-rcr44-esr100.exr,ReadingArea_rsl2-rcl44-esl29-rsm2-rcm11-esm100-rsr2-rcr44-esr100.npz,,,,,0,67,67,382,,left,green,1.19,330.1117300987244,330.5771110057831,,1,6,6,lightness,readingArea,realistic,75,2023-03-23_17h31.32.846,tripletExp_regina_11082022,2022.2.4,119.76197818514076,
5,4,10,2,1.0,0.298245614035088,2,0.694444444444444,0.298245614035088,2,0.694444444444444,1.0,ReadingArea_rsl2-rcl100-esl29-rsm2-rcm69-esm29-rsr2-rcr69-esr100,exr/ReadingArea_rsl2-rcl100-esl29-rsm2-rcm69-esm29-rsr2-rcr69-esr100.exr,ReadingArea_rsl2-rcl100-esl29-rsm2-rcm69-esm29-rsr2-rcr69-esr100.npz,,,,,0,68,68,536,,left,green,1.3,332.29323291778564,332.71468901634216,,1,6,6,lightness,readingArea,realistic,75,2023-03-23_17h31.32.846,tripletExp_regina_11082022,2022.2.4,119.76197818514076,
13,3,7,2,0.111111111111111,3.10526315789474,2,0.444444444444444,0.298245614035088,2,0.111111111111111,1.0,ReadingArea_rsl2-rcl11-esl310-rsm2-rcm44-esm29-rsr2-rcr11-esr100,exr/ReadingArea_rsl2-rcl11-esl310-rsm2-rcm44-esm29-rsr2-rcr11-esr100.exr,ReadingArea_rsl2-rcl11-esl310-rsm2-rcm44-esm29-rsr2-rcr11-esr100.npz,,,,,0,69,69,497,,left,green,1.36,334.4298059940338,,,1,6,6,lightness,readingArea,realistic,75,2023-03-23_17h31.32.846,tripletExp_regina_11082022,2022.2.4,119.76197818514076,
13,2,9,2,0.111111111111111,3.10526315789474,2,0.25,0.298245614035088,2,0.444444444444444,1.0,ReadingArea_rsl2-rcl11-esl310-rsm2-rcm25-esm29-rsr2-rcr44-esr100,exr/ReadingArea_rsl2-rcl11-esl310-rsm2-rcm25-esm29-rsr2-rcr44-esr100.exr,ReadingArea_rsl2-rcl11-esl310-rsm2-rcm25-esm29-rsr2-rcr44-esr100.npz,,,,,0,70,70,457,,left,green,1.47,336.6188669204712,337.0647659301758,,1,6,6,lightness,readingArea,realistic,75,2023-03-23_17h31.32.846,tripletExp_regina_11082022,2022.2.4,119.76197818514076,
1,5,8,2,0.111111111111111,0.298245614035088,2,1.0,0.298245614035088,2,0.25,1.0,ReadingArea_rsl2-rcl11-esl29-rsm2-rcm100-esm29-rsr2-rcr25-esr100,exr/ReadingArea_rsl2-rcl11-esl29-rsm2-rcm100-esm29-rsr2-rcr25-esr100.exr,ReadingArea_rsl2-rcl11-esl29-rsm2-rcm100-esm29-rsr2-rcr25-esr100.npz,,,,,0,71,71,238,,right,red,1.46,338.77758502960205,339.35118103027344,,1,6,6,lightness,readingArea,realistic,75,2023-03-23_17h31.32.846,tripletExp_regina_11082022,2022.2.4,119.76197818514076,
10,11,13,2,0.694444444444444,1.0,2,1.0,1.0,2,0.111111111111111,3.10526315789474,ReadingArea_rsl2-rcl69-esl100-rsm2-rcm100-esm100-rsr2-rcr11-esr310,exr/ReadingArea_rsl2-rcl69-esl100-rsm2-rcm100-esm100-rsr2-rcr11-esr310.exr,ReadingArea_rsl2-rcl69-esl100-rsm2-rcm100-esm100-rsr2-rcr11-esr310.npz,,,,,0,72,72,79,,left,green,2.5,342.8341341018677,343.2970070838928,,1,6,6,lightness,readingArea,realistic,75,2023-03-23_17h31.32.846,tripletExp_regina_11082022,2022.2.4,119.76197818514076,
1,14,0,2,0.111111111111111,0.298245614035088,2,0.25,3.10526315789474,2,0.027777777777778,0.298245614035088,ReadingArea_rsl2-rcl11-esl29-rsm2-rcm25-esm310-rsr2-rcr2-esr29,exr/ReadingArea_rsl2-rcl11-esl29-rsm2-rcm25-esm310-rsr2-rcr2-esr29.exr,ReadingArea_rsl2-rcl11-esl29-rsm2-rcm25-esm310-rsr2-rcr2-esr29.npz,,,,,0,73,73,394,,left,green,1.19,344.9976089000702,345.48002099990845,,1,6,6,lightness,readingArea,realistic,75,2023-03-23_17h31.32.846,tripletExp_regina_11082022,2022.2.4,119.76197818514076,
5,2,10,2,1.0,0.298245614035088,2,0.25,0.298245614035088,2,0.694444444444444,1.0,ReadingArea_rsl2-rcl100-esl29-rsm2-rcm25-esm29-rsr2-rcr69-esr100,exr/ReadingArea_rsl2-rcl100-esl29-rsm2-rcm25-esm29-rsr2-rcr69-esr100.exr,ReadingArea_rsl2-rcl100-esl29-rsm2-rcm25-esm29-rsr2-rcr69-esr100.npz,,,,,0,74,74,595,,left,green,2.34,348.93657207489014,349.1392230987549,,1,6,6,lightness,readingArea,realistic,75,2023-03-23_17h31.32.846,tripletExp_regina_11082022,2022.2.4,119.76197818514076,
0,8,7,2,0.027777777777778,0.298245614035088,2,0.25,1.0,2,0.111111111111111,1.0,ReadingArea_rsl2-rcl2-esl29-rsm2-rcm25-esm100-rsr2-rcr11-esr100,exr/ReadingArea_rsl2-rcl2-esl29-rsm2-rcm25-esm100-rsr2-rcr11-esr100.exr,ReadingArea_rsl2-rcl2-esl29-rsm2-rcm25-esm100-rsr2-rcr11-esr100.npz,,,,,0,75,75,9,,right,red,0.97,380.8502080440521,381.3132250308991,,2,6,6,lightness,readingArea,realistic,75,2023-03-23_17h31.32.846,tripletExp_regina_11082022,2022.2.4,119.76197818514076,
4,10,6,2,0.694444444444444,0.298245614035088,2,0.694444444444444,1.0,2,0.027777777777778,1.0,ReadingArea_rsl2-rcl69-esl29-rsm2-rcm69-esm100-rsr2-rcr2-esr100,exr/ReadingArea_rsl2-rcl69-esl29-rsm2-rcm69-esm100-rsr2-rcr2-esr100.exr,ReadingArea_rsl2-rcl69-esl29-rsm2-rcm69-esm100-rsr2-rcr2-esr100.npz,,,,,0,76,76,468,,left,green,0.98,383.0315170288086,383.4845480918884,,2,6,6,lightness,readingArea,realistic,75,2023-03-23_17h31.32.846,tripletExp_regina_11082022,2022.2.4,119.76197818514076,
6,11,1,2,0.027777777777778,1.0,2,1.0,1.0,2,0.111111111111111,0.298245614035088,ReadingArea_rsl2-rcl2-esl100-rsm2-rcm100-esm100-rsr2-rcr11-esr29,exr/ReadingArea_rsl2-rcl2-esl100-rsm2-rcm100-esm100-rsr2-rcr11-esr29.exr,ReadingArea_rsl2-rcl2-esl100-rsm2-rcm100-esm100-rsr2-rcr11-esr29.npz,,,,,0,77,77,436,,right,red,1.31,385.2061240673065,385.63099694252014,,2,6,6,lightness,readingArea,realistic,75,2023-03-23_17h31.32.846,tripletExp_regina_11082022,2022.2.4,119.76197818514076,
6,0,14,2,0.027777777777778,1.0,2,0.027777777777778,0.298245614035088,2,0.25,3.10526315789474,ReadingArea_rsl2-rcl2-esl100-rsm2-rcm2-esm29-rsr2-rcr25-esr310,exr/ReadingArea_rsl2-rcl2-esl100-rsm2-rcm2-esm29-rsr2-rcr25-esr310.exr,ReadingArea_rsl2-rcl2-esl100-rsm2-rcm2-esm29-rsr2-rcr25-esr310.npz,,,,,0,78,78,169,,left,green,1.13,387.3327209949493,387.8044230937958,,2,6,6,lightness,readingArea,realistic,75,2023-03-23_17h31.32.846,tripletExp_regina_11082022,2022.2.4,119.76197818514076,
10,12,9,2,0.694444444444444,1.0,2,0.027777777777778,3.10526315789474,2,0.444444444444444,1.0,ReadingArea_rsl2-rcl69-esl100-rsm2-rcm2-esm310-rsr2-rcr44-esr100,exr/ReadingArea_rsl2-rcl69-esl100-rsm2-rcm2-esm310-rsr2-rcr44-esr100.exr,ReadingArea_rsl2-rcl69-esl100-rsm2-rcm2-esm310-rsr2-rcr44-esr100.npz,,,,,0,79,79,405,,right,red,2.84,391.2839081287384,391.73560905456543,,2,6,6,lightness,readingArea,realistic,75,2023-03-23_17h31.32.846,tripletExp_regina_11082022,2022.2.4,119.76197818514076,
13,12,11,2,0.111111111111111,3.10526315789474,2,0.027777777777778,3.10526315789474,2,1.0,1.0,ReadingArea_rsl2-rcl11-esl310-rsm2-rcm2-esm310-rsr2-rcr100-esr100,exr/ReadingArea_rsl2-rcl11-esl310-rsm2-rcm2-esm310-rsr2-rcr100-esr100.exr,ReadingArea_rsl2-rcl11-esl310-rsm2-rcm2-esm310-rsr2-rcr100-esr100.npz,,,,,0,80,80,441,,left,green,1.06,393.45574498176575,,,2,6,6,lightness,readingArea,realistic,75,2023-03-23_17h31.32.846,tripletExp_regina_11082022,2022.2.4,119.76197818514076,
10,6,8,2,0.694444444444444,1.0,2,0.027777777777778,1.0,2,0.25,1.0,ReadingArea_rsl2-rcl69-esl100-rsm2-rcm2-esm100-rsr2-rcr25-esr100,exr/ReadingArea_rsl2-rcl69-esl100-rsm2-rcm2-esm100-rsr2-rcr25-esr100.exr,ReadingArea_rsl2-rcl69-esl100-rsm2-rcm2-esm100-rsr2-rcr25-esr100.npz,,,,,0,81,81,145,,right,red,1.27,395.6342349052429,396.0798110961914,,2,6,6,lightness,readingArea,realistic,75,2023-03-23_17h31.32.846,tripletExp_regina_11082022,2022.2.4,119.76197818514076,
6,12,3,2,0.027777777777778,1.0,2,0.027777777777778,3.10526315789474,2,0.444444444444444,0.298245614035088,ReadingArea_rsl2-rcl2-esl100-rsm2-rcm2-esm310-rsr2-rcr44-esr29,exr/ReadingArea_rsl2-rcl2-esl100-rsm2-rcm2-esm310-rsr2-rcr44-esr29.exr,ReadingArea_rsl2-rcl2-esl100-rsm2-rcm2-esm310-rsr2-rcr44-esr29.npz,,,,,0,82,82,284,,left,green,1.18,397.772733926773,398.2037189006805,,2,6,6,lightness,readingArea,realistic,75,2023-03-23_17h31.32.846,tripletExp_regina_11082022,2022.2.4,119.76197818514076,
13,1,4,2,0.111111111111111,3.10526315789474,2,0.111111111111111,0.298245614035088,2,0.694444444444444,0.298245614035088,ReadingArea_rsl2-rcl11-esl310-rsm2-rcm11-esm29-rsr2-rcr69-esr29,exr/ReadingArea_rsl2-rcl11-esl310-rsm2-rcm11-esm29-rsr2-rcr69-esr29.exr,ReadingArea_rsl2-rcl11-esl310-rsm2-rcm11-esm29-rsr2-rcr69-esr29.npz,,,,,0,83,83,396,,left,green,2.62,401.6777539253235,402.1285049915314,,2,6,6,lightness,readingArea,realistic,75,2023-03-23_17h31.32.846,tripletExp_regina_11082022,2022.2.4,119.76197818514076,
10,7,8,2,0.694444444444444,1.0,2,0.111111111111111,1.0,2,0.25,1.0,ReadingArea_rsl2-rcl69-esl100-rsm2-rcm11-esm100-rsr2-rcr25-esr100,exr/ReadingArea_rsl2-rcl69-esl100-rsm2-rcm11-esm100-rsr2-rcr25-esr100.exr,ReadingArea_rsl2-rcl69-esl100-rsm2-rcm11-esm100-rsr2-rcr25-esr100.npz,,,,,0,84,84,57,,right,red,1.1,403.8420031070709,404.2775530815125,,2,6,6,lightness,readingArea,realistic,75,2023-03-23_17h31.32.846,tripletExp_regina_11082022,2022.2.4,119.76197818514076,
3,6,5,2,0.444444444444444,0.298245614035088,2,0.027777777777778,1.0,2,1.0,0.298245614035088,ReadingArea_rsl2-rcl44-esl29-rsm2-rcm2-esm100-rsr2-rcr100-esr29,exr/ReadingArea_rsl2-rcl44-esl29-rsm2-rcm2-esm100-rsr2-rcr100-esr29.exr,ReadingArea_rsl2-rcl44-esl29-rsm2-rcm2-esm100-rsr2-rcr100-esr29.npz,,,,,0,85,85,274,,left,green,1.93,407.7802789211273,408.29814410209656,,2,6,6,lightness,readingArea,realistic,75,2023-03-23_17h31.32.846,tripletExp_regina_11082022,2022.2.4,119.76197818514076,
7,3,12,2,0.111111111111111,1.0,2,0.444444444444444,0.298245614035088,2,0.027777777777778,3.10526315789474,ReadingArea_rsl2-rcl11-esl100-rsm2-rcm44-esm29-rsr2-rcr2-esr310,exr/ReadingArea_rsl2-rcl11-esl100-rsm2-rcm44-esm29-rsr2-rcr2-esr310.exr,ReadingArea_rsl2-rcl11-esl100-rsm2-rcm44-esm29-rsr2-rcr2-esr310.npz,,,,,0,86,86,443,,left,green,3.54,411.75995206832886,412.21933698654175,,2,6,6,lightness,readingArea,realistic,75,2023-03-23_17h31.32.846,tripletExp_regina_11082022,2022.2.4,119.76197818514076,
8,6,13,2,0.25,1.0,2,0.027777777777778,1.0,2,0.111111111111111,3.10526315789474,ReadingArea_rsl2-rcl25-esl100-rsm2-rcm2-esm100-rsr2-rcr11-esr310,exr/ReadingArea_rsl2-rcl25-esl100-rsm2-rcm2-esm100-rsr2-rcr11-esr310.exr,ReadingArea_rsl2-rcl25-esl100-rsm2-rcm2-esm100-rsr2-rcr11-esr310.npz,,,,,0,87,87,440,,left,green,2.76,415.7026469707489,416.15392112731934,,2,6,6,lightness,readingArea,realistic,75,2023-03-23_17h31.32.846,tripletExp_regina_11082022,2022.2.4,119.76197818514076,
14,2,8,2,0.25,3.10526315789474,2,0.25,0.298245614035088,2,0.25,1.0,ReadingArea_rsl2-rcl25-esl310-rsm2-rcm25-esm29-rsr2-rcr25-esr100,exr/ReadingArea_rsl2-rcl25-esl310-rsm2-rcm25-esm29-rsr2-rcr25-esr100.exr,ReadingArea_rsl2-rcl25-esl310-rsm2-rcm25-esm29-rsr2-rcr25-esr100.npz,,,,,0,88,88,212,,right,red,1.28,417.87759804725647,418.3551819324493,,2,6,6,lightness,readingArea,realistic,75,2023-03-23_17h31.32.846,tripletExp_regina_11082022,2022.2.4,119.76197818514076,
4,0,1,2,0.694444444444444,0.298245614035088,2,0.027777777777778,0.298245614035088,2,0.111111111111111,0.298245614035088,ReadingArea_rsl2-rcl69-esl29-rsm2-rcm2-esm29-rsr2-rcr11-esr29,exr/ReadingArea_rsl2-rcl69-esl29-rsm2-rcm2-esm29-rsr2-rcr11-esr29.exr,ReadingArea_rsl2-rcl69-esl29-rsm2-rcm2-esm29-rsr2-rcr11-esr29.npz,,,,,0,89,89,173,,right,red,1.03,420.07008695602417,420.5214130878449,,2,6,6,lightness,readingArea,realistic,75,2023-03-23_17h31.32.846,tripletExp_regina_11082022,2022.2.4,119.76197818514076,
1,9,11,2,0.111111111111111,0.298245614035088,2,0.444444444444444,1.0,2,1.0,1.0,ReadingArea_rsl2-rcl11-esl29-rsm2-rcm44-esm100-rsr2-rcr100-esr100,exr/ReadingArea_rsl2-rcl11-esl29-rsm2-rcm44-esm100-rsr2-rcr100-esr100.exr,ReadingArea_rsl2-rcl11-esl29-rsm2-rcm44-esm100-rsr2-rcr100-esr100.npz,,,,,0,90,90,215,,right,red,1.27,422.2095520496368,422.6579201221466,,2,6,6,lightness,readingArea,realistic,75,2023-03-23_17h31.32.846,tripletExp_regina_11082022,2022.2.4,119.76197818514076,
14,7,0,2,0.25,3.10526315789474,2,0.111111111111111,1.0,2,0.027777777777778,0.298245614035088,ReadingArea_rsl2-rcl25-esl310-rsm2-rcm11-esm100-rsr2-rcr2-esr29,exr/ReadingArea_rsl2-rcl25-esl310-rsm2-rcm11-esm100-rsr2-rcr2-esr29.exr,ReadingArea_rsl2-rcl25-esl310-rsm2-rcm11-esm100-rsr2-rcr2-esr29.npz,,,,,0,91,91,412,,right,red,1.25,424.3819060325623,424.8085050582886,,2,6,6,lightness,readingArea,realistic,75,2023-03-23_17h31.32.846,tripletExp_regina_11082022,2022.2.4,119.76197818514076,
9,8,0,2,0.444444444444444,1.0,2,0.25,1.0,2,0.027777777777778,0.298245614035088,ReadingArea_rsl2-rcl44-esl100-rsm2-rcm25-esm100-rsr2-rcr2-esr29,exr/ReadingArea_rsl2-rcl44-esl100-rsm2-rcm25-esm100-rsr2-rcr2-esr29.exr,ReadingArea_rsl2-rcl44-esl100-rsm2-rcm25-esm100-rsr2-rcr2-esr29.npz,,,,,0,92,92,66,,left,green,2.68,428.25835394859314,428.8184280395508,,2,6,6,lightness,readingArea,realistic,75,2023-03-23_17h31.32.846,tripletExp_regina_11082022,2022.2.4,119.76197818514076,
12,4,9,2,0.027777777777778,3.10526315789474,2,0.694444444444444,0.298245614035088,2,0.444444444444444,1.0,ReadingArea_rsl2-rcl2-esl310-rsm2-rcm69-esm29-rsr2-rcr44-esr100,exr/ReadingArea_rsl2-rcl2-esl310-rsm2-rcm69-esm29-rsr2-rcr44-esr100.exr,ReadingArea_rsl2-rcl2-esl310-rsm2-rcm69-esm29-rsr2-rcr44-esr100.npz,,,,,0,93,93,380,,right,red,2.83,432.2770969867706,432.7306690216065,,2,6,6,lightness,readingArea,realistic,75,2023-03-23_17h31.32.846,tripletExp_regina_11082022,2022.2.4,119.76197818514076,
2,4,6,2,0.25,0.298245614035088,2,0.694444444444444,0.298245614035088,2,0.027777777777778,1.0,ReadingArea_rsl2-rcl25-esl29-rsm2-rcm69-esm29-rsr2-rcr2-esr100,exr/ReadingArea_rsl2-rcl25-esl29-rsm2-rcm69-esm29-rsr2-rcr2-esr100.exr,ReadingArea_rsl2-rcl25-esl29-rsm2-rcm69-esm29-rsr2-rcr2-esr100.npz,,,,,0,94,94,563,,left,green,1.27,434.4213879108429,434.954176902771,,2,6,6,lightness,readingArea,realistic,75,2023-03-23_17h31.32.846,tripletExp_regina_11082022,2022.2.4,119.76197818514076,
13,6,10,2,0.111111111111111,3.10526315789474,2,0.027777777777778,1.0,2,0.694444444444444,1.0,ReadingArea_rsl2-rcl11-esl310-rsm2-rcm2-esm100-rsr2-rcr69-esr100,exr/ReadingArea_rsl2-rcl11-esl310-rsm2-rcm2-esm100-rsr2-rcr69-esr100.exr,ReadingArea_rsl2-rcl11-esl310-rsm2-rcm2-esm100-rsr2-rcr69-esr100.npz,,,,,0,95,95,593,,left,green,1.31,436.64275193214417,437.2404730319977,,2,6,6,lightness,readingArea,realistic,75,2023-03-23_17h31.32.846,tripletExp_regina_11082022,2022.2.4,119.76197818514076,
5,13,6,2,1.0,0.298245614035088,2,0.111111111111111,3.10526315789474,2,0.027777777777778,1.0,ReadingArea_rsl2-rcl100-esl29-rsm2-rcm11-esm310-rsr2-rcr2-esr100,exr/ReadingArea_rsl2-rcl100-esl29-rsm2-rcm11-esm310-rsr2-rcr2-esr100.exr,ReadingArea_rsl2-rcl100-esl29-rsm2-rcm11-esm310-rsr2-rcr2-esr100.npz,,,,,0,96,96,263,,left,green,2.44,440.6819980144501,441.1229441165924,,2,6,6,lightness,readingArea,realistic,75,2023-03-23_17h31.32.846,tripletExp_regina_11082022,2022.2.4,119.76197818514076,
3,4,0,2,0.444444444444444,0.298245614035088,2,0.694444444444444,0.298245614035088,2,0.027777777777778,0.298245614035088,ReadingArea_rsl2-rcl44-esl29-rsm2-rcm69-esm29-rsr2-rcr2-esr29,exr/ReadingArea_rsl2-rcl44-esl29-rsm2-rcm69-esm29-rsr2-rcr2-esr29.exr,ReadingArea_rsl2-rcl44-esl29-rsm2-rcm69-esm29-rsr2-rcr2-esr29.npz,,,,,0,97,97,130,,left,green,2.91,444.5796799659729,445.0292050838471,,2,6,6,lightness,readingArea,realistic,75,2023-03-23_17h31.32.846,tripletExp_regina_11082022,2022.2.4,119.76197818514076,
14,1,13,2,0.25,3.10526315789474,2,0.111111111111111,0.298245614035088,2,0.111111111111111,3.10526315789474,ReadingArea_rsl2-rcl25-esl310-rsm2-rcm11-esm29-rsr2-rcr11-esr310,exr/ReadingArea_rsl2-rcl25-esl310-rsm2-rcm11-esm29-rsr2-rcr11-esr310.exr,ReadingArea_rsl2-rcl25-esl310-rsm2-rcm11-esm29-rsr2-rcr11-esr310.npz,,,,,0,98,98,265,,right,red,2.24,448.494129896164,448.94832706451416,,2,6,6,lightness,readingArea,realistic,75,2023-03-23_17h31.32.846,tripletExp_regina_11082022,2022.2.4,119.76197818514076,
2,5,3,2,0.25,0.298245614035088,2,1.0,0.298245614035088,2,0.444444444444444,0.298245614035088,ReadingArea_rsl2-rcl25-esl29-rsm2-rcm100-esm29-rsr2-rcr44-esr29,exr/ReadingArea_rsl2-rcl25-esl29-rsm2-rcm100-esm29-rsr2-rcr44-esr29.exr,ReadingArea_rsl2-rcl25-esl29-rsm2-rcm100-esm29-rsr2-rcr44-esr29.npz,,,,,0,99,99,135,,right,red,1.17,450.65245389938354,451.0974090099335,,2,6,6,lightness,readingArea,realistic,75,2023-03-23_17h31.32.846,tripletExp_regina_11082022,2022.2.4,119.76197818514076,
7,0,2,2,0.111111111111111,1.0,2,0.027777777777778,0.298245614035088,2,0.25,0.298245614035088,ReadingArea_rsl2-rcl11-esl100-rsm2-rcm2-esm29-rsr2-rcr25-esr29,exr/ReadingArea_rsl2-rcl11-esl100-rsm2-rcm2-esm29-rsr2-rcr25-esr29.exr,ReadingArea_rsl2-rcl11-esl100-rsm2-rcm2-esm29-rsr2-rcr25-esr29.npz,,,,,0,100,100,347,,right,red,3.08,454.5707800388336,455.03273701667786,,2,6,6,lightness,readingArea,realistic,75,2023-03-23_17h31.32.846,tripletExp_regina_11082022,2022.2.4,119.76197818514076,
14,2,1,2,0.25,3.10526315789474,2,0.25,0.298245614035088,2,0.111111111111111,0.298245614035088,ReadingArea_rsl2-rcl25-esl310-rsm2-rcm25-esm29-rsr2-rcr11-esr29,exr/ReadingArea_rsl2-rcl25-esl310-rsm2-rcm25-esm29-rsr2-rcr11-esr29.exr,ReadingArea_rsl2-rcl25-esl310-rsm2-rcm25-esm29-rsr2-rcr11-esr29.npz,,,,,0,101,101,321,,right,red,1.5,456.75061297416687,457.3717279434204,,2,6,6,lightness,readingArea,realistic,75,2023-03-23_17h31.32.846,tripletExp_regina_11082022,2022.2.4,119.76197818514076,
10,12,11,2,0.694444444444444,1.0,2,0.027777777777778,3.10526315789474,2,1.0,1.0,ReadingArea_rsl2-rcl69-esl100-rsm2-rcm2-esm310-rsr2-rcr100-esr100,exr/ReadingArea_rsl2-rcl69-esl100-rsm2-rcm2-esm310-rsr2-rcr100-esr100.exr,ReadingArea_rsl2-rcl69-esl100-rsm2-rcm2-esm310-rsr2-rcr100-esr100.npz,,,,,0,102,102,317,,left,green,2.79,460.8270869255066,461.28325605392456,,2,6,6,lightness,readingArea,realistic,75,2023-03-23_17h31.32.846,tripletExp_regina_11082022,2022.2.4,119.76197818514076,
0,4,9,2,0.027777777777778,0.298245614035088,2,0.694444444444444,0.298245614035088,2,0.444444444444444,1.0,ReadingArea_rsl2-rcl2-esl29-rsm2-rcm69-esm29-rsr2-rcr44-esr100,exr/ReadingArea_rsl2-rcl2-esl29-rsm2-rcm69-esm29-rsr2-rcr44-esr100.exr,ReadingArea_rsl2-rcl2-esl29-rsm2-rcm69-esm29-rsr2-rcr44-esr100.npz,,,,,0,103,103,21,,right,red,1.14,462.9908139705658,463.44427490234375,,2,6,6,lightness,readingArea,realistic,75,2023-03-23_17h31.32.846,tripletExp_regina_11082022,2022.2.4,119.76197818514076,
7,14,5,2,0.111111111111111,1.0,2,0.25,3.10526315789474,2,1.0,0.298245614035088,ReadingArea_rsl2-rcl11-esl100-rsm2-rcm25-esm310-rsr2-rcr100-esr29,exr/ReadingArea_rsl2-rcl11-esl100-rsm2-rcm25-esm310-rsr2-rcr100-esr29.exr,ReadingArea_rsl2-rcl11-esl100-rsm2-rcm25-esm310-rsr2-rcr100-esr29.npz,,,,,0,104,104,372,,right,red,1.2,465.1385180950165,465.5937769412994,,2,6,6,lightness,readingArea,realistic,75,2023-03-23_17h31.32.846,tripletExp_regina_11082022,2022.2.4,119.76197818514076,
2,4,14,2,0.25,0.298245614035088,2,0.694444444444444,0.298245614035088,2,0.25,3.10526315789474,ReadingArea_rsl2-rcl25-esl29-rsm2-rcm69-esm29-rsr2-rcr25-esr310,exr/ReadingArea_rsl2-rcl25-esl29-rsm2-rcm69-esm29-rsr2-rcr25-esr310.exr,ReadingArea_rsl2-rcl25-esl29-rsm2-rcm69-esm29-rsr2-rcr25-esr310.npz,,,,,0,105,105,356,,left,green,1.38,467.2848479747772,467.7410759925842,,2,6,6,lightness,readingArea,realistic,75,2023-03-23_17h31.32.846,tripletExp_regina_11082022,2022.2.4,119.76197818514076,
7,13,6,2,0.111111111111111,1.0,2,0.111111111111111,3.10526315789474,2,0.027777777777778,1.0,ReadingArea_rsl2-rcl11-esl100-rsm2-rcm11-esm310-rsr2-rcr2-esr100,exr/ReadingArea_rsl2-rcl11-esl100-rsm2-rcm11-esm310-rsr2-rcr2-esr100.exr,ReadingArea_rsl2-rcl11-esl100-rsm2-rcm11-esm310-rsr2-rcr2-esr100.npz,,,,,0,106,106,73,,left,green,1.58,469.4288320541382,469.89255690574646,,2,6,6,lightness,readingArea,realistic,75,2023-03-23_17h31.32.846,tripletExp_regina_11082022,2022.2.4,119.76197818514076,
12,11,13,2,0.027777777777778,3.10526315789474,2,1.0,1.0,2,0.111111111111111,3.10526315789474,ReadingArea_rsl2-rcl2-esl310-rsm2-rcm100-esm100-rsr2-rcr11-esr310,exr/ReadingArea_rsl2-rcl2-esl310-rsm2-rcm100-esm100-rsr2-rcr11-esr310.exr,ReadingArea_rsl2-rcl2-esl310-rsm2-rcm100-esm100-rsr2-rcr11-esr310.npz,,,,,0,107,107,151,,right,red,1.33,471.6079199314117,472.05297899246216,,2,6,6,lightness,readingArea,realistic,75,2023-03-23_17h31.32.846,tripletExp_regina_11082022,2022.2.4,119.76197818514076,
1,11,12,2,0.111111111111111,0.298245614035088,2,1.0,1.0,2,0.027777777777778,3.10526315789474,ReadingArea_rsl2-rcl11-esl29-rsm2-rcm100-esm100-rsr2-rcr2-esr310,exr/ReadingArea_rsl2-rcl11-esl29-rsm2-rcm100-esm100-rsr2-rcr2-esr310.exr,ReadingArea_rsl2-rcl11-esl29-rsm2-rcm100-esm100-rsr2-rcr2-esr310.npz,,,,,0,108,108,288,,right,red,3.07,475.5171070098877,475.9722580909729,,2,6,6,lightness,readingArea,realistic,75,2023-03-23_17h31.32.846,tripletExp_regina_11082022,2022.2.4,119.76197818514076,
3,7,0,2,0.444444444444444,0.298245614035088,2,0.111111111111111,1.0,2,0.027777777777778,0.298245614035088,ReadingArea_rsl2-rcl44-esl29-rsm2-rcm11-esm100-rsr2-rcr2-esr29,exr/ReadingArea_rsl2-rcl44-esl29-rsm2-rcm11-esm100-rsr2-rcr2-esr29.exr,ReadingArea_rsl2-rcl44-esl29-rsm2-rcm11-esm100-rsr2-rcr2-esr29.npz,,,,,0,109,109,327,,right,red,2.6,479.4140999317169,479.8704469203949,,2,6,6,lightness,readingArea,realistic,75,2023-03-23_17h31.32.846,tripletExp_regina_11082022,2022.2.4,119.76197818514076,
12,1,2,2,0.027777777777778,3.10526315789474,2,0.111111111111111,0.298245614035088,2,0.25,0.298245614035088,ReadingArea_rsl2-rcl2-esl310-rsm2-rcm11-esm29-rsr2-rcr25-esr29,exr/ReadingArea_rsl2-rcl2-esl310-rsm2-rcm11-esm29-rsr2-rcr25-esr29.exr,ReadingArea_rsl2-rcl2-esl310-rsm2-rcm11-esm29-rsr2-rcr25-esr29.npz,,,,,0,110,110,231,,left,green,3.03,483.3141911029816,483.7841839790344,,2,6,6,lightness,readingArea,realistic,75,2023-03-23_17h31.32.846,tripletExp_regina_11082022,2022.2.4,119.76197818514076,
6,10,11,2,0.027777777777778,1.0,2,0.694444444444444,1.0,2,1.0,1.0,ReadingArea_rsl2-rcl2-esl100-rsm2-rcm69-esm100-rsr2-rcr100-esr100,exr/ReadingArea_rsl2-rcl2-esl100-rsm2-rcm69-esm100-rsr2-rcr100-esr100.exr,ReadingArea_rsl2-rcl2-esl100-rsm2-rcm69-esm100-rsr2-rcr100-esr100.npz,,,,,0,111,111,116,,right,red,0.97,485.4973521232605,486.0580110549927,,2,6,6,lightness,readingArea,realistic,75,2023-03-23_17h31.32.846,tripletExp_regina_11082022,2022.2.4,119.76197818514076,
9,7,2,2,0.444444444444444,1.0,2,0.111111111111111,1.0,2,0.25,0.298245614035088,ReadingArea_rsl2-rcl44-esl100-rsm2-rcm11-esm100-rsr2-rcr25-esr29,exr/ReadingArea_rsl2-rcl44-esl100-rsm2-rcm11-esm100-rsr2-rcr25-esr29.exr,ReadingArea_rsl2-rcl44-esl100-rsm2-rcm11-esm100-rsr2-rcr25-esr29.npz,,,,,0,112,112,428,,right,red,1.38,487.7429249286652,488.182286977768,,2,6,6,lightness,readingArea,realistic,75,2023-03-23_17h31.32.846,tripletExp_regina_11082022,2022.2.4,119.76197818514076,
0,5,11,2,0.027777777777778,0.298245614035088,2,1.0,0.298245614035088,2,1.0,1.0,ReadingArea_rsl2-rcl2-esl29-rsm2-rcm100-esm29-rsr2-rcr100-esr100,exr/ReadingArea_rsl2-rcl2-esl29-rsm2-rcm100-esm29-rsr2-rcr100-esr100.exr,ReadingArea_rsl2-rcl2-esl29-rsm2-rcm100-esm29-rsr2-rcr100-esr100.npz,,,,,0,113,113,422,,right,red,1.28,489.8997099399567,490.3598930835724,,2,6,6,lightness,readingArea,realistic,75,2023-03-23_17h31.32.846,tripletExp_regina_11082022,2022.2.4,119.76197818514076,
14,8,1,2,0.25,3.10526315789474,2,0.25,1.0,2,0.111111111111111,0.298245614035088,ReadingArea_rsl2-rcl25-esl310-rsm2-rcm25-esm100-rsr2-rcr11-esr29,exr/ReadingArea_rsl2-rcl25-esl310-rsm2-rcm25-esm100-rsr2-rcr11-esr29.exr,ReadingArea_rsl2-rcl25-esl310-rsm2-rcm25-esm100-rsr2-rcr11-esr29.npz,,,,,0,114,114,141,,left,green,3.03,493.8211600780487,494.2712459564209,,2,6,6,lightness,readingArea,realistic,75,2023-03-23_17h31.32.846,tripletExp_regina_11082022,2022.2.4,119.76197818514076,
12,13,14,2,0.027777777777778,3.10526315789474,2,0.111111111111111,3.10526315789474,2,0.25,3.10526315789474,ReadingArea_rsl2-rcl2-esl310-rsm2-rcm11-esm310-rsr2-rcr25-esr310,exr/ReadingArea_rsl2-rcl2-esl310-rsm2-rcm11-esm310-rsr2-rcr25-esr310.exr,ReadingArea_rsl2-rcl2-esl310-rsm2-rcm11-esm310-rsr2-rcr25-esr310.npz,,,,,0,115,115,208,,right,red,3.3,497.7655041217804,498.3119111061096,,2,6,6,lightness,readingArea,realistic,75,2023-03-23_17h31.32.846,tripletExp_regina_11082022,2022.2.4,119.76197818514076,
9,0,3,2,0.444444444444444,1.0,2,0.027777777777778,0.298245614035088,2,0.444444444444444,0.298245614035088,ReadingArea_rsl2-rcl44-esl100-rsm2-rcm2-esm29-rsr2-rcr44-esr29,exr/ReadingArea_rsl2-rcl44-esl100-rsm2-rcm2-esm29-rsr2-rcr44-esr29.exr,ReadingArea_rsl2-rcl44-esl100-rsm2-rcm2-esm29-rsr2-rcr44-esr29.npz,,,,,0,116,116,2,,right,red,3.07,501.7711710929871,502.2336709499359,,2,6,6,lightness,readingArea,realistic,75,2023-03-23_17h31.32.846,tripletExp_regina_11082022,2022.2.4,119.76197818514076,
8,12,3,2,0.25,1.0,2,0.027777777777778,3.10526315789474,2,0.444444444444444,0.298245614035088,ReadingArea_rsl2-rcl25-esl100-rsm2-rcm2-esm310-rsr2-rcr44-esr29,exr/ReadingArea_rsl2-rcl25-esl100-rsm2-rcm2-esm310-rsr2-rcr44-esr29.exr,ReadingArea_rsl2-rcl25-esl100-rsm2-rcm2-esm310-rsr2-rcr44-esr29.npz,,,,,0,117,117,6,,left,green,4.36,507.4467890262604,507.9046769142151,,2,6,6,lightness,readingArea,realistic,75,2023-03-23_17h31.32.846,tripletExp_regina_11082022,2022.2.4,119.76197818514076,
2,3,13,2,0.25,0.298245614035088,2,0.444444444444444,0.298245614035088,2,0.111111111111111,3.10526315789474,ReadingArea_rsl2-rcl25-esl29-rsm2-rcm44-esm29-rsr2-rcr11-esr310,exr/ReadingArea_rsl2-rcl25-esl29-rsm2-rcm44-esm29-rsr2-rcr11-esr310.exr,ReadingArea_rsl2-rcl25-esl29-rsm2-rcm44-esm29-rsr2-rcr11-esr310.npz,,,,,0,118,118,498,,right,red,2.85,511.3695731163025,511.9326441287994,,2,6,6,lightness,readingArea,realistic,75,2023-03-23_17h31.32.846,tripletExp_regina_11082022,2022.2.4,119.76197818514076,
9,12,11,2,0.444444444444444,1.0,2,0.027777777777778,3.10526315789474,2,1.0,1.0,ReadingArea_rsl2-rcl44-esl100-rsm2-rcm2-esm310-rsr2-rcr100-esr100,exr/ReadingArea_rsl2-rcl44-esl100-rsm2-rcm2-esm310-rsr2-rcr100-esr100.exr,ReadingArea_rsl2-rcl44-esl100-rsm2-rcm2-esm310-rsr2-rcr100-esr100.npz,,,,,0,119,119,144,,left,green,1.62,513.6246540546417,,,2,6,6,lightness,readingArea,realistic,75,2023-03-23_17h31.32.846,tripletExp_regina_11082022,2022.2.4,119.76197818514076,
1,5,14,2,0.111111111111111,0.298245614035088,2,1.0,0.298245614035088,2,0.25,3.10526315789474,ReadingArea_rsl2-rcl11-esl29-rsm2-rcm100-esm29-rsr2-rcr25-esr310,exr/ReadingArea_rsl2-rcl11-esl29-rsm2-rcm100-esm29-rsr2-rcr25-esr310.exr,ReadingArea_rsl2-rcl11-esl29-rsm2-rcm100-esm29-rsr2-rcr25-esr310.npz,,,,,0,120,120,191,,right,red,2.61,517.5417098999023,,,2,6,6,lightness,readingArea,realistic,75,2023-03-23_17h31.32.846,tripletExp_regina_11082022,2022.2.4,119.76197818514076,
2,4,13,2,0.25,0.298245614035088,2,0.694444444444444,0.298245614035088,2,0.111111111111111,3.10526315789474,ReadingArea_rsl2-rcl25-esl29-rsm2-rcm69-esm29-rsr2-rcr11-esr310,exr/ReadingArea_rsl2-rcl25-esl29-rsm2-rcm69-esm29-rsr2-rcr11-esr310.exr,ReadingArea_rsl2-rcl25-esl29-rsm2-rcm69-esm29-rsr2-rcr11-esr310.npz,,,,,0,121,121,325,,right,red,4.35,523.2298069000244,523.6885449886322,,2,6,6,lightness,readingArea,realistic,75,2023-03-23_17h31.32.846,tripletExp_regina_11082022,2022.2.4,119.76197818514076,
5,9,12,2,1.0,0.298245614035088,2,0.444444444444444,1.0,2,0.027777777777778,3.10526315789474,ReadingArea_rsl2-rcl100-esl29-rsm2-rcm44-esm100-rsr2-rcr2-esr310,exr/ReadingArea_rsl2-rcl100-esl29-rsm2-rcm44-esm100-rsr2-rcr2-esr310.exr,ReadingArea_rsl2-rcl100-esl29-rsm2-rcm44-esm100-rsr2-rcr2-esr310.npz,,,,,0,122,122,539,,left,green,1.18,525.3771390914917,525.8363420963287,,2,6,6,lightness,readingArea,realistic,75,2023-03-23_17h31.32.846,tripletExp_regina_11082022,2022.2.4,119.76197818514076,
10,14,4,2,0.694444444444444,1.0,2,0.25,3.10526315789474,2,0.694444444444444,0.298245614035088,ReadingArea_rsl2-rcl69-esl100-rsm2-rcm25-esm310-rsr2-rcr69-esr29,exr/ReadingArea_rsl2-rcl69-esl100-rsm2-rcm25-esm310-rsr2-rcr69-esr29.exr,ReadingArea_rsl2-rcl69-esl100-rsm2-rcm25-esm310-rsr2-rcr69-esr29.npz,,,,,0,123,123,267,,left,green,1.3,527.5310010910034,527.9844191074371,,2,6,6,lightness,readingArea,realistic,75,2023-03-23_17h31.32.846,tripletExp_regina_11082022,2022.2.4,119.76197818514076,
2,1,12,2,0.25,0.298245614035088,2,0.111111111111111,0.298245614035088,2,0.027777777777778,3.10526315789474,ReadingArea_rsl2-rcl25-esl29-rsm2-rcm11-esm29-rsr2-rcr2-esr310,exr/ReadingArea_rsl2-rcl25-esl29-rsm2-rcm11-esm29-rsr2-rcr2-esr310.exr,ReadingArea_rsl2-rcl25-esl29-rsm2-rcm11-esm29-rsr2-rcr2-esr310.npz,,,,,0,124,124,12,,right,red,2.6,531.4636130332947,531.9320449829102,,2,6,6,lightness,readingArea,realistic,75,2023-03-23_17h31.32.846,tripletExp_regina_11082022,2022.2.4,119.76197818514076,
6,12,7,2,0.027777777777778,1.0,2,0.027777777777778,3.10526315789474,2,0.111111111111111,1.0,ReadingArea_rsl2-rcl2-esl100-rsm2-rcm2-esm310-rsr2-rcr11-esr100,exr/ReadingArea_rsl2-rcl2-esl100-rsm2-rcm2-esm310-rsr2-rcr11-esr100.exr,ReadingArea_rsl2-rcl2-esl100-rsm2-rcm2-esm310-rsr2-rcr11-esr100.npz,,,,,0,125,125,157,,left,green,3.21,535.4237949848175,535.8807060718536,,2,6,6,lightness,readingArea,realistic,75,2023-03-23_17h31.32.846,tripletExp_regina_11082022,2022.2.4,119.76197818514076,
2,9,10,2,0.25,0.298245614035088,2,0.444444444444444,1.0,2,0.694444444444444,1.0,ReadingArea_rsl2-rcl25-esl29-rsm2-rcm44-esm100-rsr2-rcr69-esr100,exr/ReadingArea_rsl2-rcl25-esl29-rsm2-rcm44-esm100-rsr2-rcr69-esr100.exr,ReadingArea_rsl2-rcl25-esl29-rsm2-rcm44-esm100-rsr2-rcr69-esr100.npz,,,,,0,126,126,117,,left,green,2.73,539.3471410274506,539.8355700969696,,2,6,6,lightness,readingArea,realistic,75,2023-03-23_17h31.32.846,tripletExp_regina_11082022,2022.2.4,119.76197818514076,
13,1,3,2,0.111111111111111,3.10526315789474,2,0.111111111111111,0.298245614035088,2,0.444444444444444,0.298245614035088,ReadingArea_rsl2-rcl11-esl310-rsm2-rcm11-esm29-rsr2-rcr44-esr29,exr/ReadingArea_rsl2-rcl11-esl310-rsm2-rcm11-esm29-rsr2-rcr44-esr29.exr,ReadingArea_rsl2-rcl11-esl310-rsm2-rcm11-esm29-rsr2-rcr44-esr29.npz,,,,,0,127,127,588,,right,red,3.83,545.0421500205994,545.517233133316,,2,6,6,lightness,readingArea,realistic,75,2023-03-23_17h31.32.846,tripletExp_regina_11082022,2022.2.4,119.76197818514076,
9,6,14,2,0.444444444444444,1.0,2,0.027777777777778,1.0,2,0.25,3.10526315789474,ReadingArea_rsl2-rcl44-esl100-rsm2-rcm2-esm100-rsr2-rcr25-esr310,exr/ReadingArea_rsl2-rcl44-esl100-rsm2-rcm2-esm100-rsr2-rcr25-esr310.exr,ReadingArea_rsl2-rcl44-esl100-rsm2-rcm2-esm100-rsr2-rcr25-esr310.npz,,,,,0,128,128,213,,right,red,1.5,547.2418949604034,547.6979269981384,,2,6,6,lightness,readingArea,realistic,75,2023-03-23_17h31.32.846,tripletExp_regina_11082022,2022.2.4,119.76197818514076,
4,11,14,2,0.694444444444444,0.298245614035088,2,1.0,1.0,2,0.25,3.10526315789474,ReadingArea_rsl2-rcl69-esl29-rsm2-rcm100-esm100-rsr2-rcr25-esr310,exr/ReadingArea_rsl2-rcl69-esl29-rsm2-rcm100-esm100-rsr2-rcr25-esr310.exr,ReadingArea_rsl2-rcl69-esl29-rsm2-rcm100-esm100-rsr2-rcr25-esr310.npz,,,,,0,129,129,165,,left,green,1.18,549.3954911231995,549.8430120944977,,2,6,6,lightness,readingArea,realistic,75,2023-03-23_17h31.32.846,tripletExp_regina_11082022,2022.2.4,119.76197818514076,
0,10,12,2,0.027777777777778,0.298245614035088,2,0.694444444444444,1.0,2,0.027777777777778,3.10526315789474,ReadingArea_rsl2-rcl2-esl29-rsm2-rcm69-esm100-rsr2-rcr2-esr310,exr/ReadingArea_rsl2-rcl2-esl29-rsm2-rcm69-esm100-rsr2-rcr2-esr310.exr,ReadingArea_rsl2-rcl2-esl29-rsm2-rcm69-esm100-rsr2-rcr2-esr310.npz,,,,,0,130,130,531,,right,red,1.25,551.5377950668335,552.0115859508514,,2,6,6,lightness,readingArea,realistic,75,2023-03-23_17h31.32.846,tripletExp_regina_11082022,2022.2.4,119.76197818514076,
9,13,0,2,0.444444444444444,1.0,2,0.111111111111111,3.10526315789474,2,0.027777777777778,0.298245614035088,ReadingArea_rsl2-rcl44-esl100-rsm2-rcm11-esm310-rsr2-rcr2-esr29,exr/ReadingArea_rsl2-rcl44-esl100-rsm2-rcm11-esm310-rsr2-rcr2-esr29.exr,ReadingArea_rsl2-rcl44-esl100-rsm2-rcm11-esm310-rsr2-rcr2-esr29.npz,,,,,0,131,131,205,,left,green,2.58,555.4546310901642,555.8938510417938,,2,6,6,lightness,readingArea,realistic,75,2023-03-23_17h31.32.846,tripletExp_regina_11082022,2022.2.4,119.76197818514076,
8,7,13,2,0.25,1.0,2,0.111111111111111,1.0,2,0.111111111111111,3.10526315789474,ReadingArea_rsl2-rcl25-esl100-rsm2-rcm11-esm100-rsr2-rcr11-esr310,exr/ReadingArea_rsl2-rcl25-esl100-rsm2-rcm11-esm100-rsr2-rcr11-esr310.exr,ReadingArea_rsl2-rcl25-esl100-rsm2-rcm11-esm100-rsr2-rcr11-esr310.npz,,,,,0,132,132,512,,left,green,1.04,557.6167409420013,558.0738840103149,,2,6,6,lightness,readingArea,realistic,75,2023-03-23_17h31.32.846,tripletExp_regina_11082022,2022.2.4,119.76197818514076,
11,7,9,2,1.0,1.0,2,0.111111111111111,1.0,2,0.444444444444444,1.0,ReadingArea_rsl2-rcl100-esl100-rsm2-rcm11-esm100-rsr2-rcr44-esr100,exr/ReadingArea_rsl2-rcl100-esl100-rsm2-rcm11-esm100-rsr2-rcr44-esr100.exr,ReadingArea_rsl2-rcl100-esl100-rsm2-rcm11-esm100-rsr2-rcr44-esr100.npz,,,,,0,133,133,521,,right,red,1.14,559.7997140884399,560.2697501182556,,2,6,6,lightness,readingArea,realistic,75,2023-03-23_17h31.32.846,tripletExp_regina_11082022,2022.2.4,119.76197818514076,
11,13,8,2,1.0,1.0,2,0.111111111111111,3.10526315789474,2,0.25,1.0,ReadingArea_rsl2-rcl100-esl100-rsm2-rcm11-esm310-rsr2-rcr25-esr100,exr/ReadingArea_rsl2-rcl100-esl100-rsm2-rcm11-esm310-rsr2-rcr25-esr100.exr,ReadingArea_rsl2-rcl100-esl100-rsm2-rcm11-esm310-rsr2-rcr25-esr100.npz,,,,,0,134,134,198,,right,red,1.08,561.9629409313202,562.4180679321289,,2,6,6,lightness,readingArea,realistic,75,2023-03-23_17h31.32.846,tripletExp_regina_11082022,2022.2.4,119.76197818514076,
0,8,6,2,0.027777777777778,0.298245614035088,2,0.25,1.0,2,0.027777777777778,1.0,ReadingArea_rsl2-rcl2-esl29-rsm2-rcm25-esm100-rsr2-rcr2-esr100,exr/ReadingArea_rsl2-rcl2-esl29-rsm2-rcm25-esm100-rsr2-rcr2-esr100.exr,ReadingArea_rsl2-rcl2-esl29-rsm2-rcm25-esm100-rsr2-rcr2-esr100.npz,,,,,0,135,135,92,,right,red,1.12,564.145653963089,564.6188249588013,,2,6,6,lightness,readingArea,realistic,75,2023-03-23_17h31.32.846,tripletExp_regina_11082022,2022.2.4,119.76197818514076,
11,13,1,2,1.0,1.0,2,0.111111111111111,3.10526315789474,2,0.111111111111111,0.298245614035088,ReadingArea_rsl2-rcl100-esl100-rsm2-rcm11-esm310-rsr2-rcr11-esr29,exr/ReadingArea_rsl2-rcl100-esl100-rsm2-rcm11-esm310-rsr2-rcr11-esr29.exr,ReadingArea_rsl2-rcl100-esl100-rsm2-rcm11-esm310-rsr2-rcr11-esr29.npz,,,,,0,136,136,185,,left,green,4.88,569.8814430236816,570.4145729541779,,2,6,6,lightness,readingArea,realistic,75,2023-03-23_17h31.32.846,tripletExp_regina_11082022,2022.2.4,119.76197818514076,
11,5,8,2,1.0,1.0,2,1.0,0.298245614035088,2,0.25,1.0,ReadingArea_rsl2-rcl100-esl100-rsm2-rcm100-esm29-rsr2-rcr25-esr100,exr/ReadingArea_rsl2-rcl100-esl100-rsm2-rcm100-esm29-rsr2-rcr25-esr100.exr,ReadingArea_rsl2-rcl100-esl100-rsm2-rcm100-esm29-rsr2-rcr25-esr100.npz,,,,,0,137,137,86,,right,red,2.71,573.8874430656433,574.3487749099731,,2,6,6,lightness,readingArea,realistic,75,2023-03-23_17h31.32.846,tripletExp_regina_11082022,2022.2.4,119.76197818514076,
10,5,1,2,0.694444444444444,1.0,2,1.0,0.298245614035088,2,0.111111111111111,0.298245614035088,ReadingArea_rsl2-rcl69-esl100-rsm2-rcm100-esm29-rsr2-rcr11-esr29,exr/ReadingArea_rsl2-rcl69-esl100-rsm2-rcm100-esm29-rsr2-rcr11-esr29.exr,ReadingArea_rsl2-rcl69-esl100-rsm2-rcm100-esm29-rsr2-rcr11-esr29.npz,,,,,0,138,138,152,,left,green,2.2,577.8174300193787,578.2776329517365,,2,6,6,lightness,readingArea,realistic,75,2023-03-23_17h31.32.846,tripletExp_regina_11082022,2022.2.4,119.76197818514076,
0,9,11,2,0.027777777777778,0.298245614035088,2,0.444444444444444,1.0,2,1.0,1.0,ReadingArea_rsl2-rcl2-esl29-rsm2-rcm44-esm100-rsr2-rcr100-esr100,exr/ReadingArea_rsl2-rcl2-esl29-rsm2-rcm44-esm100-rsr2-rcr100-esr100.exr,ReadingArea_rsl2-rcl2-esl29-rsm2-rcm44-esm100-rsr2-rcr100-esr100.npz,,,,,0,139,139,448,,right,red,1.46,579.9874958992004,580.4462780952454,,2,6,6,lightness,readingArea,realistic,75,2023-03-23_17h31.32.846,tripletExp_regina_11082022,2022.2.4,119.76197818514076,
1,0,4,2,0.111111111111111,0.298245614035088,2,0.027777777777778,0.298245614035088,2,0.694444444444444,0.298245614035088,ReadingArea_rsl2-rcl11-esl29-rsm2-rcm2-esm29-rsr2-rcr69-esr29,exr/ReadingArea_rsl2-rcl11-esl29-rsm2-rcm2-esm29-rsr2-rcr69-esr29.exr,ReadingArea_rsl2-rcl11-esl29-rsm2-rcm2-esm29-rsr2-rcr69-esr29.npz,,,,,0,140,140,494,,left,green,2.56,583.9438300132751,,,2,6,6,lightness,readingArea,realistic,75,2023-03-23_17h31.32.846,tripletExp_regina_11082022,2022.2.4,119.76197818514076,
13,11,7,2,0.111111111111111,3.10526315789474,2,1.0,1.0,2,0.111111111111111,1.0,ReadingArea_rsl2-rcl11-esl310-rsm2-rcm100-esm100-rsr2-rcr11-esr100,exr/ReadingArea_rsl2-rcl11-esl310-rsm2-rcm100-esm100-rsr2-rcr11-esr100.exr,ReadingArea_rsl2-rcl11-esl310-rsm2-rcm100-esm100-rsr2-rcr11-esr100.npz,,,,,0,141,141,590,,left,green,1.31,586.1298289299011,586.5914840698242,,2,6,6,lightness,readingArea,realistic,75,2023-03-23_17h31.32.846,tripletExp_regina_11082022,2022.2.4,119.76197818514076,
10,5,2,2,0.694444444444444,1.0,2,1.0,0.298245614035088,2,0.25,0.298245614035088,ReadingArea_rsl2-rcl69-esl100-rsm2-rcm100-esm29-rsr2-rcr25-esr29,exr/ReadingArea_rsl2-rcl69-esl100-rsm2-rcm100-esm29-rsr2-rcr25-esr29.exr,ReadingArea_rsl2-rcl69-esl100-rsm2-rcm100-esm29-rsr2-rcr25-esr29.npz,,,,,0,142,142,299,,right,red,1.46,588.29740691185,588.8496510982513,,2,6,6,lightness,readingArea,realistic,75,2023-03-23_17h31.32.846,tripletExp_regina_11082022,2022.2.4,119.76197818514076,
4,13,1,2,0.694444444444444,0.298245614035088,2,0.111111111111111,3.10526315789474,2,0.111111111111111,0.298245614035088,ReadingArea_rsl2-rcl69-esl29-rsm2-rcm11-esm310-rsr2-rcr11-esr29,exr/ReadingArea_rsl2-rcl69-esl29-rsm2-rcm11-esm310-rsr2-rcr11-esr29.exr,ReadingArea_rsl2-rcl69-esl29-rsm2-rcm11-esm310-rsr2-rcr11-esr29.npz,,,,,0,143,143,192,,left,green,2.94,592.3335750102997,592.8010160923004,,2,6,6,lightness,readingArea,realistic,75,2023-03-23_17h31.32.846,tripletExp_regina_11082022,2022.2.4,119.76197818514076,
14,13,6,2,0.25,3.10526315789474,2,0.111111111111111,3.10526315789474,2,0.027777777777778,1.0,ReadingArea_rsl2-rcl25-esl310-rsm2-rcm11-esm310-rsr2-rcr2-esr100,exr/ReadingArea_rsl2-rcl25-esl310-rsm2-rcm11-esm310-rsr2-rcr2-esr100.exr,ReadingArea_rsl2-rcl25-esl310-rsm2-rcm11-esm310-rsr2-rcr2-esr100.npz,,,,,0,144,144,102,,left,green,2.34,596.2431581020355,596.7875330448151,,2,6,6,lightness,readingArea,realistic,75,2023-03-23_17h31.32.846,tripletExp_regina_11082022,2022.2.4,119.76197818514076,
13,1,7,2,0.111111111111111,3.10526315789474,2,0.111111111111111,0.298245614035088,2,0.111111111111111,1.0,ReadingArea_rsl2-rcl11-esl310-rsm2-rcm11-esm29-rsr2-rcr11-esr100,exr/ReadingArea_rsl2-rcl11-esl310-rsm2-rcm11-esm29-rsr2-rcr11-esr100.exr,ReadingArea_rsl2-rcl11-esl310-rsm2-rcm11-esm29-rsr2-rcr11-esr100.npz,,,,,0,145,145,206,,right,red,2.81,600.2481229305267,600.7111670970917,,2,6,6,lightness,readingArea,realistic,75,2023-03-23_17h31.32.846,tripletExp_regina_11082022,2022.2.4,119.76197818514076,
8,13,2,2,0.25,1.0,2,0.111111111111111,3.10526315789474,2,0.25,0.298245614035088,ReadingArea_rsl2-rcl25-esl100-rsm2-rcm11-esm310-rsr2-rcr25-esr29,exr/ReadingArea_rsl2-rcl25-esl100-rsm2-rcm11-esm310-rsr2-rcr25-esr29.exr,ReadingArea_rsl2-rcl25-esl100-rsm2-rcm11-esm310-rsr2-rcr25-esr29.npz,,,,,0,146,146,376,,left,green,2.99,604.185301065445,604.7643129825592,,2,6,6,lightness,readingArea,realistic,75,2023-03-23_17h31.32.846,tripletExp_regina_11082022,2022.2.4,119.76197818514076,
10,11,4,2,0.694444444444444,1.0,2,1.0,1.0,2,0.694444444444444,0.298245614035088,ReadingArea_rsl2-rcl69-esl100-rsm2-rcm100-esm100-rsr2-rcr69-esr29,exr/ReadingArea_rsl2-rcl69-esl100-rsm2-rcm100-esm100-rsr2-rcr69-esr29.exr,ReadingArea_rsl2-rcl69-esl100-rsm2-rcm100-esm100-rsr2-rcr69-esr29.npz,,,,,0,147,147,239,,left,green,1.11,606.473629951477,606.9349970817566,,2,6,6,lightness,readingArea,realistic,75,2023-03-23_17h31.32.846,tripletExp_regina_11082022,2022.2.4,119.76197818514076,
13,8,5,2,0.111111111111111,3.10526315789474,2,0.25,1.0,2,1.0,0.298245614035088,ReadingArea_rsl2-rcl11-esl310-rsm2-rcm25-esm100-rsr2-rcr100-esr29,exr/ReadingArea_rsl2-rcl11-esl310-rsm2-rcm25-esm100-rsr2-rcr100-esr29.exr,ReadingArea_rsl2-rcl11-esl310-rsm2-rcm25-esm100-rsr2-rcr100-esr29.npz,,,,,0,148,148,209,,left,green,1.66,608.6449959278107,609.0903129577637,,2,6,6,lightness,readingArea,realistic,75,2023-03-23_17h31.32.846,tripletExp_regina_11082022,2022.2.4,119.76197818514076,
10,13,6,2,0.694444444444444,1.0,2,0.111111111111111,3.10526315789474,2,0.027777777777778,1.0,ReadingArea_rsl2-rcl69-esl100-rsm2-rcm11-esm310-rsr2-rcr2-esr100,exr/ReadingArea_rsl2-rcl69-esl100-rsm2-rcm11-esm310-rsr2-rcr2-esr100.exr,ReadingArea_rsl2-rcl69-esl100-rsm2-rcm11-esm310-rsr2-rcr2-esr100.npz,,,,,0,149,149,351,,left,green,2.89,612.5435500144958,612.7471690177917,,2,6,6,lightness,readingArea,realistic,75,2023-03-23_17h31.32.846,tripletExp_regina_11082022,2022.2.4,119.76197818514076,
4,3,9,2,0.694444444444444,0.298245614035088,2,0.444444444444444,0.298245614035088,2,0.444444444444444,1.0,ReadingArea_rsl2-rcl69-esl29-rsm2-rcm44-esm29-rsr2-rcr44-esr100,exr/ReadingArea_rsl2-rcl69-esl29-rsm2-rcm44-esm29-rsr2-rcr44-esr100.exr,ReadingArea_rsl2-rcl69-esl29-rsm2-rcm44-esm29-rsr2-rcr44-esr100.npz,,,,,0,150,150,451,,left,green,2.53,638.9433751106262,639.3971219062805,,3,6,6,lightness,readingArea,realistic,75,2023-03-23_17h31.32.846,tripletExp_regina_11082022,2022.2.4,119.76197818514076,
0,8,9,2,0.027777777777778,0.298245614035088,2,0.25,1.0,2,0.444444444444444,1.0,ReadingArea_rsl2-rcl2-esl29-rsm2-rcm25-esm100-rsr2-rcr44-esr100,exr/ReadingArea_rsl2-rcl2-esl29-rsm2-rcm25-esm100-rsr2-rcr44-esr100.exr,ReadingArea_rsl2-rcl2-esl29-rsm2-rcm25-esm100-rsr2-rcr44-esr100.npz,,,,,0,151,151,541,,right,red,0.91,641.0859370231628,641.69606590271,,3,6,6,lightness,readingArea,realistic,75,2023-03-23_17h31.32.846,tripletExp_regina_11082022,2022.2.4,119.76197818514076,
7,5,11,2,0.111111111111111,1.0,2,1.0,0.298245614035088,2,1.0,1.0,ReadingArea_rsl2-rcl11-esl100-rsm2-rcm100-esm29-rsr2-rcr100-esr100,exr/ReadingArea_rsl2-rcl11-esl100-rsm2-rcm100-esm29-rsr2-rcr100-esr100.exr,ReadingArea_rsl2-rcl11-esl100-rsm2-rcm100-esm29-rsr2-rcr100-esr100.npz,,,,,0,152,152,10,,right,red,1.39,643.3904209136963,643.8570809364319,,3,6,6,lightness,readingArea,realistic,75,2023-03-23_17h31.32.846,tripletExp_regina_11082022,2022.2.4,119.76197818514076,
14,3,6,2,0.25,3.10526315789474,2,0.444444444444444,0.298245614035088,2,0.027777777777778,1.0,ReadingArea_rsl2-rcl25-esl310-rsm2-rcm44-esm29-rsr2-rcr2-esr100,exr/ReadingArea_rsl2-rcl25-esl310-rsm2-rcm44-esm29-rsr2-rcr2-esr100.exr,ReadingArea_rsl2-rcl25-esl310-rsm2-rcm44-esm29-rsr2-rcr2-esr100.npz,,,,,0,153,153,244,,right,red,1.34,645.5835211277008,646.023106098175,,3,6,6,lightness,readingArea,realistic,75,2023-03-23_17h31.32.846,tripletExp_regina_11082022,2022.2.4,119.76197818514076,
12,5,4,2,0.027777777777778,3.10526315789474,2,1.0,0.298245614035088,2,0.694444444444444,0.298245614035088,ReadingArea_rsl2-rcl2-esl310-rsm2-rcm100-esm29-rsr2-rcr69-esr29,exr/ReadingArea_rsl2-rcl2-esl310-rsm2-rcm100-esm29-rsr2-rcr69-esr29.exr,ReadingArea_rsl2-rcl2-esl310-rsm2-rcm100-esm29-rsr2-rcr69-esr29.npz,,,,,0,154,154,566,,right,red,1.13,647.7144060134888,648.1805160045624,,3,6,6,lightness,readingArea,realistic,75,2023-03-23_17h31.32.846,tripletExp_regina_11082022,2022.2.4,119.76197818514076,
6,1,9,2,0.027777777777778,1.0,2,0.111111111111111,0.298245614035088,2,0.444444444444444,1.0,ReadingArea_rsl2-rcl2-esl100-rsm2-rcm11-esm29-rsr2-rcr44-esr100,exr/ReadingArea_rsl2-rcl2-esl100-rsm2-rcm11-esm29-rsr2-rcr44-esr100.exr,ReadingArea_rsl2-rcl2-esl100-rsm2-rcm11-esm29-rsr2-rcr44-esr100.npz,,,,,0,155,155,74,,left,green,1.06,649.8723919391632,650.3237109184265,,3,6,6,lightness,readingArea,realistic,75,2023-03-23_17h31.32.846,tripletExp_regina_11082022,2022.2.4,119.76197818514076,
2,9,8,2,0.25,0.298245614035088,2,0.444444444444444,1.0,2,0.25,1.0,ReadingArea_rsl2-rcl25-esl29-rsm2-rcm44-esm100-rsr2-rcr25-esr100,exr/ReadingArea_rsl2-rcl25-esl29-rsm2-rcm44-esm100-rsr2-rcr25-esr100.exr,ReadingArea_rsl2-rcl25-esl29-rsm2-rcm44-esm100-rsr2-rcr25-esr100.npz,,,,,0,156,156,407,,right,red,1.47,652.0459270477295,652.6170480251312,,3,6,6,lightness,readingArea,realistic,75,2023-03-23_17h31.32.846,tripletExp_regina_11082022,2022.2.4,119.76197818514076,
3,14,5,2,0.444444444444444,0.298245614035088,2,0.25,3.10526315789474,2,1.0,0.298245614035088,ReadingArea_rsl2-rcl44-esl29-rsm2-rcm25-esm310-rsr2-rcr100-esr29,exr/ReadingArea_rsl2-rcl44-esl29-rsm2-rcm25-esm310-rsr2-rcr100-esr29.exr,ReadingArea_rsl2-rcl44-esl29-rsm2-rcm25-esm310-rsr2-rcr100-esr29.npz,,,,,0,157,157,131,,right,red,3.0,656.0691571235657,656.5342910289764,,3,6,6,lightness,readingArea,realistic,75,2023-03-23_17h31.32.846,tripletExp_regina_11082022,2022.2.4,119.76197818514076,
6,12,0,2,0.027777777777778,1.0,2,0.027777777777778,3.10526315789474,2,0.027777777777778,0.298245614035088,ReadingArea_rsl2-rcl2-esl100-rsm2-rcm2-esm310-rsr2-rcr2-esr29,exr/ReadingArea_rsl2-rcl2-esl100-rsm2-rcm2-esm310-rsr2-rcr2-esr29.exr,ReadingArea_rsl2-rcl2-esl100-rsm2-rcm2-esm310-rsr2-rcr2-esr29.npz,,,,,0,158,158,23,,left,green,1.3,658.2590439319611,658.7136030197144,,3,6,6,lightness,readingArea,realistic,75,2023-03-23_17h31.32.846,tripletExp_regina_11082022,2022.2.4,119.76197818514076,
14,4,8,2,0.25,3.10526315789474,2,0.694444444444444,0.298245614035088,2,0.25,1.0,ReadingArea_rsl2-rcl25-esl310-rsm2-rcm69-esm29-rsr2-rcr25-esr100,exr/ReadingArea_rsl2-rcl25-esl310-rsm2-rcm69-esm29-rsr2-rcr25-esr100.exr,ReadingArea_rsl2-rcl25-esl310-rsm2-rcm69-esm29-rsr2-rcr25-esr100.npz,,,,,0,159,159,253,,right,red,4.26,663.9421739578247,664.418445110321,,3,6,6,lightness,readingArea,realistic,75,2023-03-23_17h31.32.846,tripletExp_regina_11082022,2022.2.4,119.76197818514076,
11,3,12,2,1.0,1.0,2,0.444444444444444,0.298245614035088,2,0.027777777777778,3.10526315789474,ReadingArea_rsl2-rcl100-esl100-rsm2-rcm44-esm29-rsr2-rcr2-esr310,exr/ReadingArea_rsl2-rcl100-esl100-rsm2-rcm44-esm29-rsr2-rcr2-esr310.exr,ReadingArea_rsl2-rcl100-esl100-rsm2-rcm44-esm29-rsr2-rcr2-esr310.npz,,,,,0,160,160,355,,left,green,2.53,667.8716020584106,668.412015914917,,3,6,6,lightness,readingArea,realistic,75,2023-03-23_17h31.32.846,tripletExp_regina_11082022,2022.2.4,119.76197818514076,
14,6,12,2,0.25,3.10526315789474,2,0.027777777777778,1.0,2,0.027777777777778,3.10526315789474,ReadingArea_rsl2-rcl25-esl310-rsm2-rcm2-esm100-rsr2-rcr2-esr310,exr/ReadingArea_rsl2-rcl25-esl310-rsm2-rcm2-esm100-rsr2-rcr2-esr310.exr,ReadingArea_rsl2-rcl25-esl310-rsm2-rcm2-esm100-rsr2-rcr2-esr310.npz,,,,,0,161,161,242,,right,red,1.18,670.1102340221405,670.6009659767151,,3,6,6,lightness,readingArea,realistic,75,2023-03-23_17h31.32.846,tripletExp_regina_11082022,2022.2.4,119.76197818514076,
11,7,12,2,1.0,1.0,2,0.111111111111111,1.0,2,0.027777777777778,3.10526315789474,ReadingArea_rsl2-rcl100-esl100-rsm2-rcm11-esm100-rsr2-rcr2-esr310,exr/ReadingArea_rsl2-rcl100-esl100-rsm2-rcm11-esm100-rsr2-rcr2-esr310.exr,ReadingArea_rsl2-rcl100-esl100-rsm2-rcm11-esm100-rsr2-rcr2-esr310.npz,,,,,0,162,162,352,,right,red,1.36,672.3269739151001,672.7984380722046,,3,6,6,lightness,readingArea,realistic,75,2023-03-23_17h31.32.846,tripletExp_regina_11082022,2022.2.4,119.76197818514076,
12,7,9,2,0.027777777777778,3.10526315789474,2,0.111111111111111,1.0,2,0.444444444444444,1.0,ReadingArea_rsl2-rcl2-esl310-rsm2-rcm11-esm100-rsr2-rcr44-esr100,exr/ReadingArea_rsl2-rcl2-esl310-rsm2-rcm11-esm100-rsr2-rcr44-esr100.exr,ReadingArea_rsl2-rcl2-esl310-rsm2-rcm11-esm100-rsr2-rcr44-esr100.npz,,,,,0,163,163,124,,right,red,2.3,676.2688019275665,676.9275901317596,,3,6,6,lightness,readingArea,realistic,75,2023-03-23_17h31.32.846,tripletExp_regina_11082022,2022.2.4,119.76197818514076,
3,7,8,2,0.444444444444444,0.298245614035088,2,0.111111111111111,1.0,2,0.25,1.0,ReadingArea_rsl2-rcl44-esl29-rsm2-rcm11-esm100-rsr2-rcr25-esr100,exr/ReadingArea_rsl2-rcl44-esl29-rsm2-rcm11-esm100-rsr2-rcr25-esr100.exr,ReadingArea_rsl2-rcl44-esl29-rsm2-rcm11-esm100-rsr2-rcr25-esr100.npz,,,,,0,164,164,246,,left,green,2.61,680.377613067627,680.8311290740967,,3,6,6,lightness,readingArea,realistic,75,2023-03-23_17h31.32.846,tripletExp_regina_11082022,2022.2.4,119.76197818514076,
0,2,1,2,0.027777777777778,0.298245614035088,2,0.25,0.298245614035088,2,0.111111111111111,0.298245614035088,ReadingArea_rsl2-rcl2-esl29-rsm2-rcm25-esm29-rsr2-rcr11-esr29,exr/ReadingArea_rsl2-rcl2-esl29-rsm2-rcm25-esm29-rsr2-rcr11-esr29.exr,ReadingArea_rsl2-rcl2-esl29-rsm2-rcm25-esm29-rsr2-rcr11-esr29.npz,,,,,0,165,165,527,,right,red,1.12,682.5524470806122,683.0295579433441,,3,6,6,lightness,readingArea,realistic,75,2023-03-23_17h31.32.846,tripletExp_regina_11082022,2022.2.4,119.76197818514076,
4,10,9,2,0.694444444444444,0.298245614035088,2,0.694444444444444,1.0,2,0.444444444444444,1.0,ReadingArea_rsl2-rcl69-esl29-rsm2-rcm69-esm100-rsr2-rcr44-esr100,exr/ReadingArea_rsl2-rcl69-esl29-rsm2-rcm69-esm100-rsr2-rcr44-esr100.exr,ReadingArea_rsl2-rcl69-esl29-rsm2-rcm69-esm100-rsr2-rcr44-esr100.npz,,,,,0,166,166,516,,right,red,1.36,684.7181570529938,,,3,6,6,lightness,readingArea,realistic,75,2023-03-23_17h31.32.846,tripletExp_regina_11082022,2022.2.4,119.76197818514076,
7,13,4,2,0.111111111111111,1.0,2,0.111111111111111,3.10526315789474,2,0.694444444444444,0.298245614035088,ReadingArea_rsl2-rcl11-esl100-rsm2-rcm11-esm310-rsr2-rcr69-esr29,exr/ReadingArea_rsl2-rcl11-esl100-rsm2-rcm11-esm310-rsr2-rcr69-esr29.exr,ReadingArea_rsl2-rcl11-esl100-rsm2-rcm11-esm310-rsr2-rcr69-esr29.npz,,,,,0,167,167,456,,left,green,2.76,688.6436219215393,,,3,6,6,lightness,readingArea,realistic,75,2023-03-23_17h31.32.846,tripletExp_regina_11082022,2022.2.4,119.76197818514076,
2,1,13,2,0.25,0.298245614035088,2,0.111111111111111,0.298245614035088,2,0.111111111111111,3.10526315789474,ReadingArea_rsl2-rcl25-esl29-rsm2-rcm11-esm29-rsr2-rcr11-esr310,exr/ReadingArea_rsl2-rcl25-esl29-rsm2-rcm11-esm29-rsr2-rcr11-esr310.exr,ReadingArea_rsl2-rcl25-esl29-rsm2-rcm11-esm29-rsr2-rcr11-esr310.npz,,,,,0,168,168,290,,left,green,2.34,692.57674908638,693.0468990802765,,3,6,6,lightness,readingArea,realistic,75,2023-03-23_17h31.32.846,tripletExp_regina_11082022,2022.2.4,119.76197818514076,
9,0,14,2,0.444444444444444,1.0,2,0.027777777777778,0.298245614035088,2,0.25,3.10526315789474,ReadingArea_rsl2-rcl44-esl100-rsm2-rcm2-esm29-rsr2-rcr25-esr310,exr/ReadingArea_rsl2-rcl44-esl100-rsm2-rcm2-esm29-rsr2-rcr25-esr310.exr,ReadingArea_rsl2-rcl44-esl100-rsm2-rcm2-esm29-rsr2-rcr25-esr310.npz,,,,,0,169,169,550,,left,green,2.97,696.5095551013947,696.9704430103302,,3,6,6,lightness,readingArea,realistic,75,2023-03-23_17h31.32.846,tripletExp_regina_11082022,2022.2.4,119.76197818514076,
4,9,13,2,0.694444444444444,0.298245614035088,2,0.444444444444444,1.0,2,0.111111111111111,3.10526315789474,ReadingArea_rsl2-rcl69-esl29-rsm2-rcm44-esm100-rsr2-rcr11-esr310,exr/ReadingArea_rsl2-rcl69-esl29-rsm2-rcm44-esm100-rsr2-rcr11-esr310.exr,ReadingArea_rsl2-rcl69-esl29-rsm2-rcm44-esm100-rsr2-rcr11-esr310.npz,,,,,0,170,170,488,,left,green,2.87,700.4733150005341,700.939446926117,,3,6,6,lightness,readingArea,realistic,75,2023-03-23_17h31.32.846,tripletExp_regina_11082022,2022.2.4,119.76197818514076,
13,6,1,2,0.111111111111111,3.10526315789474,2,0.027777777777778,1.0,2,0.111111111111111,0.298245614035088,ReadingArea_rsl2-rcl11-esl310-rsm2-rcm2-esm100-rsr2-rcr11-esr29,exr/ReadingArea_rsl2-rcl11-esl310-rsm2-rcm2-esm100-rsr2-rcr11-esr29.exr,ReadingArea_rsl2-rcl11-esl310-rsm2-rcm2-esm100-rsr2-rcr11-esr29.npz,,,,,0,171,171,486,,right,red,1.25,702.6282029151917,703.1588280200958,,3,6,6,lightness,readingArea,realistic,75,2023-03-23_17h31.32.846,tripletExp_regina_11082022,2022.2.4,119.76197818514076,
3,6,4,2,0.444444444444444,0.298245614035088,2,0.027777777777778,1.0,2,0.694444444444444,0.298245614035088,ReadingArea_rsl2-rcl44-esl29-rsm2-rcm2-esm100-rsr2-rcr69-esr29,exr/ReadingArea_rsl2-rcl44-esl29-rsm2-rcm2-esm100-rsr2-rcr69-esr29.exr,ReadingArea_rsl2-rcl44-esl29-rsm2-rcm2-esm100-rsr2-rcr69-esr29.npz,,,,,0,172,172,154,,left,green,1.44,704.8607220649719,705.3636729717255,,3,6,6,lightness,readingArea,realistic,75,2023-03-23_17h31.32.846,tripletExp_regina_11082022,2022.2.4,119.76197818514076,
13,2,4,2,0.111111111111111,3.10526315789474,2,0.25,0.298245614035088,2,0.694444444444444,0.298245614035088,ReadingArea_rsl2-rcl11-esl310-rsm2-rcm25-esm29-rsr2-rcr69-esr29,exr/ReadingArea_rsl2-rcl11-esl310-rsm2-rcm25-esm29-rsr2-rcr69-esr29.exr,ReadingArea_rsl2-rcl11-esl310-rsm2-rcm25-esm29-rsr2-rcr69-esr29.npz,,,,,0,173,173,307,,left,green,2.92,708.8373219966888,709.3842298984528,,3,6,6,lightness,readingArea,realistic,75,2023-03-23_17h31.32.846,tripletExp_regina_11082022,2022.2.4,119.76197818514076,
0,14,11,2,0.027777777777778,0.298245614035088,2,0.25,3.10526315789474,2,1.0,1.0,ReadingArea_rsl2-rcl2-esl29-rsm2-rcm25-esm310-rsr2-rcr100-esr100,exr/ReadingArea_rsl2-rcl2-esl29-rsm2-rcm25-esm310-rsr2-rcr100-esr100.exr,ReadingArea_rsl2-rcl2-esl29-rsm2-rcm25-esm310-rsr2-rcr100-esr100.npz,,,,,0,174,174,557,,right,red,3.02,712.8450200557709,713.3145520687103,,3,6,6,lightness,readingArea,realistic,75,2023-03-23_17h31.32.846,tripletExp_regina_11082022,2022.2.4,119.76197818514076,
9,6,13,2,0.444444444444444,1.0,2,0.027777777777778,1.0,2,0.111111111111111,3.10526315789474,ReadingArea_rsl2-rcl44-esl100-rsm2-rcm2-esm100-rsr2-rcr11-esr310,exr/ReadingArea_rsl2-rcl44-esl100-rsm2-rcm2-esm100-rsr2-rcr11-esr310.exr,ReadingArea_rsl2-rcl44-esl100-rsm2-rcm2-esm100-rsr2-rcr11-esr310.npz,,,,,0,175,175,285,,right,red,1.81,715.0091469287872,715.477420091629,,3,6,6,lightness,readingArea,realistic,75,2023-03-23_17h31.32.846,tripletExp_regina_11082022,2022.2.4,119.76197818514076,
8,13,9,2,0.25,1.0,2,0.111111111111111,3.10526315789474,2,0.444444444444444,1.0,ReadingArea_rsl2-rcl25-esl100-rsm2-rcm11-esm310-rsr2-rcr44-esr100,exr/ReadingArea_rsl2-rcl25-esl100-rsm2-rcm11-esm310-rsr2-rcr44-esr100.exr,ReadingArea_rsl2-rcl25-esl100-rsm2-rcm11-esm310-rsr2-rcr44-esr100.npz,,,,,0,176,176,487,,left,green,1.67,717.174497127533,717.639398097992,,3,6,6,lightness,readingArea,realistic,75,2023-03-23_17h31.32.846,tripletExp_regina_11082022,2022.2.4,119.76197818514076,
9,13,6,2,0.444444444444444,1.0,2,0.111111111111111,3.10526315789474,2,0.027777777777778,1.0,ReadingArea_rsl2-rcl44-esl100-rsm2-rcm11-esm310-rsr2-rcr2-esr100,exr/ReadingArea_rsl2-rcl44-esl100-rsm2-rcm11-esm310-rsr2-rcr2-esr100.exr,ReadingArea_rsl2-rcl44-esl100-rsm2-rcm11-esm310-rsr2-rcr2-esr100.npz,,,,,0,177,177,13,,left,green,1.55,719.337592124939,719.9024269580841,,3,6,6,lightness,readingArea,realistic,75,2023-03-23_17h31.32.846,tripletExp_regina_11082022,2022.2.4,119.76197818514076,
3,5,7,2,0.444444444444444,0.298245614035088,2,1.0,0.298245614035088,2,0.111111111111111,1.0,ReadingArea_rsl2-rcl44-esl29-rsm2-rcm100-esm29-rsr2-rcr11-esr100,exr/ReadingArea_rsl2-rcl44-esl29-rsm2-rcm100-esm29-rsr2-rcr11-esr100.exr,ReadingArea_rsl2-rcl44-esl29-rsm2-rcm100-esm29-rsr2-rcr11-esr100.npz,,,,,0,178,178,474,,left,green,1.26,721.5933179855347,722.058226108551,,3,6,6,lightness,readingArea,realistic,75,2023-03-23_17h31.32.846,tripletExp_regina_11082022,2022.2.4,119.76197818514076,
13,0,8,2,0.111111111111111,3.10526315789474,2,0.027777777777778,0.298245614035088,2,0.25,1.0,ReadingArea_rsl2-rcl11-esl310-rsm2-rcm2-esm29-rsr2-rcr25-esr100,exr/ReadingArea_rsl2-rcl11-esl310-rsm2-rcm2-esm29-rsr2-rcr25-esr100.exr,ReadingArea_rsl2-rcl11-esl310-rsm2-rcm2-esm29-rsr2-rcr25-esr100.npz,,,,,0,179,179,249,,right,red,4.45,727.2744660377502,,,3,6,6,lightness,readingArea,realistic,75,2023-03-23_17h31.32.846,tripletExp_regina_11082022,2022.2.4,119.76197818514076,
2,5,0,2,0.25,0.298245614035088,2,1.0,0.298245614035088,2,0.027777777777778,0.298245614035088,ReadingArea_rsl2-rcl25-esl29-rsm2-rcm100-esm29-rsr2-rcr2-esr29,exr/ReadingArea_rsl2-rcl25-esl29-rsm2-rcm100-esm29-rsr2-rcr2-esr29.exr,ReadingArea_rsl2-rcl25-esl29-rsm2-rcm100-esm29-rsr2-rcr2-esr29.npz,,,,,0,180,180,414,,left,green,1.19,729.451719045639,729.8901278972626,,3,6,6,lightness,readingArea,realistic,75,2023-03-23_17h31.32.846,tripletExp_regina_11082022,2022.2.4,119.76197818514076,
2,9,11,2,0.25,0.298245614035088,2,0.444444444444444,1.0,2,1.0,1.0,ReadingArea_rsl2-rcl25-esl29-rsm2-rcm44-esm100-rsr2-rcr100-esr100,exr/ReadingArea_rsl2-rcl25-esl29-rsm2-rcm44-esm100-rsr2-rcr100-esr100.exr,ReadingArea_rsl2-rcl25-esl29-rsm2-rcm44-esm100-rsr2-rcr100-esr100.npz,,,,,0,181,181,164,,right,red,1.14,731.5821719169617,732.0535321235657,,3,6,6,lightness,readingArea,realistic,75,2023-03-23_17h31.32.846,tripletExp_regina_11082022,2022.2.4,119.76197818514076,
12,5,2,2,0.027777777777778,3.10526315789474,2,1.0,0.298245614035088,2,0.25,0.298245614035088,ReadingArea_rsl2-rcl2-esl310-rsm2-rcm100-esm29-rsr2-rcr25-esr29,exr/ReadingArea_rsl2-rcl2-esl310-rsm2-rcm100-esm29-rsr2-rcr25-esr29.exr,ReadingArea_rsl2-rcl2-esl310-rsm2-rcm100-esm29-rsr2-rcr25-esr29.npz,,,,,0,182,182,415,,right,red,1.48,733.7415370941162,734.2711710929871,,3,6,6,lightness,readingArea,realistic,75,2023-03-23_17h31.32.846,tripletExp_regina_11082022,2022.2.4,119.76197818514076,
4,7,10,2,0.694444444444444,0.298245614035088,2,0.111111111111111,1.0,2,0.694444444444444,1.0,ReadingArea_rsl2-rcl69-esl29-rsm2-rcm11-esm100-rsr2-rcr69-esr100,exr/ReadingArea_rsl2-rcl69-esl29-rsm2-rcm11-esm100-rsr2-rcr69-esr100.exr,ReadingArea_rsl2-rcl69-esl29-rsm2-rcm11-esm100-rsr2-rcr69-esr100.npz,,,,,0,183,183,8,,left,green,1.48,735.9631350040436,736.4229259490967,,3,6,6,lightness,readingArea,realistic,75,2023-03-23_17h31.32.846,tripletExp_regina_11082022,2022.2.4,119.76197818514076,
10,0,14,2,0.694444444444444,1.0,2,0.027777777777778,0.298245614035088,2,0.25,3.10526315789474,ReadingArea_rsl2-rcl69-esl100-rsm2-rcm2-esm29-rsr2-rcr25-esr310,exr/ReadingArea_rsl2-rcl69-esl100-rsm2-rcm2-esm29-rsr2-rcr25-esr310.exr,ReadingArea_rsl2-rcl69-esl100-rsm2-rcm2-esm29-rsr2-rcr25-esr310.npz,,,,,0,184,184,95,,right,red,1.49,738.1145360469818,738.565290927887,,3,6,6,lightness,readingArea,realistic,75,2023-03-23_17h31.32.846,tripletExp_regina_11082022,2022.2.4,119.76197818514076,
12,9,11,2,0.027777777777778,3.10526315789474,2,0.444444444444444,1.0,2,1.0,1.0,ReadingArea_rsl2-rcl2-esl310-rsm2-rcm44-esm100-rsr2-rcr100-esr100,exr/ReadingArea_rsl2-rcl2-esl310-rsm2-rcm44-esm100-rsr2-rcr100-esr100.exr,ReadingArea_rsl2-rcl2-esl310-rsm2-rcm44-esm100-rsr2-rcr100-esr100.npz,,,,,0,185,185,18,,right,red,1.33,740.280473947525,740.7664151191711,,3,6,6,lightness,readingArea,realistic,75,2023-03-23_17h31.32.846,tripletExp_regina_11082022,2022.2.4,119.76197818514076,
10,11,5,2,0.694444444444444,1.0,2,1.0,1.0,2,1.0,0.298245614035088,ReadingArea_rsl2-rcl69-esl100-rsm2-rcm100-esm100-rsr2-rcr100-esr29,exr/ReadingArea_rsl2-rcl69-esl100-rsm2-rcm100-esm100-rsr2-rcr100-esr29.exr,ReadingArea_rsl2-rcl69-esl100-rsm2-rcm100-esm100-rsr2-rcr100-esr29.npz,,,,,0,186,186,514,,left,green,1.18,742.4616739749908,742.9273989200592,,3,6,6,lightness,readingArea,realistic,75,2023-03-23_17h31.32.846,tripletExp_regina_11082022,2022.2.4,119.76197818514076,
12,6,8,2,0.027777777777778,3.10526315789474,2,0.027777777777778,1.0,2,0.25,1.0,ReadingArea_rsl2-rcl2-esl310-rsm2-rcm2-esm100-rsr2-rcr25-esr100,exr/ReadingArea_rsl2-rcl2-esl310-rsm2-rcm2-esm100-rsr2-rcr25-esr100.exr,ReadingArea_rsl2-rcl2-esl310-rsm2-rcm2-esm100-rsr2-rcr25-esr100.npz,,,,,0,187,187,540,,left,green,1.53,744.6241819858551,745.0907990932465,,3,6,6,lightness,readingArea,realistic,75,2023-03-23_17h31.32.846,tripletExp_regina_11082022,2022.2.4,119.76197818514076,
1,13,8,2,0.111111111111111,0.298245614035088,2,0.111111111111111,3.10526315789474,2,0.25,1.0,ReadingArea_rsl2-rcl11-esl29-rsm2-rcm11-esm310-rsr2-rcr25-esr100,exr/ReadingArea_rsl2-rcl11-esl29-rsm2-rcm11-esm310-rsr2-rcr25-esr100.exr,ReadingArea_rsl2-rcl11-esl29-rsm2-rcm11-esm310-rsr2-rcr25-esr100.npz,,,,,0,188,188,64,,right,red,1.58,746.7890059947968,747.3022611141205,,3,6,6,lightness,readingArea,realistic,75,2023-03-23_17h31.32.846,tripletExp_regina_11082022,2022.2.4,119.76197818514076,
14,5,10,2,0.25,3.10526315789474,2,1.0,0.298245614035088,2,0.694444444444444,1.0,ReadingArea_rsl2-rcl25-esl310-rsm2-rcm100-esm29-rsr2-rcr69-esr100,exr/ReadingArea_rsl2-rcl25-esl310-rsm2-rcm100-esm29-rsr2-rcr69-esr100.exr,ReadingArea_rsl2-rcl25-esl310-rsm2-rcm100-esm29-rsr2-rcr69-esr100.npz,,,,,0,189,189,170,,right,red,4.03,752.521721124649,753.3239839076996,,3,6,6,lightness,readingArea,realistic,75,2023-03-23_17h31.32.846,tripletExp_regina_11082022,2022.2.4,119.76197818514076,
4,2,13,2,0.694444444444444,0.298245614035088,2,0.25,0.298245614035088,2,0.111111111111111,3.10526315789474,ReadingArea_rsl2-rcl69-esl29-rsm2-rcm25-esm29-rsr2-rcr11-esr310,exr/ReadingArea_rsl2-rcl69-esl29-rsm2-rcm25-esm29-rsr2-rcr11-esr310.exr,ReadingArea_rsl2-rcl69-esl29-rsm2-rcm25-esm29-rsr2-rcr11-esr310.npz,,,,,0,190,190,304,,left,green,3.05,756.7855479717255,757.2479200363159,,3,6,6,lightness,readingArea,realistic,75,2023-03-23_17h31.32.846,tripletExp_regina_11082022,2022.2.4,119.76197818514076,
3,0,4,2,0.444444444444444,0.298245614035088,2,0.027777777777778,0.298245614035088,2,0.694444444444444,0.298245614035088,ReadingArea_rsl2-rcl44-esl29-rsm2-rcm2-esm29-rsr2-rcr69-esr29,exr/ReadingArea_rsl2-rcl44-esl29-rsm2-rcm2-esm29-rsr2-rcr69-esr29.exr,ReadingArea_rsl2-rcl44-esl29-rsm2-rcm2-esm29-rsr2-rcr69-esr29.npz,,,,,0,191,191,111,,left,green,2.77,760.7124259471893,761.1918869018555,,3,6,6,lightness,readingArea,realistic,75,2023-03-23_17h31.32.846,tripletExp_regina_11082022,2022.2.4,119.76197818514076,
13,10,7,2,0.111111111111111,3.10526315789474,2,0.694444444444444,1.0,2,0.111111111111111,1.0,ReadingArea_rsl2-rcl11-esl310-rsm2-rcm69-esm100-rsr2-rcr11-esr100,exr/ReadingArea_rsl2-rcl11-esl310-rsm2-rcm69-esm100-rsr2-rcr11-esr100.exr,ReadingArea_rsl2-rcl11-esl310-rsm2-rcm69-esm100-rsr2-rcr11-esr100.npz,,,,,0,192,192,385,,left,green,1.31,762.9117999076843,763.3608860969543,,3,6,6,lightness,readingArea,realistic,75,2023-03-23_17h31.32.846,tripletExp_regina_11082022,2022.2.4,119.76197818514076,
6,5,11,2,0.027777777777778,1.0,2,1.0,0.298245614035088,2,1.0,1.0,ReadingArea_rsl2-rcl2-esl100-rsm2-rcm100-esm29-rsr2-rcr100-esr100,exr/ReadingArea_rsl2-rcl2-esl100-rsm2-rcm100-esm29-rsr2-rcr100-esr100.exr,ReadingArea_rsl2-rcl2-esl100-rsm2-rcm100-esm29-rsr2-rcr100-esr100.npz,,,,,0,193,193,289,,right,red,1.2,765.0512800216675,765.5034110546112,,3,6,6,lightness,readingArea,realistic,75,2023-03-23_17h31.32.846,tripletExp_regina_11082022,2022.2.4,119.76197818514076,
12,8,6,2,0.027777777777778,3.10526315789474,2,0.25,1.0,2,0.027777777777778,1.0,ReadingArea_rsl2-rcl2-esl310-rsm2-rcm25-esm100-rsr2-rcr2-esr100,exr/ReadingArea_rsl2-rcl2-esl310-rsm2-rcm25-esm100-rsr2-rcr2-esr100.exr,ReadingArea_rsl2-rcl2-esl310-rsm2-rcm25-esm100-rsr2-rcr2-esr100.npz,,,,,0,194,194,281,,left,green,1.3,767.1978781223297,,,3,6,6,lightness,readingArea,realistic,75,2023-03-23_17h31.32.846,tripletExp_regina_11082022,2022.2.4,119.76197818514076,
11,7,10,2,1.0,1.0,2,0.111111111111111,1.0,2,0.694444444444444,1.0,ReadingArea_rsl2-rcl100-esl100-rsm2-rcm11-esm100-rsr2-rcr69-esr100,exr/ReadingArea_rsl2-rcl100-esl100-rsm2-rcm11-esm100-rsr2-rcr69-esr100.exr,ReadingArea_rsl2-rcl100-esl100-rsm2-rcm11-esm100-rsr2-rcr69-esr100.npz,,,,,0,195,195,411,,right,red,2.91,771.1256809234619,771.5834059715271,,3,6,6,lightness,readingArea,realistic,75,2023-03-23_17h31.32.846,tripletExp_regina_11082022,2022.2.4,119.76197818514076,
4,1,3,2,0.694444444444444,0.298245614035088,2,0.111111111111111,0.298245614035088,2,0.444444444444444,0.298245614035088,ReadingArea_rsl2-rcl69-esl29-rsm2-rcm11-esm29-rsr2-rcr44-esr29,exr/ReadingArea_rsl2-rcl69-esl29-rsm2-rcm11-esm29-rsr2-rcr44-esr29.exr,ReadingArea_rsl2-rcl69-esl29-rsm2-rcm11-esm29-rsr2-rcr44-esr29.npz,,,,,0,196,196,70,,right,red,1.57,773.3011651039124,773.7666850090027,,3,6,6,lightness,readingArea,realistic,75,2023-03-23_17h31.32.846,tripletExp_regina_11082022,2022.2.4,119.76197818514076,
1,12,10,2,0.111111111111111,0.298245614035088,2,0.027777777777778,3.10526315789474,2,0.694444444444444,1.0,ReadingArea_rsl2-rcl11-esl29-rsm2-rcm2-esm310-rsr2-rcr69-esr100,exr/ReadingArea_rsl2-rcl11-esl29-rsm2-rcm2-esm310-rsr2-rcr69-esr100.exr,ReadingArea_rsl2-rcl11-esl29-rsm2-rcm2-esm310-rsr2-rcr69-esr100.npz,,,,,0,197,197,567,,left,green,1.28,775.478276014328,775.9346749782562,,3,6,6,lightness,readingArea,realistic,75,2023-03-23_17h31.32.846,tripletExp_regina_11082022,2022.2.4,119.76197818514076,
5,10,0,2,1.0,0.298245614035088,2,0.694444444444444,1.0,2,0.027777777777778,0.298245614035088,ReadingArea_rsl2-rcl100-esl29-rsm2-rcm69-esm100-rsr2-rcr2-esr29,exr/ReadingArea_rsl2-rcl100-esl29-rsm2-rcm69-esm100-rsr2-rcr2-esr29.exr,ReadingArea_rsl2-rcl100-esl29-rsm2-rcm69-esm100-rsr2-rcr2-esr29.npz,,,,,0,198,198,293,,left,green,1.39,777.6256170272827,778.278069972992,,3,6,6,lightness,readingArea,realistic,75,2023-03-23_17h31.32.846,tripletExp_regina_11082022,2022.2.4,119.76197818514076,
12,8,3,2,0.027777777777778,3.10526315789474,2,0.25,1.0,2,0.444444444444444,0.298245614035088,ReadingArea_rsl2-rcl2-esl310-rsm2-rcm25-esm100-rsr2-rcr44-esr29,exr/ReadingArea_rsl2-rcl2-esl310-rsm2-rcm25-esm100-rsr2-rcr44-esr29.exr,ReadingArea_rsl2-rcl2-esl310-rsm2-rcm25-esm100-rsr2-rcr44-esr29.npz,,,,,0,199,199,386,,right,red,1.3,779.9848170280457,780.4520859718323,,3,6,6,lightness,readingArea,realistic,75,2023-03-23_17h31.32.846,tripletExp_regina_11082022,2022.2.4,119.76197818514076,
12,6,14,2,0.027777777777778,3.10526315789474,2,0.027777777777778,1.0,2,0.25,3.10526315789474,ReadingArea_rsl2-rcl2-esl310-rsm2-rcm2-esm100-rsr2-rcr25-esr310,exr/ReadingArea_rsl2-rcl2-esl310-rsm2-rcm2-esm100-rsr2-rcr25-esr310.exr,ReadingArea_rsl2-rcl2-esl310-rsm2-rcm2-esm100-rsr2-rcr25-esr310.npz,,,,,0,200,200,218,,left,green,1.58,782.1423320770264,,,3,6,6,lightness,readingArea,realistic,75,2023-03-23_17h31.32.846,tripletExp_regina_11082022,2022.2.4,119.76197818514076,
7,4,2,2,0.111111111111111,1.0,2,0.694444444444444,0.298245614035088,2,0.25,0.298245614035088,ReadingArea_rsl2-rcl11-esl100-rsm2-rcm69-esm29-rsr2-rcr25-esr29,exr/ReadingArea_rsl2-rcl11-esl100-rsm2-rcm69-esm29-rsr2-rcr25-esr29.exr,ReadingArea_rsl2-rcl11-esl100-rsm2-rcm69-esm29-rsr2-rcr25-esr29.npz,,,,,0,201,201,146,,right,red,2.07,786.0612781047821,786.5335850715637,,3,6,6,lightness,readingArea,realistic,75,2023-03-23_17h31.32.846,tripletExp_regina_11082022,2022.2.4,119.76197818514076,
1,14,5,2,0.111111111111111,0.298245614035088,2,0.25,3.10526315789474,2,1.0,0.298245614035088,ReadingArea_rsl2-rcl11-esl29-rsm2-rcm25-esm310-rsr2-rcr100-esr29,exr/ReadingArea_rsl2-rcl11-esl29-rsm2-rcm25-esm310-rsr2-rcr100-esr29.exr,ReadingArea_rsl2-rcl11-esl29-rsm2-rcm25-esm310-rsr2-rcr100-esr29.npz,,,,,0,202,202,509,,right,red,0.98,788.2578339576721,788.7056219577789,,3,6,6,lightness,readingArea,realistic,75,2023-03-23_17h31.32.846,tripletExp_regina_11082022,2022.2.4,119.76197818514076,
5,9,10,2,1.0,0.298245614035088,2,0.444444444444444,1.0,2,0.694444444444444,1.0,ReadingArea_rsl2-rcl100-esl29-rsm2-rcm44-esm100-rsr2-rcr69-esr100,exr/ReadingArea_rsl2-rcl100-esl29-rsm2-rcm44-esm100-rsr2-rcr69-esr100.exr,ReadingArea_rsl2-rcl100-esl29-rsm2-rcm44-esm100-rsr2-rcr69-esr100.npz,,,,,0,203,203,322,,right,red,1.19,790.3976171016693,790.8618049621582,,3,6,6,lightness,readingArea,realistic,75,2023-03-23_17h31.32.846,tripletExp_regina_11082022,2022.2.4,119.76197818514076,
