index_left,index_middle,index_right,reflectance_surround_left,reflectance_center_left,emission_spot_left,reflectance_surround_middle,reflectance_center_middle,emission_spot_middle,reflectance_surround_right,reflectance_center_right,emission_spot_right,ImageName,ImageExr,ImageNpy,trials_2.thisRepN,trials_2.thisTrialN,trials_2.thisN,trials_2.thisIndex,trials.thisRepN,trials.thisTrialN,trials.thisN,trials.thisIndex,sound_1.started,BB_Trial.resp,BB_Trial.color,BB_Trial.rt,text.started,text.stopped,block,participant,session,L/B,scene,condition,nTrialsPerBlock,date,expName,psychopyVersion,frameRate,Unnamed: 40
12,9,11,0,0.027777777777778,3.10526315789474,0,0.444444444444444,1.0,0,1.0,1.0,ReadingArea_rsl0-rcl2-esl310-rsm0-rcm44-esm100-rsr0-rcr100-esr100,exr/ReadingArea_rsl0-rcl2-esl310-rsm0-rcm44-esm100-rsr0-rcr100-esr100.exr,ReadingArea_rsl0-rcl2-esl310-rsm0-rcm44-esm100-rsr0-rcr100-esr100.npz,,,,,0,0,0,18,110.5621128320694,right,red,2.47,116.35308694839478,116.8574149608612,1,1,6,lightness,readingArea,realistic,75,2023-03-25_12h59.15.250,tripletExp_regina_11082022,2022.2.4,119.14959377308108,
7,13,4,0,0.111111111111111,1.0,0,0.111111111111111,3.10526315789474,0,0.694444444444444,0.298245614035088,ReadingArea_rsl0-rcl11-esl100-rsm0-rcm11-esm310-rsr0-rcr69-esr29,exr/ReadingArea_rsl0-rcl11-esl100-rsm0-rcm11-esm310-rsr0-rcr69-esr29.exr,ReadingArea_rsl0-rcl11-esl100-rsm0-rcm11-esm310-rsr0-rcr69-esr29.npz,,,,,0,1,1,456,,right,red,2.26,120.3429310321808,121.01118206977844,1,1,6,lightness,readingArea,realistic,75,2023-03-25_12h59.15.250,tripletExp_regina_11082022,2022.2.4,119.14959377308108,
2,1,10,0,0.25,0.298245614035088,0,0.111111111111111,0.298245614035088,0,0.694444444444444,1.0,ReadingArea_rsl0-rcl25-esl29-rsm0-rcm11-esm29-rsr0-rcr69-esr100,exr/ReadingArea_rsl0-rcl25-esl29-rsm0-rcm11-esm29-rsr0-rcr69-esr100.exr,ReadingArea_rsl0-rcl25-esl29-rsm0-rcm11-esm29-rsr0-rcr69-esr100.npz,,,,,0,2,2,585,,left,green,1.15,122.69446301460266,123.25393891334534,1,1,6,lightness,readingArea,realistic,75,2023-03-25_12h59.15.250,tripletExp_regina_11082022,2022.2.4,119.14959377308108,
1,6,11,0,0.111111111111111,0.298245614035088,0,0.027777777777778,1.0,0,1.0,1.0,ReadingArea_rsl0-rcl11-esl29-rsm0-rcm2-esm100-rsr0-rcr100-esr100,exr/ReadingArea_rsl0-rcl11-esl29-rsm0-rcm2-esm100-rsr0-rcr100-esr100.exr,ReadingArea_rsl0-rcl11-esl29-rsm0-rcm2-esm100-rsr0-rcr100-esr100.npz,,,,,0,3,3,39,,left,green,0.87,124.96431398391724,125.41875100135805,1,1,6,lightness,readingArea,realistic,75,2023-03-25_12h59.15.250,tripletExp_regina_11082022,2022.2.4,119.14959377308108,
7,12,1,0,0.111111111111111,1.0,0,0.027777777777778,3.10526315789474,0,0.111111111111111,0.298245614035088,ReadingArea_rsl0-rcl11-esl100-rsm0-rcm2-esm310-rsr0-rcr11-esr29,exr/ReadingArea_rsl0-rcl11-esl100-rsm0-rcm2-esm310-rsr0-rcr11-esr29.exr,ReadingArea_rsl0-rcl11-esl100-rsm0-rcm2-esm310-rsr0-rcr11-esr29.npz,,,,,0,4,4,20,,right,red,4.19,130.71327900886536,131.17915391921997,1,1,6,lightness,readingArea,realistic,75,2023-03-25_12h59.15.250,tripletExp_regina_11082022,2022.2.4,119.14959377308108,
4,12,7,0,0.694444444444444,0.298245614035088,0,0.027777777777778,3.10526315789474,0,0.111111111111111,1.0,ReadingArea_rsl0-rcl69-esl29-rsm0-rcm2-esm310-rsr0-rcr11-esr100,exr/ReadingArea_rsl0-rcl69-esl29-rsm0-rcm2-esm310-rsr0-rcr11-esr100.exr,ReadingArea_rsl0-rcl69-esl29-rsm0-rcm2-esm310-rsr0-rcr11-esr100.npz,,,,,0,5,5,112,,right,red,2.55,134.66056299209595,135.30538201332092,1,1,6,lightness,readingArea,realistic,75,2023-03-25_12h59.15.250,tripletExp_regina_11082022,2022.2.4,119.14959377308108,
6,3,1,0,0.027777777777778,1.0,0,0.444444444444444,0.298245614035088,0,0.111111111111111,0.298245614035088,ReadingArea_rsl0-rcl2-esl100-rsm0-rcm44-esm29-rsr0-rcr11-esr29,exr/ReadingArea_rsl0-rcl2-esl100-rsm0-rcm44-esm29-rsr0-rcr11-esr29.exr,ReadingArea_rsl0-rcl2-esl100-rsm0-rcm44-esm29-rsr0-rcr11-esr29.npz,,,,,0,6,6,430,,right,red,2.37,138.78261804580688,139.242201089859,1,1,6,lightness,readingArea,realistic,75,2023-03-25_12h59.15.250,tripletExp_regina_11082022,2022.2.4,119.14959377308108,
11,2,8,0,1.0,1.0,0,0.25,0.298245614035088,0,0.25,1.0,ReadingArea_rsl0-rcl100-esl100-rsm0-rcm25-esm29-rsr0-rcr25-esr100,exr/ReadingArea_rsl0-rcl100-esl100-rsm0-rcm25-esm29-rsr0-rcr25-esr100.exr,ReadingArea_rsl0-rcl100-esl100-rsm0-rcm25-esm29-rsr0-rcr25-esr100.npz,,,,,0,7,7,214,,right,red,0.85,140.9526391029358,141.39732098579407,1,1,6,lightness,readingArea,realistic,75,2023-03-25_12h59.15.250,tripletExp_regina_11082022,2022.2.4,119.14959377308108,
12,5,14,0,0.027777777777778,3.10526315789474,0,1.0,0.298245614035088,0,0.25,3.10526315789474,ReadingArea_rsl0-rcl2-esl310-rsm0-rcm100-esm29-rsr0-rcr25-esr310,exr/ReadingArea_rsl0-rcl2-esl310-rsm0-rcm100-esm29-rsr0-rcr25-esr310.exr,ReadingArea_rsl0-rcl2-esl310-rsm0-rcm100-esm29-rsr0-rcr25-esr310.npz,,,,,0,8,8,193,,right,red,0.76,143.1196858882904,143.5591790676117,1,1,6,lightness,readingArea,realistic,75,2023-03-25_12h59.15.250,tripletExp_regina_11082022,2022.2.4,119.14959377308108,
3,0,2,0,0.444444444444444,0.298245614035088,0,0.027777777777778,0.298245614035088,0,0.25,0.298245614035088,ReadingArea_rsl0-rcl44-esl29-rsm0-rcm2-esm29-rsr0-rcr25-esr29,exr/ReadingArea_rsl0-rcl44-esl29-rsm0-rcm2-esm29-rsr0-rcr25-esr29.exr,ReadingArea_rsl0-rcl44-esl29-rsm0-rcm2-esm29-rsr0-rcr25-esr29.npz,,,,,0,9,9,334,,right,red,0.9,145.26806497573853,145.70082807540894,1,1,6,lightness,readingArea,realistic,75,2023-03-25_12h59.15.250,tripletExp_regina_11082022,2022.2.4,119.14959377308108,
0,9,11,0,0.027777777777778,0.298245614035088,0,0.444444444444444,1.0,0,1.0,1.0,ReadingArea_rsl0-rcl2-esl29-rsm0-rcm44-esm100-rsr0-rcr100-esr100,exr/ReadingArea_rsl0-rcl2-esl29-rsm0-rcm44-esm100-rsr0-rcr100-esr100.exr,ReadingArea_rsl0-rcl2-esl29-rsm0-rcm44-esm100-rsr0-rcr100-esr100.npz,,,,,0,10,10,448,,right,red,0.67,147.42037391662598,147.87655210494995,1,1,6,lightness,readingArea,realistic,75,2023-03-25_12h59.15.250,tripletExp_regina_11082022,2022.2.4,119.14959377308108,
3,8,7,0,0.444444444444444,0.298245614035088,0,0.25,1.0,0,0.111111111111111,1.0,ReadingArea_rsl0-rcl44-esl29-rsm0-rcm25-esm100-rsr0-rcr11-esr100,exr/ReadingArea_rsl0-rcl44-esl29-rsm0-rcm25-esm100-rsr0-rcr11-esr100.exr,ReadingArea_rsl0-rcl44-esl29-rsm0-rcm25-esm100-rsr0-rcr11-esr100.npz,,,,,0,11,11,484,,left,green,1.14,149.5848000049591,150.02783298492432,1,1,6,lightness,readingArea,realistic,75,2023-03-25_12h59.15.250,tripletExp_regina_11082022,2022.2.4,119.14959377308108,
1,14,5,0,0.111111111111111,0.298245614035088,0,0.25,3.10526315789474,0,1.0,0.298245614035088,ReadingArea_rsl0-rcl11-esl29-rsm0-rcm25-esm310-rsr0-rcr100-esr29,exr/ReadingArea_rsl0-rcl11-esl29-rsm0-rcm25-esm310-rsr0-rcr100-esr29.exr,ReadingArea_rsl0-rcl11-esl29-rsm0-rcm25-esm310-rsr0-rcr100-esr29.npz,,,,,0,12,12,509,,right,red,0.69,151.74509692192078,152.42840695381165,1,1,6,lightness,readingArea,realistic,75,2023-03-25_12h59.15.250,tripletExp_regina_11082022,2022.2.4,119.14959377308108,
9,12,0,0,0.444444444444444,1.0,0,0.027777777777778,3.10526315789474,0,0.027777777777778,0.298245614035088,ReadingArea_rsl0-rcl44-esl100-rsm0-rcm2-esm310-rsr0-rcr2-esr29,exr/ReadingArea_rsl0-rcl44-esl100-rsm0-rcm2-esm310-rsr0-rcr2-esr29.exr,ReadingArea_rsl0-rcl44-esl100-rsm0-rcm2-esm310-rsr0-rcr2-esr29.npz,,,,,0,13,13,175,,right,red,1.22,154.1330499649048,154.57659006118774,1,1,6,lightness,readingArea,realistic,75,2023-03-25_12h59.15.250,tripletExp_regina_11082022,2022.2.4,119.14959377308108,
3,11,14,0,0.444444444444444,0.298245614035088,0,1.0,1.0,0,0.25,3.10526315789474,ReadingArea_rsl0-rcl44-esl29-rsm0-rcm100-esm100-rsr0-rcr25-esr310,exr/ReadingArea_rsl0-rcl44-esl29-rsm0-rcm100-esm100-rsr0-rcr25-esr310.exr,ReadingArea_rsl0-rcl44-esl29-rsm0-rcm100-esm100-rsr0-rcr25-esr310.npz,,,,,0,14,14,570,,right,red,0.84,156.29279398918152,,1,1,6,lightness,readingArea,realistic,75,2023-03-25_12h59.15.250,tripletExp_regina_11082022,2022.2.4,119.14959377308108,
4,8,11,0,0.694444444444444,0.298245614035088,0,0.25,1.0,0,1.0,1.0,ReadingArea_rsl0-rcl69-esl29-rsm0-rcm25-esm100-rsr0-rcr100-esr100,exr/ReadingArea_rsl0-rcl69-esl29-rsm0-rcm25-esm100-rsr0-rcr100-esr100.exr,ReadingArea_rsl0-rcl69-esl29-rsm0-rcm25-esm100-rsr0-rcr100-esr100.npz,,,,,0,15,15,403,,left,green,0.93,158.57451105117798,159.04807996749878,1,1,6,lightness,readingArea,realistic,75,2023-03-25_12h59.15.250,tripletExp_regina_11082022,2022.2.4,119.14959377308108,
7,6,11,0,0.111111111111111,1.0,0,0.027777777777778,1.0,0,1.0,1.0,ReadingArea_rsl0-rcl11-esl100-rsm0-rcm2-esm100-rsr0-rcr100-esr100,exr/ReadingArea_rsl0-rcl11-esl100-rsm0-rcm2-esm100-rsr0-rcr100-esr100.exr,ReadingArea_rsl0-rcl11-esl100-rsm0-rcm2-esm100-rsr0-rcr100-esr100.npz,,,,,0,16,16,84,,left,green,0.77,160.75685000419617,161.18365788459778,1,1,6,lightness,readingArea,realistic,75,2023-03-25_12h59.15.250,tripletExp_regina_11082022,2022.2.4,119.14959377308108,
1,5,14,0,0.111111111111111,0.298245614035088,0,1.0,0.298245614035088,0,0.25,3.10526315789474,ReadingArea_rsl0-rcl11-esl29-rsm0-rcm100-esm29-rsr0-rcr25-esr310,exr/ReadingArea_rsl0-rcl11-esl29-rsm0-rcm100-esm29-rsr0-rcr25-esr310.exr,ReadingArea_rsl0-rcl11-esl29-rsm0-rcm100-esm29-rsr0-rcr25-esr310.npz,,,,,0,17,17,191,,right,red,0.73,162.90596508979797,163.36739492416382,1,1,6,lightness,readingArea,realistic,75,2023-03-25_12h59.15.250,tripletExp_regina_11082022,2022.2.4,119.14959377308108,
7,3,0,0,0.111111111111111,1.0,0,0.444444444444444,0.298245614035088,0,0.027777777777778,0.298245614035088,ReadingArea_rsl0-rcl11-esl100-rsm0-rcm44-esm29-rsr0-rcr2-esr29,exr/ReadingArea_rsl0-rcl11-esl100-rsm0-rcm44-esm29-rsr0-rcr2-esr29.exr,ReadingArea_rsl0-rcl11-esl100-rsm0-rcm44-esm29-rsr0-rcr2-esr29.npz,,,,,0,18,18,318,,left,green,0.83,165.08223295211792,165.5786008834839,1,1,6,lightness,readingArea,realistic,75,2023-03-25_12h59.15.250,tripletExp_regina_11082022,2022.2.4,119.14959377308108,
13,0,9,0,0.111111111111111,3.10526315789474,0,0.027777777777778,0.298245614035088,0,0.444444444444444,1.0,ReadingArea_rsl0-rcl11-esl310-rsm0-rcm2-esm29-rsr0-rcr44-esr100,exr/ReadingArea_rsl0-rcl11-esl310-rsm0-rcm2-esm29-rsr0-rcr44-esr100.exr,ReadingArea_rsl0-rcl11-esl310-rsm0-rcm2-esm29-rsr0-rcr44-esr100.npz,,,,,0,19,19,373,,left,green,0.92,167.30178689956665,167.78231501579285,1,1,6,lightness,readingArea,realistic,75,2023-03-25_12h59.15.250,tripletExp_regina_11082022,2022.2.4,119.14959377308108,
11,14,2,0,1.0,1.0,0,0.25,3.10526315789474,0,0.25,0.298245614035088,ReadingArea_rsl0-rcl100-esl100-rsm0-rcm25-esm310-rsr0-rcr25-esr29,exr/ReadingArea_rsl0-rcl100-esl100-rsm0-rcm25-esm310-rsr0-rcr25-esr29.exr,ReadingArea_rsl0-rcl100-esl100-rsm0-rcm25-esm310-rsr0-rcr25-esr29.npz,,,,,0,20,20,419,,left,green,1.07,169.49914407730105,169.94447588920593,1,1,6,lightness,readingArea,realistic,75,2023-03-25_12h59.15.250,tripletExp_regina_11082022,2022.2.4,119.14959377308108,
6,4,13,0,0.027777777777778,1.0,0,0.694444444444444,0.298245614035088,0,0.111111111111111,3.10526315789474,ReadingArea_rsl0-rcl2-esl100-rsm0-rcm69-esm29-rsr0-rcr11-esr310,exr/ReadingArea_rsl0-rcl2-esl100-rsm0-rcm69-esm29-rsr0-rcr11-esr310.exr,ReadingArea_rsl0-rcl2-esl100-rsm0-rcm69-esm29-rsr0-rcr11-esr310.npz,,,,,0,21,21,202,,right,red,0.83,171.63429403305054,172.06380701065063,1,1,6,lightness,readingArea,realistic,75,2023-03-25_12h59.15.250,tripletExp_regina_11082022,2022.2.4,119.14959377308108,
11,0,10,0,1.0,1.0,0,0.027777777777778,0.298245614035088,0,0.694444444444444,1.0,ReadingArea_rsl0-rcl100-esl100-rsm0-rcm2-esm29-rsr0-rcr69-esr100,exr/ReadingArea_rsl0-rcl100-esl100-rsm0-rcm2-esm29-rsr0-rcr69-esr100.exr,ReadingArea_rsl0-rcl100-esl100-rsm0-rcm2-esm29-rsr0-rcr69-esr100.npz,,,,,0,22,22,259,,right,red,0.94,173.78695797920227,,1,1,6,lightness,readingArea,realistic,75,2023-03-25_12h59.15.250,tripletExp_regina_11082022,2022.2.4,119.14959377308108,
2,13,3,0,0.25,0.298245614035088,0,0.111111111111111,3.10526315789474,0,0.444444444444444,0.298245614035088,ReadingArea_rsl0-rcl25-esl29-rsm0-rcm11-esm310-rsr0-rcr44-esr29,exr/ReadingArea_rsl0-rcl25-esl29-rsm0-rcm11-esm310-rsr0-rcr44-esr29.exr,ReadingArea_rsl0-rcl25-esl29-rsm0-rcm11-esm310-rsr0-rcr44-esr29.npz,,,,,0,23,23,473,,right,red,2.5,177.72828102111816,178.1791319847107,1,1,6,lightness,readingArea,realistic,75,2023-03-25_12h59.15.250,tripletExp_regina_11082022,2022.2.4,119.14959377308108,
14,8,9,0,0.25,3.10526315789474,0,0.25,1.0,0,0.444444444444444,1.0,ReadingArea_rsl0-rcl25-esl310-rsm0-rcm25-esm100-rsr0-rcr44-esr100,exr/ReadingArea_rsl0-rcl25-esl310-rsm0-rcm25-esm100-rsr0-rcr44-esr100.exr,ReadingArea_rsl0-rcl25-esl310-rsm0-rcm25-esm100-rsr0-rcr44-esr100.npz,,,,,0,24,24,518,,right,red,2.58,181.6463658809662,,1,1,6,lightness,readingArea,realistic,75,2023-03-25_12h59.15.250,tripletExp_regina_11082022,2022.2.4,119.14959377308108,
5,6,0,0,1.0,0.298245614035088,0,0.027777777777778,1.0,0,0.027777777777778,0.298245614035088,ReadingArea_rsl0-rcl100-esl29-rsm0-rcm2-esm100-rsr0-rcr2-esr29,exr/ReadingArea_rsl0-rcl100-esl29-rsm0-rcm2-esm100-rsr0-rcr2-esr29.exr,ReadingArea_rsl0-rcl100-esl29-rsm0-rcm2-esm100-rsr0-rcr2-esr29.npz,,,,,0,25,25,511,,right,red,0.87,183.921571969986,184.365336894989,1,1,6,lightness,readingArea,realistic,75,2023-03-25_12h59.15.250,tripletExp_regina_11082022,2022.2.4,119.14959377308108,
14,12,0,0,0.25,3.10526315789474,0,0.027777777777778,3.10526315789474,0,0.027777777777778,0.298245614035088,ReadingArea_rsl0-rcl25-esl310-rsm0-rcm2-esm310-rsr0-rcr2-esr29,exr/ReadingArea_rsl0-rcl25-esl310-rsm0-rcm2-esm310-rsr0-rcr2-esr29.exr,ReadingArea_rsl0-rcl25-esl310-rsm0-rcm2-esm310-rsr0-rcr2-esr29.npz,,,,,0,26,26,409,,right,red,2.27,187.8246350288391,188.2728219032288,1,1,6,lightness,readingArea,realistic,75,2023-03-25_12h59.15.250,tripletExp_regina_11082022,2022.2.4,119.14959377308108,
6,1,10,0,0.027777777777778,1.0,0,0.111111111111111,0.298245614035088,0,0.694444444444444,1.0,ReadingArea_rsl0-rcl2-esl100-rsm0-rcm11-esm29-rsr0-rcr69-esr100,exr/ReadingArea_rsl0-rcl2-esl100-rsm0-rcm11-esm29-rsr0-rcr69-esr100.exr,ReadingArea_rsl0-rcl2-esl100-rsm0-rcm11-esm29-rsr0-rcr69-esr100.npz,,,,,0,27,27,561,,left,green,0.71,189.97375392913816,190.44133305549624,1,1,6,lightness,readingArea,realistic,75,2023-03-25_12h59.15.250,tripletExp_regina_11082022,2022.2.4,119.14959377308108,
8,7,12,0,0.25,1.0,0,0.111111111111111,1.0,0,0.027777777777778,3.10526315789474,ReadingArea_rsl0-rcl25-esl100-rsm0-rcm11-esm100-rsr0-rcr2-esr310,exr/ReadingArea_rsl0-rcl25-esl100-rsm0-rcm11-esm100-rsr0-rcr2-esr310.exr,ReadingArea_rsl0-rcl25-esl100-rsm0-rcm11-esm100-rsr0-rcr2-esr310.npz,,,,,0,28,28,471,,right,red,3.0,193.9247040748596,194.39902806282043,1,1,6,lightness,readingArea,realistic,75,2023-03-25_12h59.15.250,tripletExp_regina_11082022,2022.2.4,119.14959377308108,
11,4,0,0,1.0,1.0,0,0.694444444444444,0.298245614035088,0,0.027777777777778,0.298245614035088,ReadingArea_rsl0-rcl100-esl100-rsm0-rcm69-esm29-rsr0-rcr2-esr29,exr/ReadingArea_rsl0-rcl100-esl100-rsm0-rcm69-esm29-rsr0-rcr2-esr29.exr,ReadingArea_rsl0-rcl100-esl100-rsm0-rcm69-esm29-rsr0-rcr2-esr29.npz,,,,,0,29,29,219,,left,green,0.73,196.1086781024933,196.54817605018616,1,1,6,lightness,readingArea,realistic,75,2023-03-25_12h59.15.250,tripletExp_regina_11082022,2022.2.4,119.14959377308108,
6,13,8,0,0.027777777777778,1.0,0,0.111111111111111,3.10526315789474,0,0.25,1.0,ReadingArea_rsl0-rcl2-esl100-rsm0-rcm11-esm310-rsr0-rcr25-esr100,exr/ReadingArea_rsl0-rcl2-esl100-rsm0-rcm11-esm310-rsr0-rcr25-esr100.exr,ReadingArea_rsl0-rcl2-esl100-rsm0-rcm11-esm310-rsr0-rcr25-esr100.npz,,,,,0,30,30,535,,right,red,0.61,198.24182605743408,198.68750500679016,1,1,6,lightness,readingArea,realistic,75,2023-03-25_12h59.15.250,tripletExp_regina_11082022,2022.2.4,119.14959377308108,
3,2,11,0,0.444444444444444,0.298245614035088,0,0.25,0.298245614035088,0,1.0,1.0,ReadingArea_rsl0-rcl44-esl29-rsm0-rcm25-esm29-rsr0-rcr100-esr100,exr/ReadingArea_rsl0-rcl44-esl29-rsm0-rcm25-esm29-rsr0-rcr100-esr100.exr,ReadingArea_rsl0-rcl44-esl29-rsm0-rcm25-esm29-rsr0-rcr100-esr100.npz,,,,,0,31,31,257,,left,green,0.72,200.39812207221985,200.8321828842163,1,1,6,lightness,readingArea,realistic,75,2023-03-25_12h59.15.250,tripletExp_regina_11082022,2022.2.4,119.14959377308108,
7,3,12,0,0.111111111111111,1.0,0,0.444444444444444,0.298245614035088,0,0.027777777777778,3.10526315789474,ReadingArea_rsl0-rcl11-esl100-rsm0-rcm44-esm29-rsr0-rcr2-esr310,exr/ReadingArea_rsl0-rcl11-esl100-rsm0-rcm44-esm29-rsr0-rcr2-esr310.exr,ReadingArea_rsl0-rcl11-esl100-rsm0-rcm44-esm29-rsr0-rcr2-esr310.npz,,,,,0,32,32,443,,left,green,0.96,202.5269711017609,203.20724892616272,1,1,6,lightness,readingArea,realistic,75,2023-03-25_12h59.15.250,tripletExp_regina_11082022,2022.2.4,119.14959377308108,
4,14,12,0,0.694444444444444,0.298245614035088,0,0.25,3.10526315789474,0,0.027777777777778,3.10526315789474,ReadingArea_rsl0-rcl69-esl29-rsm0-rcm25-esm310-rsr0-rcr2-esr310,exr/ReadingArea_rsl0-rcl69-esl29-rsm0-rcm25-esm310-rsr0-rcr2-esr310.exr,ReadingArea_rsl0-rcl69-esl29-rsm0-rcm25-esm310-rsr0-rcr2-esr310.npz,,,,,0,33,33,392,,left,green,0.97,204.9161961078644,205.3607680797577,1,1,6,lightness,readingArea,realistic,75,2023-03-25_12h59.15.250,tripletExp_regina_11082022,2022.2.4,119.14959377308108,
13,0,14,0,0.111111111111111,3.10526315789474,0,0.027777777777778,0.298245614035088,0,0.25,3.10526315789474,ReadingArea_rsl0-rcl11-esl310-rsm0-rcm2-esm29-rsr0-rcr25-esr310,exr/ReadingArea_rsl0-rcl11-esl310-rsm0-rcm2-esm29-rsr0-rcr25-esr310.exr,ReadingArea_rsl0-rcl11-esl310-rsm0-rcm2-esm29-rsr0-rcr25-esr310.npz,,,,,0,34,34,278,,left,green,0.74,207.04744911193848,207.4828860759735,1,1,6,lightness,readingArea,realistic,75,2023-03-25_12h59.15.250,tripletExp_regina_11082022,2022.2.4,119.14959377308108,
12,9,13,0,0.027777777777778,3.10526315789474,0,0.444444444444444,1.0,0,0.111111111111111,3.10526315789474,ReadingArea_rsl0-rcl2-esl310-rsm0-rcm44-esm100-rsr0-rcr11-esr310,exr/ReadingArea_rsl0-rcl2-esl310-rsm0-rcm44-esm100-rsr0-rcr11-esr310.exr,ReadingArea_rsl0-rcl2-esl310-rsm0-rcm44-esm100-rsr0-rcr11-esr310.npz,,,,,0,35,35,529,,right,red,0.7,209.19475889205933,209.66974210739136,1,1,6,lightness,readingArea,realistic,75,2023-03-25_12h59.15.250,tripletExp_regina_11082022,2022.2.4,119.14959377308108,
4,2,13,0,0.694444444444444,0.298245614035088,0,0.25,0.298245614035088,0,0.111111111111111,3.10526315789474,ReadingArea_rsl0-rcl69-esl29-rsm0-rcm25-esm29-rsr0-rcr11-esr310,exr/ReadingArea_rsl0-rcl69-esl29-rsm0-rcm25-esm29-rsr0-rcr11-esr310.exr,ReadingArea_rsl0-rcl69-esl29-rsm0-rcm25-esm29-rsr0-rcr11-esr310.npz,,,,,0,36,36,304,,right,red,2.31,213.1519320011139,213.59608101844788,1,1,6,lightness,readingArea,realistic,75,2023-03-25_12h59.15.250,tripletExp_regina_11082022,2022.2.4,119.14959377308108,
13,1,4,0,0.111111111111111,3.10526315789474,0,0.111111111111111,0.298245614035088,0,0.694444444444444,0.298245614035088,ReadingArea_rsl0-rcl11-esl310-rsm0-rcm11-esm29-rsr0-rcr69-esr29,exr/ReadingArea_rsl0-rcl11-esl310-rsm0-rcm11-esm29-rsr0-rcr69-esr29.exr,ReadingArea_rsl0-rcl11-esl310-rsm0-rcm11-esm29-rsr0-rcr69-esr29.npz,,,,,0,37,37,396,,left,green,1.09,215.31420397758484,215.76280307769773,1,1,6,lightness,readingArea,realistic,75,2023-03-25_12h59.15.250,tripletExp_regina_11082022,2022.2.4,119.14959377308108,
5,2,0,0,1.0,0.298245614035088,0,0.25,0.298245614035088,0,0.027777777777778,0.298245614035088,ReadingArea_rsl0-rcl100-esl29-rsm0-rcm25-esm29-rsr0-rcr2-esr29,exr/ReadingArea_rsl0-rcl100-esl29-rsm0-rcm25-esm29-rsr0-rcr2-esr29.exr,ReadingArea_rsl0-rcl100-esl29-rsm0-rcm25-esm29-rsr0-rcr2-esr29.npz,,,,,0,38,38,476,,left,green,0.73,217.47438311576843,218.0589940547943,1,1,6,lightness,readingArea,realistic,75,2023-03-25_12h59.15.250,tripletExp_regina_11082022,2022.2.4,119.14959377308108,
7,10,5,0,0.111111111111111,1.0,0,0.694444444444444,1.0,0,1.0,0.298245614035088,ReadingArea_rsl0-rcl11-esl100-rsm0-rcm69-esm100-rsr0-rcr100-esr29,exr/ReadingArea_rsl0-rcl11-esl100-rsm0-rcm69-esm100-rsr0-rcr100-esr29.exr,ReadingArea_rsl0-rcl11-esl100-rsm0-rcm69-esm100-rsr0-rcr100-esr29.npz,,,,,0,39,39,395,,right,red,0.78,219.74675989151,220.22821593284607,1,1,6,lightness,readingArea,realistic,75,2023-03-25_12h59.15.250,tripletExp_regina_11082022,2022.2.4,119.14959377308108,
4,3,9,0,0.694444444444444,0.298245614035088,0,0.444444444444444,0.298245614035088,0,0.444444444444444,1.0,ReadingArea_rsl0-rcl69-esl29-rsm0-rcm44-esm29-rsr0-rcr44-esr100,exr/ReadingArea_rsl0-rcl69-esl29-rsm0-rcm44-esm29-rsr0-rcr44-esr100.exr,ReadingArea_rsl0-rcl69-esl29-rsm0-rcm44-esm29-rsr0-rcr44-esr100.npz,,,,,0,40,40,451,,left,green,1.08,221.9320809841156,222.3684079647064,1,1,6,lightness,readingArea,realistic,75,2023-03-25_12h59.15.250,tripletExp_regina_11082022,2022.2.4,119.14959377308108,
0,1,6,0,0.027777777777778,0.298245614035088,0,0.111111111111111,0.298245614035088,0,0.027777777777778,1.0,ReadingArea_rsl0-rcl2-esl29-rsm0-rcm11-esm29-rsr0-rcr2-esr100,exr/ReadingArea_rsl0-rcl2-esl29-rsm0-rcm11-esm29-rsr0-rcr2-esr100.exr,ReadingArea_rsl0-rcl2-esl29-rsm0-rcm11-esm29-rsr0-rcr2-esr100.npz,,,,,0,41,41,375,,right,red,4.8,227.59405088424683,228.0530819892884,1,1,6,lightness,readingArea,realistic,75,2023-03-25_12h59.15.250,tripletExp_regina_11082022,2022.2.4,119.14959377308108,
4,1,9,0,0.694444444444444,0.298245614035088,0,0.111111111111111,0.298245614035088,0,0.444444444444444,1.0,ReadingArea_rsl0-rcl69-esl29-rsm0-rcm11-esm29-rsr0-rcr44-esr100,exr/ReadingArea_rsl0-rcl69-esl29-rsm0-rcm11-esm29-rsr0-rcr44-esr100.exr,ReadingArea_rsl0-rcl69-esl29-rsm0-rcm11-esm29-rsr0-rcr44-esr100.npz,,,,,0,42,42,7,,left,green,1.04,229.77373790740967,230.2532429695129,1,1,6,lightness,readingArea,realistic,75,2023-03-25_12h59.15.250,tripletExp_regina_11082022,2022.2.4,119.14959377308108,
10,13,6,0,0.694444444444444,1.0,0,0.111111111111111,3.10526315789474,0,0.027777777777778,1.0,ReadingArea_rsl0-rcl69-esl100-rsm0-rcm11-esm310-rsr0-rcr2-esr100,exr/ReadingArea_rsl0-rcl69-esl100-rsm0-rcm11-esm310-rsr0-rcr2-esr100.exr,ReadingArea_rsl0-rcl69-esl100-rsm0-rcm11-esm310-rsr0-rcr2-esr100.npz,,,,,0,43,43,351,,left,green,4.68,235.50853490829468,235.9917709827423,1,1,6,lightness,readingArea,realistic,75,2023-03-25_12h59.15.250,tripletExp_regina_11082022,2022.2.4,119.14959377308108,
1,13,11,0,0.111111111111111,0.298245614035088,0,0.111111111111111,3.10526315789474,0,1.0,1.0,ReadingArea_rsl0-rcl11-esl29-rsm0-rcm11-esm310-rsr0-rcr100-esr100,exr/ReadingArea_rsl0-rcl11-esl29-rsm0-rcm11-esm310-rsr0-rcr100-esr100.exr,ReadingArea_rsl0-rcl11-esl29-rsm0-rcm11-esm310-rsr0-rcr100-esr100.npz,,,,,0,44,44,333,,left,green,2.26,239.4629259109497,239.9275870323181,1,1,6,lightness,readingArea,realistic,75,2023-03-25_12h59.15.250,tripletExp_regina_11082022,2022.2.4,119.14959377308108,
3,14,12,0,0.444444444444444,0.298245614035088,0,0.25,3.10526315789474,0,0.027777777777778,3.10526315789474,ReadingArea_rsl0-rcl44-esl29-rsm0-rcm25-esm310-rsr0-rcr2-esr310,exr/ReadingArea_rsl0-rcl44-esl29-rsm0-rcm25-esm310-rsr0-rcr2-esr310.exr,ReadingArea_rsl0-rcl44-esl29-rsm0-rcm25-esm310-rsr0-rcr2-esr310.npz,,,,,0,45,45,336,,left,green,0.84,241.6514630317688,242.20980405807487,1,1,6,lightness,readingArea,realistic,75,2023-03-25_12h59.15.250,tripletExp_regina_11082022,2022.2.4,119.14959377308108,
7,14,5,0,0.111111111111111,1.0,0,0.25,3.10526315789474,0,1.0,0.298245614035088,ReadingArea_rsl0-rcl11-esl100-rsm0-rcm25-esm310-rsr0-rcr100-esr29,exr/ReadingArea_rsl0-rcl11-esl100-rsm0-rcm25-esm310-rsr0-rcr100-esr29.exr,ReadingArea_rsl0-rcl11-esl100-rsm0-rcm25-esm310-rsr0-rcr100-esr29.npz,,,,,0,46,46,372,,right,red,0.87,243.9182980060577,244.36213397979736,1,1,6,lightness,readingArea,realistic,75,2023-03-25_12h59.15.250,tripletExp_regina_11082022,2022.2.4,119.14959377308108,
8,10,7,0,0.25,1.0,0,0.694444444444444,1.0,0,0.111111111111111,1.0,ReadingArea_rsl0-rcl25-esl100-rsm0-rcm69-esm100-rsr0-rcr11-esr100,exr/ReadingArea_rsl0-rcl25-esl100-rsm0-rcm69-esm100-rsr0-rcr11-esr100.exr,ReadingArea_rsl0-rcl25-esl100-rsm0-rcm69-esm100-rsr0-rcr11-esr100.npz,,,,,0,47,47,424,,left,green,0.96,246.0589480400085,246.5121729373932,1,1,6,lightness,readingArea,realistic,75,2023-03-25_12h59.15.250,tripletExp_regina_11082022,2022.2.4,119.14959377308108,
1,3,4,0,0.111111111111111,0.298245614035088,0,0.444444444444444,0.298245614035088,0,0.694444444444444,0.298245614035088,ReadingArea_rsl0-rcl11-esl29-rsm0-rcm44-esm29-rsr0-rcr69-esr29,exr/ReadingArea_rsl0-rcl11-esl29-rsm0-rcm44-esm29-rsr0-rcr69-esr29.exr,ReadingArea_rsl0-rcl11-esl29-rsm0-rcm44-esm29-rsr0-rcr69-esr29.npz,,,,,0,48,48,153,,right,red,0.93,248.22637701034543,248.679447889328,1,1,6,lightness,readingArea,realistic,75,2023-03-25_12h59.15.250,tripletExp_regina_11082022,2022.2.4,119.14959377308108,
1,12,6,0,0.111111111111111,0.298245614035088,0,0.027777777777778,3.10526315789474,0,0.027777777777778,1.0,ReadingArea_rsl0-rcl11-esl29-rsm0-rcm2-esm310-rsr0-rcr2-esr100,exr/ReadingArea_rsl0-rcl11-esl29-rsm0-rcm2-esm310-rsr0-rcr2-esr100.exr,ReadingArea_rsl0-rcl11-esl29-rsm0-rcm2-esm310-rsr0-rcr2-esr100.npz,,,,,0,49,49,277,,left,green,4.28,253.91397404670715,254.4012720584869,1,1,6,lightness,readingArea,realistic,75,2023-03-25_12h59.15.250,tripletExp_regina_11082022,2022.2.4,119.14959377308108,
11,5,2,0,1.0,1.0,0,1.0,0.298245614035088,0,0.25,0.298245614035088,ReadingArea_rsl0-rcl100-esl100-rsm0-rcm100-esm29-rsr0-rcr25-esr29,exr/ReadingArea_rsl0-rcl100-esl100-rsm0-rcm100-esm29-rsr0-rcr25-esr29.exr,ReadingArea_rsl0-rcl100-esl100-rsm0-rcm100-esm29-rsr0-rcr25-esr29.npz,,,,,0,50,50,596,,left,green,1.04,256.1188209056854,256.69639801979065,1,1,6,lightness,readingArea,realistic,75,2023-03-25_12h59.15.250,tripletExp_regina_11082022,2022.2.4,119.14959377308108,
4,0,3,0,0.694444444444444,0.298245614035088,0,0.027777777777778,0.298245614035088,0,0.444444444444444,0.298245614035088,ReadingArea_rsl0-rcl69-esl29-rsm0-rcm2-esm29-rsr0-rcr44-esr29,exr/ReadingArea_rsl0-rcl69-esl29-rsm0-rcm2-esm29-rsr0-rcr44-esr29.exr,ReadingArea_rsl0-rcl69-esl29-rsm0-rcm2-esm29-rsr0-rcr44-esr29.npz,,,,,0,51,51,88,,right,red,4.46,261.92963194847107,262.4173409938812,1,1,6,lightness,readingArea,realistic,75,2023-03-25_12h59.15.250,tripletExp_regina_11082022,2022.2.4,119.14959377308108,
4,14,1,0,0.694444444444444,0.298245614035088,0,0.25,3.10526315789474,0,0.111111111111111,0.298245614035088,ReadingArea_rsl0-rcl69-esl29-rsm0-rcm25-esm310-rsr0-rcr11-esr29,exr/ReadingArea_rsl0-rcl69-esl29-rsm0-rcm25-esm310-rsr0-rcr11-esr29.exr,ReadingArea_rsl0-rcl69-esl29-rsm0-rcm25-esm310-rsr0-rcr11-esr29.npz,,,,,0,52,52,477,,left,green,0.8,264.10847997665405,264.56742000579834,1,1,6,lightness,readingArea,realistic,75,2023-03-25_12h59.15.250,tripletExp_regina_11082022,2022.2.4,119.14959377308108,
11,5,4,0,1.0,1.0,0,1.0,0.298245614035088,0,0.694444444444444,0.298245614035088,ReadingArea_rsl0-rcl100-esl100-rsm0-rcm100-esm29-rsr0-rcr69-esr29,exr/ReadingArea_rsl0-rcl100-esl100-rsm0-rcm100-esm29-rsr0-rcr69-esr29.exr,ReadingArea_rsl0-rcl100-esl100-rsm0-rcm100-esm29-rsr0-rcr69-esr29.npz,,,,,0,53,53,564,,right,red,0.98,266.2600739002228,,1,1,6,lightness,readingArea,realistic,75,2023-03-25_12h59.15.250,tripletExp_regina_11082022,2022.2.4,119.14959377308108,
14,12,10,0,0.25,3.10526315789474,0,0.027777777777778,3.10526315789474,0,0.694444444444444,1.0,ReadingArea_rsl0-rcl25-esl310-rsm0-rcm2-esm310-rsr0-rcr69-esr100,exr/ReadingArea_rsl0-rcl25-esl310-rsm0-rcm2-esm310-rsr0-rcr69-esr100.exr,ReadingArea_rsl0-rcl25-esl310-rsm0-rcm2-esm310-rsr0-rcr69-esr100.npz,,,,,0,54,54,331,,left,green,2.06,270.18475008010864,270.6546919345856,1,1,6,lightness,readingArea,realistic,75,2023-03-25_12h59.15.250,tripletExp_regina_11082022,2022.2.4,119.14959377308108,
10,0,11,0,0.694444444444444,1.0,0,0.027777777777778,0.298245614035088,0,1.0,1.0,ReadingArea_rsl0-rcl69-esl100-rsm0-rcm2-esm29-rsr0-rcr100-esr100,exr/ReadingArea_rsl0-rcl69-esl100-rsm0-rcm2-esm29-rsr0-rcr100-esr100.exr,ReadingArea_rsl0-rcl69-esl100-rsm0-rcm2-esm29-rsr0-rcr100-esr100.npz,,,,,0,55,55,573,,left,green,1.09,272.35212302207947,272.8332688808441,1,1,6,lightness,readingArea,realistic,75,2023-03-25_12h59.15.250,tripletExp_regina_11082022,2022.2.4,119.14959377308108,
6,10,9,0,0.027777777777778,1.0,0,0.694444444444444,1.0,0,0.444444444444444,1.0,ReadingArea_rsl0-rcl2-esl100-rsm0-rcm69-esm100-rsr0-rcr44-esr100,exr/ReadingArea_rsl0-rcl2-esl100-rsm0-rcm69-esm100-rsr0-rcr44-esr100.exr,ReadingArea_rsl0-rcl2-esl100-rsm0-rcm69-esm100-rsr0-rcr44-esr100.npz,,,,,0,56,56,148,,right,red,0.86,274.5278570652008,,1,1,6,lightness,readingArea,realistic,75,2023-03-25_12h59.15.250,tripletExp_regina_11082022,2022.2.4,119.14959377308108,
2,4,14,0,0.25,0.298245614035088,0,0.694444444444444,0.298245614035088,0,0.25,3.10526315789474,ReadingArea_rsl0-rcl25-esl29-rsm0-rcm69-esm29-rsr0-rcr25-esr310,exr/ReadingArea_rsl0-rcl25-esl29-rsm0-rcm69-esm29-rsr0-rcr25-esr310.exr,ReadingArea_rsl0-rcl25-esl29-rsm0-rcm69-esm29-rsr0-rcr25-esr310.npz,,,,,0,57,57,356,,right,red,0.85,276.69302892684937,277.1472361087799,1,1,6,lightness,readingArea,realistic,75,2023-03-25_12h59.15.250,tripletExp_regina_11082022,2022.2.4,119.14959377308108,
4,5,9,0,0.694444444444444,0.298245614035088,0,1.0,0.298245614035088,0,0.444444444444444,1.0,ReadingArea_rsl0-rcl69-esl29-rsm0-rcm100-esm29-rsr0-rcr44-esr100,exr/ReadingArea_rsl0-rcl69-esl29-rsm0-rcm100-esm29-rsr0-rcr44-esr100.exr,ReadingArea_rsl0-rcl69-esl29-rsm0-rcm100-esm29-rsr0-rcr44-esr100.npz,,,,,0,58,58,211,,right,red,0.89,278.86324405670166,279.3416919708252,1,1,6,lightness,readingArea,realistic,75,2023-03-25_12h59.15.250,tripletExp_regina_11082022,2022.2.4,119.14959377308108,
1,13,8,0,0.111111111111111,0.298245614035088,0,0.111111111111111,3.10526315789474,0,0.25,1.0,ReadingArea_rsl0-rcl11-esl29-rsm0-rcm11-esm310-rsr0-rcr25-esr100,exr/ReadingArea_rsl0-rcl11-esl29-rsm0-rcm11-esm310-rsr0-rcr25-esr100.exr,ReadingArea_rsl0-rcl11-esl29-rsm0-rcm11-esm310-rsr0-rcr25-esr100.npz,,,,,0,59,59,64,,right,red,0.85,281.0683081150055,281.5055830478668,1,1,6,lightness,readingArea,realistic,75,2023-03-25_12h59.15.250,tripletExp_regina_11082022,2022.2.4,119.14959377308108,
4,1,3,0,0.694444444444444,0.298245614035088,0,0.111111111111111,0.298245614035088,0,0.444444444444444,0.298245614035088,ReadingArea_rsl0-rcl69-esl29-rsm0-rcm11-esm29-rsr0-rcr44-esr29,exr/ReadingArea_rsl0-rcl69-esl29-rsm0-rcm11-esm29-rsr0-rcr44-esr29.exr,ReadingArea_rsl0-rcl69-esl29-rsm0-rcm11-esm29-rsr0-rcr44-esr29.npz,,,,,0,60,60,70,,right,red,2.15,284.97005701065063,285.5920560359955,1,1,6,lightness,readingArea,realistic,75,2023-03-25_12h59.15.250,tripletExp_regina_11082022,2022.2.4,119.14959377308108,
11,12,2,0,1.0,1.0,0,0.027777777777778,3.10526315789474,0,0.25,0.298245614035088,ReadingArea_rsl0-rcl100-esl100-rsm0-rcm2-esm310-rsr0-rcr25-esr29,exr/ReadingArea_rsl0-rcl100-esl100-rsm0-rcm2-esm310-rsr0-rcr25-esr29.exr,ReadingArea_rsl0-rcl100-esl100-rsm0-rcm2-esm310-rsr0-rcr25-esr29.npz,,,,,0,61,61,423,,right,red,0.9,287.2792840003968,287.717001914978,1,1,6,lightness,readingArea,realistic,75,2023-03-25_12h59.15.250,tripletExp_regina_11082022,2022.2.4,119.14959377308108,
11,7,13,0,1.0,1.0,0,0.111111111111111,1.0,0,0.111111111111111,3.10526315789474,ReadingArea_rsl0-rcl100-esl100-rsm0-rcm11-esm100-rsr0-rcr11-esr310,exr/ReadingArea_rsl0-rcl100-esl100-rsm0-rcm11-esm100-rsr0-rcr11-esr310.exr,ReadingArea_rsl0-rcl100-esl100-rsm0-rcm11-esm100-rsr0-rcr11-esr310.npz,,,,,0,62,62,431,,right,red,0.73,289.4294879436493,289.88049697875977,1,1,6,lightness,readingArea,realistic,75,2023-03-25_12h59.15.250,tripletExp_regina_11082022,2022.2.4,119.14959377308108,
5,4,12,0,1.0,0.298245614035088,0,0.694444444444444,0.298245614035088,0,0.027777777777778,3.10526315789474,ReadingArea_rsl0-rcl100-esl29-rsm0-rcm69-esm29-rsr0-rcr2-esr310,exr/ReadingArea_rsl0-rcl100-esl29-rsm0-rcm69-esm29-rsr0-rcr2-esr310.exr,ReadingArea_rsl0-rcl100-esl29-rsm0-rcm69-esm29-rsr0-rcr2-esr310.npz,,,,,0,63,63,82,,left,green,0.83,291.5967791080475,292.0826849937439,1,1,6,lightness,readingArea,realistic,75,2023-03-25_12h59.15.250,tripletExp_regina_11082022,2022.2.4,119.14959377308108,
2,13,0,0,0.25,0.298245614035088,0,0.111111111111111,3.10526315789474,0,0.027777777777778,0.298245614035088,ReadingArea_rsl0-rcl25-esl29-rsm0-rcm11-esm310-rsr0-rcr2-esr29,exr/ReadingArea_rsl0-rcl25-esl29-rsm0-rcm11-esm310-rsr0-rcr2-esr29.exr,ReadingArea_rsl0-rcl25-esl29-rsm0-rcm11-esm310-rsr0-rcr2-esr29.npz,,,,,0,64,64,454,,left,green,0.73,293.8022561073303,294.3831789493561,1,1,6,lightness,readingArea,realistic,75,2023-03-25_12h59.15.250,tripletExp_regina_11082022,2022.2.4,119.14959377308108,
13,14,7,0,0.111111111111111,3.10526315789474,0,0.25,3.10526315789474,0,0.111111111111111,1.0,ReadingArea_rsl0-rcl11-esl310-rsm0-rcm25-esm310-rsr0-rcr11-esr100,exr/ReadingArea_rsl0-rcl11-esl310-rsm0-rcm25-esm310-rsr0-rcr11-esr100.exr,ReadingArea_rsl0-rcl11-esl310-rsm0-rcm25-esm310-rsr0-rcr11-esr100.npz,,,,,0,65,65,324,,left,green,2.45,297.8214359283447,298.2759521007538,1,1,6,lightness,readingArea,realistic,75,2023-03-25_12h59.15.250,tripletExp_regina_11082022,2022.2.4,119.14959377308108,
10,7,4,0,0.694444444444444,1.0,0,0.111111111111111,1.0,0,0.694444444444444,0.298245614035088,ReadingArea_rsl0-rcl69-esl100-rsm0-rcm11-esm100-rsr0-rcr69-esr29,exr/ReadingArea_rsl0-rcl69-esl100-rsm0-rcm11-esm100-rsr0-rcr69-esr29.exr,ReadingArea_rsl0-rcl69-esl100-rsm0-rcm11-esm100-rsr0-rcr69-esr29.npz,,,,,0,66,66,223,,right,red,0.73,300.0010459423065,300.45794010162354,1,1,6,lightness,readingArea,realistic,75,2023-03-25_12h59.15.250,tripletExp_regina_11082022,2022.2.4,119.14959377308108,
14,6,5,0,0.25,3.10526315789474,0,0.027777777777778,1.0,0,1.0,0.298245614035088,ReadingArea_rsl0-rcl25-esl310-rsm0-rcm2-esm100-rsr0-rcr100-esr29,exr/ReadingArea_rsl0-rcl25-esl310-rsm0-rcm2-esm100-rsr0-rcr100-esr29.exr,ReadingArea_rsl0-rcl25-esl310-rsm0-rcm2-esm100-rsr0-rcr100-esr29.npz,,,,,0,67,67,297,,right,red,0.98,302.16996002197266,302.75187397003174,1,1,6,lightness,readingArea,realistic,75,2023-03-25_12h59.15.250,tripletExp_regina_11082022,2022.2.4,119.14959377308108,
2,8,11,0,0.25,0.298245614035088,0,0.25,1.0,0,1.0,1.0,ReadingArea_rsl0-rcl25-esl29-rsm0-rcm25-esm100-rsr0-rcr100-esr100,exr/ReadingArea_rsl0-rcl25-esl29-rsm0-rcm25-esm100-rsr0-rcr100-esr100.exr,ReadingArea_rsl0-rcl25-esl29-rsm0-rcm25-esm100-rsr0-rcr100-esr100.npz,,,,,0,68,68,225,,left,green,2.28,306.24844694137573,306.71617007255554,1,1,6,lightness,readingArea,realistic,75,2023-03-25_12h59.15.250,tripletExp_regina_11082022,2022.2.4,119.14959377308108,
3,4,0,0,0.444444444444444,0.298245614035088,0,0.694444444444444,0.298245614035088,0,0.027777777777778,0.298245614035088,ReadingArea_rsl0-rcl44-esl29-rsm0-rcm69-esm29-rsr0-rcr2-esr29,exr/ReadingArea_rsl0-rcl44-esl29-rsm0-rcm69-esm29-rsr0-rcr2-esr29.exr,ReadingArea_rsl0-rcl44-esl29-rsm0-rcm69-esm29-rsr0-rcr2-esr29.npz,,,,,0,69,69,130,,left,green,0.71,308.4061748981476,308.86945390701294,1,1,6,lightness,readingArea,realistic,75,2023-03-25_12h59.15.250,tripletExp_regina_11082022,2022.2.4,119.14959377308108,
6,1,14,0,0.027777777777778,1.0,0,0.111111111111111,0.298245614035088,0,0.25,3.10526315789474,ReadingArea_rsl0-rcl2-esl100-rsm0-rcm11-esm29-rsr0-rcr25-esr310,exr/ReadingArea_rsl0-rcl2-esl100-rsm0-rcm11-esm29-rsr0-rcr25-esr310.exr,ReadingArea_rsl0-rcl2-esl100-rsm0-rcm11-esm29-rsr0-rcr25-esr310.npz,,,,,0,70,70,381,,left,green,0.74,310.5632939338684,311.02432894706726,1,1,6,lightness,readingArea,realistic,75,2023-03-25_12h59.15.250,tripletExp_regina_11082022,2022.2.4,119.14959377308108,
0,11,9,0,0.027777777777778,0.298245614035088,0,1.0,1.0,0,0.444444444444444,1.0,ReadingArea_rsl0-rcl2-esl29-rsm0-rcm100-esm100-rsr0-rcr44-esr100,exr/ReadingArea_rsl0-rcl2-esl29-rsm0-rcm100-esm100-rsr0-rcr44-esr100.exr,ReadingArea_rsl0-rcl2-esl29-rsm0-rcm100-esm100-rsr0-rcr44-esr100.npz,,,,,0,71,71,32,,right,red,0.64,312.71317195892334,313.2732329368592,1,1,6,lightness,readingArea,realistic,75,2023-03-25_12h59.15.250,tripletExp_regina_11082022,2022.2.4,119.14959377308108,
9,0,3,0,0.444444444444444,1.0,0,0.027777777777778,0.298245614035088,0,0.444444444444444,0.298245614035088,ReadingArea_rsl0-rcl44-esl100-rsm0-rcm2-esm29-rsr0-rcr44-esr29,exr/ReadingArea_rsl0-rcl44-esl100-rsm0-rcm2-esm29-rsr0-rcr44-esr29.exr,ReadingArea_rsl0-rcl44-esl100-rsm0-rcm2-esm29-rsr0-rcr44-esr29.npz,,,,,0,72,72,2,,right,red,1.08,314.95774102211,315.44682002067566,1,1,6,lightness,readingArea,realistic,75,2023-03-25_12h59.15.250,tripletExp_regina_11082022,2022.2.4,119.14959377308108,
12,8,6,0,0.027777777777778,3.10526315789474,0,0.25,1.0,0,0.027777777777778,1.0,ReadingArea_rsl0-rcl2-esl310-rsm0-rcm25-esm100-rsr0-rcr2-esr100,exr/ReadingArea_rsl0-rcl2-esl310-rsm0-rcm25-esm100-rsr0-rcr2-esr100.exr,ReadingArea_rsl0-rcl2-esl310-rsm0-rcm25-esm100-rsr0-rcr2-esr100.npz,,,,,0,73,73,281,,left,green,2.18,318.9205129146576,319.4713399410248,1,1,6,lightness,readingArea,realistic,75,2023-03-25_12h59.15.250,tripletExp_regina_11082022,2022.2.4,119.14959377308108,
7,9,3,0,0.111111111111111,1.0,0,0.444444444444444,1.0,0,0.444444444444444,0.298245614035088,ReadingArea_rsl0-rcl11-esl100-rsm0-rcm44-esm100-rsr0-rcr44-esr29,exr/ReadingArea_rsl0-rcl11-esl100-rsm0-rcm44-esm100-rsr0-rcr44-esr29.exr,ReadingArea_rsl0-rcl11-esl100-rsm0-rcm44-esm100-rsr0-rcr44-esr29.npz,,,,,0,74,74,311,,right,red,1.0,321.1793429851532,321.3839259147644,1,1,6,lightness,readingArea,realistic,75,2023-03-25_12h59.15.250,tripletExp_regina_11082022,2022.2.4,119.14959377308108,
5,10,0,0,1.0,0.298245614035088,0,0.694444444444444,1.0,0,0.027777777777778,0.298245614035088,ReadingArea_rsl0-rcl100-esl29-rsm0-rcm69-esm100-rsr0-rcr2-esr29,exr/ReadingArea_rsl0-rcl100-esl29-rsm0-rcm69-esm100-rsr0-rcr2-esr29.exr,ReadingArea_rsl0-rcl100-esl29-rsm0-rcm69-esm100-rsr0-rcr2-esr29.npz,,,,,0,75,75,293,,left,green,0.69,324.3033709526062,324.7999150753021,2,1,6,lightness,readingArea,realistic,75,2023-03-25_12h59.15.250,tripletExp_regina_11082022,2022.2.4,119.14959377308108,
0,4,12,0,0.027777777777778,0.298245614035088,0,0.694444444444444,0.298245614035088,0,0.027777777777778,3.10526315789474,ReadingArea_rsl0-rcl2-esl29-rsm0-rcm69-esm29-rsr0-rcr2-esr310,exr/ReadingArea_rsl0-rcl2-esl29-rsm0-rcm69-esm29-rsr0-rcr2-esr310.exr,ReadingArea_rsl0-rcl2-esl29-rsm0-rcm69-esm29-rsr0-rcr2-esr310.npz,,,,,0,76,76,150,,right,red,0.79,326.5002009868622,326.9552729129791,2,1,6,lightness,readingArea,realistic,75,2023-03-25_12h59.15.250,tripletExp_regina_11082022,2022.2.4,119.14959377308108,
8,2,0,0,0.25,1.0,0,0.25,0.298245614035088,0,0.027777777777778,0.298245614035088,ReadingArea_rsl0-rcl25-esl100-rsm0-rcm25-esm29-rsr0-rcr2-esr29,exr/ReadingArea_rsl0-rcl25-esl100-rsm0-rcm25-esm29-rsr0-rcr2-esr29.exr,ReadingArea_rsl0-rcl25-esl100-rsm0-rcm25-esm29-rsr0-rcr2-esr29.npz,,,,,0,77,77,574,,left,green,0.72,328.6532049179077,,2,1,6,lightness,readingArea,realistic,75,2023-03-25_12h59.15.250,tripletExp_regina_11082022,2022.2.4,119.14959377308108,
1,11,14,0,0.111111111111111,0.298245614035088,0,1.0,1.0,0,0.25,3.10526315789474,ReadingArea_rsl0-rcl11-esl29-rsm0-rcm100-esm100-rsr0-rcr25-esr310,exr/ReadingArea_rsl0-rcl11-esl29-rsm0-rcm100-esm100-rsr0-rcr25-esr310.exr,ReadingArea_rsl0-rcl11-esl29-rsm0-rcm100-esm100-rsr0-rcr25-esr310.npz,,,,,0,78,78,399,,right,red,0.77,330.81196188926697,,2,1,6,lightness,readingArea,realistic,75,2023-03-25_12h59.15.250,tripletExp_regina_11082022,2022.2.4,119.14959377308108,
1,12,0,0,0.111111111111111,0.298245614035088,0,0.027777777777778,3.10526315789474,0,0.027777777777778,0.298245614035088,ReadingArea_rsl0-rcl11-esl29-rsm0-rcm2-esm310-rsr0-rcr2-esr29,exr/ReadingArea_rsl0-rcl11-esl29-rsm0-rcm2-esm310-rsr0-rcr2-esr29.exr,ReadingArea_rsl0-rcl11-esl29-rsm0-rcm2-esm310-rsr0-rcr2-esr29.npz,,,,,0,79,79,113,,left,green,0.98,332.9866359233856,333.53670597076416,2,1,6,lightness,readingArea,realistic,75,2023-03-25_12h59.15.250,tripletExp_regina_11082022,2022.2.4,119.14959377308108,
6,0,14,0,0.027777777777778,1.0,0,0.027777777777778,0.298245614035088,0,0.25,3.10526315789474,ReadingArea_rsl0-rcl2-esl100-rsm0-rcm2-esm29-rsr0-rcr25-esr310,exr/ReadingArea_rsl0-rcl2-esl100-rsm0-rcm2-esm29-rsr0-rcr25-esr310.exr,ReadingArea_rsl0-rcl2-esl100-rsm0-rcm2-esm29-rsr0-rcr25-esr310.npz,,,,,0,80,80,169,,left,green,0.78,335.2523159980774,335.7013680934906,2,1,6,lightness,readingArea,realistic,75,2023-03-25_12h59.15.250,tripletExp_regina_11082022,2022.2.4,119.14959377308108,
4,12,2,0,0.694444444444444,0.298245614035088,0,0.027777777777778,3.10526315789474,0,0.25,0.298245614035088,ReadingArea_rsl0-rcl69-esl29-rsm0-rcm2-esm310-rsr0-rcr25-esr29,exr/ReadingArea_rsl0-rcl69-esl29-rsm0-rcm2-esm310-rsr0-rcr25-esr29.exr,ReadingArea_rsl0-rcl69-esl29-rsm0-rcm2-esm310-rsr0-rcr25-esr29.npz,,,,,0,81,81,543,,right,red,0.71,337.40177488327026,337.8590340614319,2,1,6,lightness,readingArea,realistic,75,2023-03-25_12h59.15.250,tripletExp_regina_11082022,2022.2.4,119.14959377308108,
7,8,12,0,0.111111111111111,1.0,0,0.25,1.0,0,0.027777777777778,3.10526315789474,ReadingArea_rsl0-rcl11-esl100-rsm0-rcm25-esm100-rsr0-rcr2-esr310,exr/ReadingArea_rsl0-rcl11-esl100-rsm0-rcm25-esm100-rsr0-rcr2-esr310.exr,ReadingArea_rsl0-rcl11-esl100-rsm0-rcm25-esm100-rsr0-rcr2-esr310.npz,,,,,0,82,82,271,,left,green,1.08,339.5558669567108,340.043713092804,2,1,6,lightness,readingArea,realistic,75,2023-03-25_12h59.15.250,tripletExp_regina_11082022,2022.2.4,119.14959377308108,
10,3,1,0,0.694444444444444,1.0,0,0.444444444444444,0.298245614035088,0,0.111111111111111,0.298245614035088,ReadingArea_rsl0-rcl69-esl100-rsm0-rcm44-esm29-rsr0-rcr11-esr29,exr/ReadingArea_rsl0-rcl69-esl100-rsm0-rcm44-esm29-rsr0-rcr11-esr29.exr,ReadingArea_rsl0-rcl69-esl100-rsm0-rcm44-esm29-rsr0-rcr11-esr29.npz,,,,,0,83,83,420,,left,green,0.96,341.76753997802734,342.2743110656738,2,1,6,lightness,readingArea,realistic,75,2023-03-25_12h59.15.250,tripletExp_regina_11082022,2022.2.4,119.14959377308108,
11,13,1,0,1.0,1.0,0,0.111111111111111,3.10526315789474,0,0.111111111111111,0.298245614035088,ReadingArea_rsl0-rcl100-esl100-rsm0-rcm11-esm310-rsr0-rcr11-esr29,exr/ReadingArea_rsl0-rcl100-esl100-rsm0-rcm11-esm310-rsr0-rcr11-esr29.exr,ReadingArea_rsl0-rcl100-esl100-rsm0-rcm11-esm310-rsr0-rcr11-esr29.npz,,,,,0,84,84,185,,right,red,2.27,345.7432429790497,346.2298629283905,2,1,6,lightness,readingArea,realistic,75,2023-03-25_12h59.15.250,tripletExp_regina_11082022,2022.2.4,119.14959377308108,
11,0,12,0,1.0,1.0,0,0.027777777777778,0.298245614035088,0,0.027777777777778,3.10526315789474,ReadingArea_rsl0-rcl100-esl100-rsm0-rcm2-esm29-rsr0-rcr2-esr310,exr/ReadingArea_rsl0-rcl100-esl100-rsm0-rcm2-esm29-rsr0-rcr2-esr310.exr,ReadingArea_rsl0-rcl100-esl100-rsm0-rcm2-esm29-rsr0-rcr2-esr310.npz,,,,,0,85,85,166,,right,red,0.78,347.9310019016266,,2,1,6,lightness,readingArea,realistic,75,2023-03-25_12h59.15.250,tripletExp_regina_11082022,2022.2.4,119.14959377308108,
13,7,11,0,0.111111111111111,3.10526315789474,0,0.111111111111111,1.0,0,1.0,1.0,ReadingArea_rsl0-rcl11-esl310-rsm0-rcm11-esm100-rsr0-rcr100-esr100,exr/ReadingArea_rsl0-rcl11-esl310-rsm0-rcm11-esm100-rsr0-rcr100-esr100.exr,ReadingArea_rsl0-rcl11-esl310-rsm0-rcm11-esm100-rsr0-rcr100-esr100.npz,,,,,0,86,86,121,,left,green,0.6,350.0724549293518,350.5597610473633,2,1,6,lightness,readingArea,realistic,75,2023-03-25_12h59.15.250,tripletExp_regina_11082022,2022.2.4,119.14959377308108,
2,11,7,0,0.25,0.298245614035088,0,1.0,1.0,0,0.111111111111111,1.0,ReadingArea_rsl0-rcl25-esl29-rsm0-rcm100-esm100-rsr0-rcr11-esr100,exr/ReadingArea_rsl0-rcl25-esl29-rsm0-rcm100-esm100-rsr0-rcr11-esr100.exr,ReadingArea_rsl0-rcl25-esl29-rsm0-rcm100-esm100-rsr0-rcr11-esr100.npz,,,,,0,87,87,576,,right,red,2.21,354.04985189437866,354.5031089782715,2,1,6,lightness,readingArea,realistic,75,2023-03-25_12h59.15.250,tripletExp_regina_11082022,2022.2.4,119.14959377308108,
11,2,4,0,1.0,1.0,0,0.25,0.298245614035088,0,0.694444444444444,0.298245614035088,ReadingArea_rsl0-rcl100-esl100-rsm0-rcm25-esm29-rsr0-rcr69-esr29,exr/ReadingArea_rsl0-rcl100-esl100-rsm0-rcm25-esm29-rsr0-rcr69-esr29.exr,ReadingArea_rsl0-rcl100-esl100-rsm0-rcm25-esm29-rsr0-rcr69-esr29.npz,,,,,0,88,88,359,,right,red,0.75,356.1950399875641,356.6469900608063,2,1,6,lightness,readingArea,realistic,75,2023-03-25_12h59.15.250,tripletExp_regina_11082022,2022.2.4,119.14959377308108,
10,3,0,0,0.694444444444444,1.0,0,0.444444444444444,0.298245614035088,0,0.027777777777778,0.298245614035088,ReadingArea_rsl0-rcl69-esl100-rsm0-rcm44-esm29-rsr0-rcr2-esr29,exr/ReadingArea_rsl0-rcl69-esl100-rsm0-rcm44-esm29-rsr0-rcr2-esr29.exr,ReadingArea_rsl0-rcl69-esl100-rsm0-rcm44-esm29-rsr0-rcr2-esr29.npz,,,,,0,89,89,203,,left,green,0.86,358.3589670658112,358.8119549751282,2,1,6,lightness,readingArea,realistic,75,2023-03-25_12h59.15.250,tripletExp_regina_11082022,2022.2.4,119.14959377308108,
5,13,6,0,1.0,0.298245614035088,0,0.111111111111111,3.10526315789474,0,0.027777777777778,1.0,ReadingArea_rsl0-rcl100-esl29-rsm0-rcm11-esm310-rsr0-rcr2-esr100,exr/ReadingArea_rsl0-rcl100-esl29-rsm0-rcm11-esm310-rsr0-rcr2-esr100.exr,ReadingArea_rsl0-rcl100-esl29-rsm0-rcm11-esm310-rsr0-rcr2-esr100.npz,,,,,0,90,90,263,,right,red,2.84,362.2571520805359,362.71139693260193,2,1,6,lightness,readingArea,realistic,75,2023-03-25_12h59.15.250,tripletExp_regina_11082022,2022.2.4,119.14959377308108,
12,8,3,0,0.027777777777778,3.10526315789474,0,0.25,1.0,0,0.444444444444444,0.298245614035088,ReadingArea_rsl0-rcl2-esl310-rsm0-rcm25-esm100-rsr0-rcr44-esr29,exr/ReadingArea_rsl0-rcl2-esl310-rsm0-rcm25-esm100-rsr0-rcr44-esr29.exr,ReadingArea_rsl0-rcl2-esl310-rsm0-rcm25-esm100-rsr0-rcr44-esr29.npz,,,,,0,91,91,386,,right,red,1.09,364.43439388275146,364.8750898838043,2,1,6,lightness,readingArea,realistic,75,2023-03-25_12h59.15.250,tripletExp_regina_11082022,2022.2.4,119.14959377308108,
6,9,2,0,0.027777777777778,1.0,0,0.444444444444444,1.0,0,0.25,0.298245614035088,ReadingArea_rsl0-rcl2-esl100-rsm0-rcm44-esm100-rsr0-rcr25-esr29,exr/ReadingArea_rsl0-rcl2-esl100-rsm0-rcm44-esm100-rsr0-rcr25-esr29.exr,ReadingArea_rsl0-rcl2-esl100-rsm0-rcm44-esm100-rsr0-rcr25-esr29.npz,,,,,0,92,92,182,,right,red,0.81,366.56533193588257,366.99724793434143,2,1,6,lightness,readingArea,realistic,75,2023-03-25_12h59.15.250,tripletExp_regina_11082022,2022.2.4,119.14959377308108,
13,3,12,0,0.111111111111111,3.10526315789474,0,0.444444444444444,0.298245614035088,0,0.027777777777778,3.10526315789474,ReadingArea_rsl0-rcl11-esl310-rsm0-rcm44-esm29-rsr0-rcr2-esr310,exr/ReadingArea_rsl0-rcl11-esl310-rsm0-rcm44-esm29-rsr0-rcr2-esr310.exr,ReadingArea_rsl0-rcl11-esl310-rsm0-rcm44-esm29-rsr0-rcr2-esr310.npz,,,,,0,93,93,80,,left,green,1.03,368.69308495521545,,2,1,6,lightness,readingArea,realistic,75,2023-03-25_12h59.15.250,tripletExp_regina_11082022,2022.2.4,119.14959377308108,
6,0,11,0,0.027777777777778,1.0,0,0.027777777777778,0.298245614035088,0,1.0,1.0,ReadingArea_rsl0-rcl2-esl100-rsm0-rcm2-esm29-rsr0-rcr100-esr100,exr/ReadingArea_rsl0-rcl2-esl100-rsm0-rcm2-esm29-rsr0-rcr100-esr100.exr,ReadingArea_rsl0-rcl2-esl100-rsm0-rcm2-esm29-rsr0-rcr100-esr100.npz,,,,,0,94,94,245,,left,green,0.81,371.00730895996094,371.4948990345001,2,1,6,lightness,readingArea,realistic,75,2023-03-25_12h59.15.250,tripletExp_regina_11082022,2022.2.4,119.14959377308108,
0,8,9,0,0.027777777777778,0.298245614035088,0,0.25,1.0,0,0.444444444444444,1.0,ReadingArea_rsl0-rcl2-esl29-rsm0-rcm25-esm100-rsr0-rcr44-esr100,exr/ReadingArea_rsl0-rcl2-esl29-rsm0-rcm25-esm100-rsr0-rcr44-esr100.exr,ReadingArea_rsl0-rcl2-esl29-rsm0-rcm25-esm100-rsr0-rcr44-esr100.npz,,,,,0,95,95,541,,right,red,0.65,373.21951603889465,373.6592700481415,2,1,6,lightness,readingArea,realistic,75,2023-03-25_12h59.15.250,tripletExp_regina_11082022,2022.2.4,119.14959377308108,
2,7,11,0,0.25,0.298245614035088,0,0.111111111111111,1.0,0,1.0,1.0,ReadingArea_rsl0-rcl25-esl29-rsm0-rcm11-esm100-rsr0-rcr100-esr100,exr/ReadingArea_rsl0-rcl25-esl29-rsm0-rcm11-esm100-rsr0-rcr100-esr100.exr,ReadingArea_rsl0-rcl25-esl29-rsm0-rcm11-esm100-rsr0-rcr100-esr100.npz,,,,,0,96,96,194,,left,green,0.67,375.3586070537567,375.8040180206299,2,1,6,lightness,readingArea,realistic,75,2023-03-25_12h59.15.250,tripletExp_regina_11082022,2022.2.4,119.14959377308108,
2,1,13,0,0.25,0.298245614035088,0,0.111111111111111,0.298245614035088,0,0.111111111111111,3.10526315789474,ReadingArea_rsl0-rcl25-esl29-rsm0-rcm11-esm29-rsr0-rcr11-esr310,exr/ReadingArea_rsl0-rcl25-esl29-rsm0-rcm11-esm29-rsr0-rcr11-esr310.exr,ReadingArea_rsl0-rcl25-esl29-rsm0-rcm11-esm29-rsr0-rcr11-esr310.npz,,,,,0,97,97,290,,left,green,0.66,377.52441000938416,377.9584379196167,2,1,6,lightness,readingArea,realistic,75,2023-03-25_12h59.15.250,tripletExp_regina_11082022,2022.2.4,119.14959377308108,
3,13,10,0,0.444444444444444,0.298245614035088,0,0.111111111111111,3.10526315789474,0,0.694444444444444,1.0,ReadingArea_rsl0-rcl44-esl29-rsm0-rcm11-esm310-rsr0-rcr69-esr100,exr/ReadingArea_rsl0-rcl44-esl29-rsm0-rcm11-esm310-rsr0-rcr69-esr100.exr,ReadingArea_rsl0-rcl44-esl29-rsm0-rcm11-esm310-rsr0-rcr69-esr100.npz,,,,,0,98,98,416,,left,green,2.15,381.4493598937988,381.8954119682312,2,1,6,lightness,readingArea,realistic,75,2023-03-25_12h59.15.250,tripletExp_regina_11082022,2022.2.4,119.14959377308108,
10,2,0,0,0.694444444444444,1.0,0,0.25,0.298245614035088,0,0.027777777777778,0.298245614035088,ReadingArea_rsl0-rcl69-esl100-rsm0-rcm25-esm29-rsr0-rcr2-esr29,exr/ReadingArea_rsl0-rcl69-esl100-rsm0-rcm25-esm29-rsr0-rcr2-esr29.exr,ReadingArea_rsl0-rcl69-esl100-rsm0-rcm25-esm29-rsr0-rcr2-esr29.npz,,,,,0,99,99,427,,right,red,2.12,385.3843510150909,385.8733289241791,2,1,6,lightness,readingArea,realistic,75,2023-03-25_12h59.15.250,tripletExp_regina_11082022,2022.2.4,119.14959377308108,
14,8,2,0,0.25,3.10526315789474,0,0.25,1.0,0,0.25,0.298245614035088,ReadingArea_rsl0-rcl25-esl310-rsm0-rcm25-esm100-rsr0-rcr25-esr29,exr/ReadingArea_rsl0-rcl25-esl310-rsm0-rcm25-esm100-rsr0-rcr25-esr29.exr,ReadingArea_rsl0-rcl25-esl310-rsm0-rcm25-esm100-rsr0-rcr25-esr29.npz,,,,,0,100,100,251,,right,red,0.88,387.5609529018402,388.1139860153198,2,1,6,lightness,readingArea,realistic,75,2023-03-25_12h59.15.250,tripletExp_regina_11082022,2022.2.4,119.14959377308108,
13,4,7,0,0.111111111111111,3.10526315789474,0,0.694444444444444,0.298245614035088,0,0.111111111111111,1.0,ReadingArea_rsl0-rcl11-esl310-rsm0-rcm69-esm29-rsr0-rcr11-esr100,exr/ReadingArea_rsl0-rcl11-esl310-rsm0-rcm69-esm29-rsr0-rcr11-esr100.exr,ReadingArea_rsl0-rcl11-esl310-rsm0-rcm69-esm29-rsr0-rcr11-esr100.npz,,,,,0,101,101,282,,left,green,1.15,389.8331079483032,390.3367109298706,2,1,6,lightness,readingArea,realistic,75,2023-03-25_12h59.15.250,tripletExp_regina_11082022,2022.2.4,119.14959377308108,
14,4,8,0,0.25,3.10526315789474,0,0.694444444444444,0.298245614035088,0,0.25,1.0,ReadingArea_rsl0-rcl25-esl310-rsm0-rcm69-esm29-rsr0-rcr25-esr100,exr/ReadingArea_rsl0-rcl25-esl310-rsm0-rcm69-esm29-rsr0-rcr25-esr100.exr,ReadingArea_rsl0-rcl25-esl310-rsm0-rcm69-esm29-rsr0-rcr25-esr100.npz,,,,,0,102,102,253,,right,red,1.08,392.05442810058594,,2,1,6,lightness,readingArea,realistic,75,2023-03-25_12h59.15.250,tripletExp_regina_11082022,2022.2.4,119.14959377308108,
9,7,3,0,0.444444444444444,1.0,0,0.111111111111111,1.0,0,0.444444444444444,0.298245614035088,ReadingArea_rsl0-rcl44-esl100-rsm0-rcm11-esm100-rsr0-rcr44-esr29,exr/ReadingArea_rsl0-rcl44-esl100-rsm0-rcm11-esm100-rsr0-rcr44-esr29.exr,ReadingArea_rsl0-rcl44-esl100-rsm0-rcm11-esm100-rsr0-rcr44-esr29.npz,,,,,0,103,103,235,,right,red,0.74,394.229376077652,394.68224692344666,2,1,6,lightness,readingArea,realistic,75,2023-03-25_12h59.15.250,tripletExp_regina_11082022,2022.2.4,119.14959377308108,
4,10,6,0,0.694444444444444,0.298245614035088,0,0.694444444444444,1.0,0,0.027777777777778,1.0,ReadingArea_rsl0-rcl69-esl29-rsm0-rcm69-esm100-rsr0-rcr2-esr100,exr/ReadingArea_rsl0-rcl69-esl29-rsm0-rcm69-esm100-rsr0-rcr2-esr100.exr,ReadingArea_rsl0-rcl69-esl29-rsm0-rcm69-esm100-rsr0-rcr2-esr100.npz,,,,,0,104,104,468,,left,green,0.67,396.3753681182861,396.8387520313263,2,1,6,lightness,readingArea,realistic,75,2023-03-25_12h59.15.250,tripletExp_regina_11082022,2022.2.4,119.14959377308108,
7,4,2,0,0.111111111111111,1.0,0,0.694444444444444,0.298245614035088,0,0.25,0.298245614035088,ReadingArea_rsl0-rcl11-esl100-rsm0-rcm69-esm29-rsr0-rcr25-esr29,exr/ReadingArea_rsl0-rcl11-esl100-rsm0-rcm69-esm29-rsr0-rcr25-esr29.exr,ReadingArea_rsl0-rcl11-esl100-rsm0-rcm69-esm29-rsr0-rcr25-esr29.npz,,,,,0,105,105,146,,right,red,0.95,398.53960490226746,398.9780840873718,2,1,6,lightness,readingArea,realistic,75,2023-03-25_12h59.15.250,tripletExp_regina_11082022,2022.2.4,119.14959377308108,
4,13,2,0,0.694444444444444,0.298245614035088,0,0.111111111111111,3.10526315789474,0,0.25,0.298245614035088,ReadingArea_rsl0-rcl69-esl29-rsm0-rcm11-esm310-rsr0-rcr25-esr29,exr/ReadingArea_rsl0-rcl69-esl29-rsm0-rcm11-esm310-rsr0-rcr25-esr29.exr,ReadingArea_rsl0-rcl69-esl29-rsm0-rcm11-esm310-rsr0-rcr25-esr29.npz,,,,,0,106,106,592,,left,green,1.1,400.6771790981293,401.2745270729065,2,1,6,lightness,readingArea,realistic,75,2023-03-25_12h59.15.250,tripletExp_regina_11082022,2022.2.4,119.14959377308108,
2,14,7,0,0.25,0.298245614035088,0,0.25,3.10526315789474,0,0.111111111111111,1.0,ReadingArea_rsl0-rcl25-esl29-rsm0-rcm25-esm310-rsr0-rcr11-esr100,exr/ReadingArea_rsl0-rcl25-esl29-rsm0-rcm25-esm310-rsr0-rcr11-esr100.exr,ReadingArea_rsl0-rcl25-esl29-rsm0-rcm25-esm310-rsr0-rcr11-esr100.npz,,,,,0,107,107,310,,right,red,2.85,404.7322430610657,,2,1,6,lightness,readingArea,realistic,75,2023-03-25_12h59.15.250,tripletExp_regina_11082022,2022.2.4,119.14959377308108,
0,4,7,0,0.027777777777778,0.298245614035088,0,0.694444444444444,0.298245614035088,0,0.111111111111111,1.0,ReadingArea_rsl0-rcl2-esl29-rsm0-rcm69-esm29-rsr0-rcr11-esr100,exr/ReadingArea_rsl0-rcl2-esl29-rsm0-rcm69-esm29-rsr0-rcr11-esr100.exr,ReadingArea_rsl0-rcl2-esl29-rsm0-rcm69-esm29-rsr0-rcr11-esr100.npz,,,,,0,108,108,200,,right,red,0.79,406.9329249858856,407.4019229412079,2,1,6,lightness,readingArea,realistic,75,2023-03-25_12h59.15.250,tripletExp_regina_11082022,2022.2.4,119.14959377308108,
10,12,11,0,0.694444444444444,1.0,0,0.027777777777778,3.10526315789474,0,1.0,1.0,ReadingArea_rsl0-rcl69-esl100-rsm0-rcm2-esm310-rsr0-rcr100-esr100,exr/ReadingArea_rsl0-rcl69-esl100-rsm0-rcm2-esm310-rsr0-rcr100-esr100.exr,ReadingArea_rsl0-rcl69-esl100-rsm0-rcm2-esm310-rsr0-rcr100-esr100.npz,,,,,0,109,109,317,,left,green,1.01,409.1131238937378,409.55493903160095,2,1,6,lightness,readingArea,realistic,75,2023-03-25_12h59.15.250,tripletExp_regina_11082022,2022.2.4,119.14959377308108,
12,6,3,0,0.027777777777778,3.10526315789474,0,0.027777777777778,1.0,0,0.444444444444444,0.298245614035088,ReadingArea_rsl0-rcl2-esl310-rsm0-rcm2-esm100-rsr0-rcr44-esr29,exr/ReadingArea_rsl0-rcl2-esl310-rsm0-rcm2-esm100-rsr0-rcr44-esr29.exr,ReadingArea_rsl0-rcl2-esl310-rsm0-rcm2-esm100-rsr0-rcr44-esr29.npz,,,,,0,110,110,139,,left,green,0.7,411.2793459892273,411.744343996048,2,1,6,lightness,readingArea,realistic,75,2023-03-25_12h59.15.250,tripletExp_regina_11082022,2022.2.4,119.14959377308108,
0,7,9,0,0.027777777777778,0.298245614035088,0,0.111111111111111,1.0,0,0.444444444444444,1.0,ReadingArea_rsl0-rcl2-esl29-rsm0-rcm11-esm100-rsr0-rcr44-esr100,exr/ReadingArea_rsl0-rcl2-esl29-rsm0-rcm11-esm100-rsr0-rcr44-esr100.exr,ReadingArea_rsl0-rcl2-esl29-rsm0-rcm11-esm100-rsr0-rcr44-esr100.npz,,,,,0,111,111,463,,left,green,2.55,415.2360129356384,415.70559906959534,2,1,6,lightness,readingArea,realistic,75,2023-03-25_12h59.15.250,tripletExp_regina_11082022,2022.2.4,119.14959377308108,
2,9,12,0,0.25,0.298245614035088,0,0.444444444444444,1.0,0,0.027777777777778,3.10526315789474,ReadingArea_rsl0-rcl25-esl29-rsm0-rcm44-esm100-rsr0-rcr2-esr310,exr/ReadingArea_rsl0-rcl25-esl29-rsm0-rcm44-esm100-rsr0-rcr2-esr310.exr,ReadingArea_rsl0-rcl25-esl29-rsm0-rcm44-esm100-rsr0-rcr2-esr310.npz,,,,,0,112,112,354,,left,green,2.55,419.15132308006287,419.69560503959656,2,1,6,lightness,readingArea,realistic,75,2023-03-25_12h59.15.250,tripletExp_regina_11082022,2022.2.4,119.14959377308108,
3,6,13,0,0.444444444444444,0.298245614035088,0,0.027777777777778,1.0,0,0.111111111111111,3.10526315789474,ReadingArea_rsl0-rcl44-esl29-rsm0-rcm2-esm100-rsr0-rcr11-esr310,exr/ReadingArea_rsl0-rcl44-esl29-rsm0-rcm2-esm100-rsr0-rcr11-esr310.exr,ReadingArea_rsl0-rcl44-esl29-rsm0-rcm2-esm100-rsr0-rcr11-esr310.npz,,,,,0,113,113,449,,left,green,1.11,421.3795509338379,421.83900809288025,2,1,6,lightness,readingArea,realistic,75,2023-03-25_12h59.15.250,tripletExp_regina_11082022,2022.2.4,119.14959377308108,
10,14,1,0,0.694444444444444,1.0,0,0.25,3.10526315789474,0,0.111111111111111,0.298245614035088,ReadingArea_rsl0-rcl69-esl100-rsm0-rcm25-esm310-rsr0-rcr11-esr29,exr/ReadingArea_rsl0-rcl69-esl100-rsm0-rcm25-esm310-rsr0-rcr11-esr29.exr,ReadingArea_rsl0-rcl69-esl100-rsm0-rcm25-esm310-rsr0-rcr11-esr29.npz,,,,,0,114,114,544,,left,green,0.79,423.5670590400696,424.00970101356506,2,1,6,lightness,readingArea,realistic,75,2023-03-25_12h59.15.250,tripletExp_regina_11082022,2022.2.4,119.14959377308108,
10,14,4,0,0.694444444444444,1.0,0,0.25,3.10526315789474,0,0.694444444444444,0.298245614035088,ReadingArea_rsl0-rcl69-esl100-rsm0-rcm25-esm310-rsr0-rcr69-esr29,exr/ReadingArea_rsl0-rcl69-esl100-rsm0-rcm25-esm310-rsr0-rcr69-esr29.exr,ReadingArea_rsl0-rcl69-esl100-rsm0-rcm25-esm310-rsr0-rcr69-esr29.npz,,,,,0,115,115,267,,left,green,0.89,425.6996080875397,426.18522906303406,2,1,6,lightness,readingArea,realistic,75,2023-03-25_12h59.15.250,tripletExp_regina_11082022,2022.2.4,119.14959377308108,
12,8,10,0,0.027777777777778,3.10526315789474,0,0.25,1.0,0,0.694444444444444,1.0,ReadingArea_rsl0-rcl2-esl310-rsm0-rcm25-esm100-rsr0-rcr69-esr100,exr/ReadingArea_rsl0-rcl2-esl310-rsm0-rcm25-esm100-rsr0-rcr69-esr100.exr,ReadingArea_rsl0-rcl2-esl310-rsm0-rcm25-esm100-rsr0-rcr69-esr100.npz,,,,,0,116,116,216,,left,green,2.31,429.6464691162109,430.1619091033936,2,1,6,lightness,readingArea,realistic,75,2023-03-25_12h59.15.250,tripletExp_regina_11082022,2022.2.4,119.14959377308108,
11,1,4,0,1.0,1.0,0,0.111111111111111,0.298245614035088,0,0.694444444444444,0.298245614035088,ReadingArea_rsl0-rcl100-esl100-rsm0-rcm11-esm29-rsr0-rcr69-esr29,exr/ReadingArea_rsl0-rcl100-esl100-rsm0-rcm11-esm29-rsr0-rcr69-esr29.exr,ReadingArea_rsl0-rcl100-esl100-rsm0-rcm11-esm29-rsr0-rcr69-esr29.npz,,,,,0,117,117,110,,right,red,0.74,431.8553020954132,432.3276190757752,2,1,6,lightness,readingArea,realistic,75,2023-03-25_12h59.15.250,tripletExp_regina_11082022,2022.2.4,119.14959377308108,
3,6,5,0,0.444444444444444,0.298245614035088,0,0.027777777777778,1.0,0,1.0,0.298245614035088,ReadingArea_rsl0-rcl44-esl29-rsm0-rcm2-esm100-rsr0-rcr100-esr29,exr/ReadingArea_rsl0-rcl44-esl29-rsm0-rcm2-esm100-rsr0-rcr100-esr29.exr,ReadingArea_rsl0-rcl44-esl29-rsm0-rcm2-esm100-rsr0-rcr100-esr29.npz,,,,,0,118,118,274,,left,green,0.71,434.01775598526,434.4696431159973,2,1,6,lightness,readingArea,realistic,75,2023-03-25_12h59.15.250,tripletExp_regina_11082022,2022.2.4,119.14959377308108,
10,1,0,0,0.694444444444444,1.0,0,0.111111111111111,0.298245614035088,0,0.027777777777778,0.298245614035088,ReadingArea_rsl0-rcl69-esl100-rsm0-rcm11-esm29-rsr0-rcr2-esr29,exr/ReadingArea_rsl0-rcl69-esl100-rsm0-rcm11-esm29-rsr0-rcr2-esr29.exr,ReadingArea_rsl0-rcl69-esl100-rsm0-rcm11-esm29-rsr0-rcr2-esr29.npz,,,,,0,119,119,276,,right,red,0.63,436.19075107574463,436.6603009700775,2,1,6,lightness,readingArea,realistic,75,2023-03-25_12h59.15.250,tripletExp_regina_11082022,2022.2.4,119.14959377308108,
8,11,1,0,0.25,1.0,0,1.0,1.0,0,0.111111111111111,0.298245614035088,ReadingArea_rsl0-rcl25-esl100-rsm0-rcm100-esm100-rsr0-rcr11-esr29,exr/ReadingArea_rsl0-rcl25-esl100-rsm0-rcm100-esm100-rsr0-rcr11-esr29.exr,ReadingArea_rsl0-rcl25-esl100-rsm0-rcm100-esm100-rsr0-rcr11-esr29.npz,,,,,0,120,120,132,,left,green,0.64,438.3631010055542,438.81449007987976,2,1,6,lightness,readingArea,realistic,75,2023-03-25_12h59.15.250,tripletExp_regina_11082022,2022.2.4,119.14959377308108,
0,10,12,0,0.027777777777778,0.298245614035088,0,0.694444444444444,1.0,0,0.027777777777778,3.10526315789474,ReadingArea_rsl0-rcl2-esl29-rsm0-rcm69-esm100-rsr0-rcr2-esr310,exr/ReadingArea_rsl0-rcl2-esl29-rsm0-rcm69-esm100-rsr0-rcr2-esr310.exr,ReadingArea_rsl0-rcl2-esl29-rsm0-rcm69-esm100-rsr0-rcr2-esr310.npz,,,,,0,121,121,531,,right,red,0.67,440.52386593818665,441.0805480480194,2,1,6,lightness,readingArea,realistic,75,2023-03-25_12h59.15.250,tripletExp_regina_11082022,2022.2.4,119.14959377308108,
14,8,1,0,0.25,3.10526315789474,0,0.25,1.0,0,0.111111111111111,0.298245614035088,ReadingArea_rsl0-rcl25-esl310-rsm0-rcm25-esm100-rsr0-rcr11-esr29,exr/ReadingArea_rsl0-rcl25-esl310-rsm0-rcm25-esm100-rsr0-rcr11-esr29.exr,ReadingArea_rsl0-rcl25-esl310-rsm0-rcm25-esm100-rsr0-rcr11-esr29.npz,,,,,0,122,122,141,,right,red,1.07,442.7863309383392,443.236937046051,2,1,6,lightness,readingArea,realistic,75,2023-03-25_12h59.15.250,tripletExp_regina_11082022,2022.2.4,119.14959377308108,
8,1,10,0,0.25,1.0,0,0.111111111111111,0.298245614035088,0,0.694444444444444,1.0,ReadingArea_rsl0-rcl25-esl100-rsm0-rcm11-esm29-rsr0-rcr69-esr100,exr/ReadingArea_rsl0-rcl25-esl100-rsm0-rcm11-esm29-rsr0-rcr69-esr100.exr,ReadingArea_rsl0-rcl25-esl100-rsm0-rcm11-esm29-rsr0-rcr69-esr100.npz,,,,,0,123,123,442,,left,green,0.62,444.94630789756775,,2,1,6,lightness,readingArea,realistic,75,2023-03-25_12h59.15.250,tripletExp_regina_11082022,2022.2.4,119.14959377308108,
2,4,10,0,0.25,0.298245614035088,0,0.694444444444444,0.298245614035088,0,0.694444444444444,1.0,ReadingArea_rsl0-rcl25-esl29-rsm0-rcm69-esm29-rsr0-rcr69-esr100,exr/ReadingArea_rsl0-rcl25-esl29-rsm0-rcm69-esm29-rsr0-rcr69-esr100.exr,ReadingArea_rsl0-rcl25-esl29-rsm0-rcm69-esm29-rsr0-rcr69-esr100.npz,,,,,0,124,124,174,,left,green,4.54,450.6446828842163,451.1237680912018,2,1,6,lightness,readingArea,realistic,75,2023-03-25_12h59.15.250,tripletExp_regina_11082022,2022.2.4,119.14959377308108,
2,1,8,0,0.25,0.298245614035088,0,0.111111111111111,0.298245614035088,0,0.25,1.0,ReadingArea_rsl0-rcl25-esl29-rsm0-rcm11-esm29-rsr0-rcr25-esr100,exr/ReadingArea_rsl0-rcl25-esl29-rsm0-rcm11-esm29-rsr0-rcr25-esr100.exr,ReadingArea_rsl0-rcl25-esl29-rsm0-rcm11-esm29-rsr0-rcr25-esr100.npz,,,,,0,125,125,125,,left,green,0.87,452.8476560115814,,2,1,6,lightness,readingArea,realistic,75,2023-03-25_12h59.15.250,tripletExp_regina_11082022,2022.2.4,119.14959377308108,
2,8,7,0,0.25,0.298245614035088,0,0.25,1.0,0,0.111111111111111,1.0,ReadingArea_rsl0-rcl25-esl29-rsm0-rcm25-esm100-rsr0-rcr11-esr100,exr/ReadingArea_rsl0-rcl25-esl29-rsm0-rcm25-esm100-rsr0-rcr11-esr100.exr,ReadingArea_rsl0-rcl25-esl29-rsm0-rcm25-esm100-rsr0-rcr11-esr100.npz,,,,,0,126,126,393,,right,red,2.45,456.7714879512787,457.2344319820404,2,1,6,lightness,readingArea,realistic,75,2023-03-25_12h59.15.250,tripletExp_regina_11082022,2022.2.4,119.14959377308108,
4,8,0,0,0.694444444444444,0.298245614035088,0,0.25,1.0,0,0.027777777777778,0.298245614035088,ReadingArea_rsl0-rcl69-esl29-rsm0-rcm25-esm100-rsr0-rcr2-esr29,exr/ReadingArea_rsl0-rcl69-esl29-rsm0-rcm25-esm100-rsr0-rcr2-esr29.exr,ReadingArea_rsl0-rcl69-esl29-rsm0-rcm25-esm100-rsr0-rcr2-esr29.npz,,,,,0,127,127,137,,left,green,0.71,458.9283089637756,459.37268710136414,2,1,6,lightness,readingArea,realistic,75,2023-03-25_12h59.15.250,tripletExp_regina_11082022,2022.2.4,119.14959377308108,
14,5,10,0,0.25,3.10526315789474,0,1.0,0.298245614035088,0,0.694444444444444,1.0,ReadingArea_rsl0-rcl25-esl310-rsm0-rcm100-esm29-rsr0-rcr69-esr100,exr/ReadingArea_rsl0-rcl25-esl310-rsm0-rcm100-esm29-rsr0-rcr69-esr100.exr,ReadingArea_rsl0-rcl25-esl310-rsm0-rcm100-esm29-rsr0-rcr69-esr100.npz,,,,,0,128,128,170,,right,red,2.61,462.8281810283661,463.29741406440735,2,1,6,lightness,readingArea,realistic,75,2023-03-25_12h59.15.250,tripletExp_regina_11082022,2022.2.4,119.14959377308108,
8,12,13,0,0.25,1.0,0,0.027777777777778,3.10526315789474,0,0.111111111111111,3.10526315789474,ReadingArea_rsl0-rcl25-esl100-rsm0-rcm2-esm310-rsr0-rcr11-esr310,exr/ReadingArea_rsl0-rcl25-esl100-rsm0-rcm2-esm310-rsr0-rcr11-esr310.exr,ReadingArea_rsl0-rcl25-esl100-rsm0-rcm2-esm310-rsr0-rcr11-esr310.npz,,,,,0,129,129,275,,left,green,1.03,465.0190079212189,465.4517550468445,2,1,6,lightness,readingArea,realistic,75,2023-03-25_12h59.15.250,tripletExp_regina_11082022,2022.2.4,119.14959377308108,
9,7,10,0,0.444444444444444,1.0,0,0.111111111111111,1.0,0,0.694444444444444,1.0,ReadingArea_rsl0-rcl44-esl100-rsm0-rcm11-esm100-rsr0-rcr69-esr100,exr/ReadingArea_rsl0-rcl44-esl100-rsm0-rcm11-esm100-rsr0-rcr69-esr100.exr,ReadingArea_rsl0-rcl44-esl100-rsm0-rcm11-esm100-rsr0-rcr69-esr100.npz,,,,,0,130,130,508,,left,green,0.89,467.1415400505066,,2,1,6,lightness,readingArea,realistic,75,2023-03-25_12h59.15.250,tripletExp_regina_11082022,2022.2.4,119.14959377308108,
10,4,9,0,0.694444444444444,1.0,0,0.694444444444444,0.298245614035088,0,0.444444444444444,1.0,ReadingArea_rsl0-rcl69-esl100-rsm0-rcm69-esm29-rsr0-rcr44-esr100,exr/ReadingArea_rsl0-rcl69-esl100-rsm0-rcm69-esm29-rsr0-rcr44-esr100.exr,ReadingArea_rsl0-rcl69-esl100-rsm0-rcm69-esm29-rsr0-rcr44-esr100.npz,,,,,0,131,131,452,,right,red,2.11,471.0599429607392,471.5108320713043,2,1,6,lightness,readingArea,realistic,75,2023-03-25_12h59.15.250,tripletExp_regina_11082022,2022.2.4,119.14959377308108,
10,0,3,0,0.694444444444444,1.0,0,0.027777777777778,0.298245614035088,0,0.444444444444444,0.298245614035088,ReadingArea_rsl0-rcl69-esl100-rsm0-rcm2-esm29-rsr0-rcr44-esr29,exr/ReadingArea_rsl0-rcl69-esl100-rsm0-rcm2-esm29-rsr0-rcr44-esr29.exr,ReadingArea_rsl0-rcl69-esl100-rsm0-rcm2-esm29-rsr0-rcr44-esr29.npz,,,,,0,132,132,87,,right,red,0.73,473.205570936203,473.666023015976,2,1,6,lightness,readingArea,realistic,75,2023-03-25_12h59.15.250,tripletExp_regina_11082022,2022.2.4,119.14959377308108,
2,11,5,0,0.25,0.298245614035088,0,1.0,1.0,0,1.0,0.298245614035088,ReadingArea_rsl0-rcl25-esl29-rsm0-rcm100-esm100-rsr0-rcr100-esr29,exr/ReadingArea_rsl0-rcl25-esl29-rsm0-rcm100-esm100-rsr0-rcr100-esr29.exr,ReadingArea_rsl0-rcl25-esl29-rsm0-rcm100-esm100-rsr0-rcr100-esr29.npz,,,,,0,133,133,491,,right,red,0.65,475.358815908432,475.79296708107,2,1,6,lightness,readingArea,realistic,75,2023-03-25_12h59.15.250,tripletExp_regina_11082022,2022.2.4,119.14959377308108,
2,1,6,0,0.25,0.298245614035088,0,0.111111111111111,0.298245614035088,0,0.027777777777778,1.0,ReadingArea_rsl0-rcl25-esl29-rsm0-rcm11-esm29-rsr0-rcr2-esr100,exr/ReadingArea_rsl0-rcl25-esl29-rsm0-rcm11-esm29-rsr0-rcr2-esr100.exr,ReadingArea_rsl0-rcl25-esl29-rsm0-rcm11-esm29-rsr0-rcr2-esr100.npz,,,,,0,134,134,171,,right,red,0.89,477.5047159194946,477.958920955658,2,1,6,lightness,readingArea,realistic,75,2023-03-25_12h59.15.250,tripletExp_regina_11082022,2022.2.4,119.14959377308108,
3,2,8,0,0.444444444444444,0.298245614035088,0,0.25,0.298245614035088,0,0.25,1.0,ReadingArea_rsl0-rcl44-esl29-rsm0-rcm25-esm29-rsr0-rcr25-esr100,exr/ReadingArea_rsl0-rcl44-esl29-rsm0-rcm25-esm29-rsr0-rcr25-esr100.exr,ReadingArea_rsl0-rcl44-esl29-rsm0-rcm25-esm29-rsr0-rcr25-esr100.npz,,,,,0,135,135,181,,left,green,0.68,479.6483678817749,480.1046690940857,2,1,6,lightness,readingArea,realistic,75,2023-03-25_12h59.15.250,tripletExp_regina_11082022,2022.2.4,119.14959377308108,
5,11,14,0,1.0,0.298245614035088,0,1.0,1.0,0,0.25,3.10526315789474,ReadingArea_rsl0-rcl100-esl29-rsm0-rcm100-esm100-rsr0-rcr25-esr310,exr/ReadingArea_rsl0-rcl100-esl29-rsm0-rcm100-esm100-rsr0-rcr25-esr310.exr,ReadingArea_rsl0-rcl100-esl29-rsm0-rcm100-esm100-rsr0-rcr25-esr310.npz,,,,,0,136,136,258,,right,red,0.93,481.81458806991577,482.35859990119934,2,1,6,lightness,readingArea,realistic,75,2023-03-25_12h59.15.250,tripletExp_regina_11082022,2022.2.4,119.14959377308108,
6,12,7,0,0.027777777777778,1.0,0,0.027777777777778,3.10526315789474,0,0.111111111111111,1.0,ReadingArea_rsl0-rcl2-esl100-rsm0-rcm2-esm310-rsr0-rcr11-esr100,exr/ReadingArea_rsl0-rcl2-esl100-rsm0-rcm2-esm310-rsr0-rcr11-esr100.exr,ReadingArea_rsl0-rcl2-esl100-rsm0-rcm2-esm310-rsr0-rcr11-esr100.npz,,,,,0,137,137,157,,left,green,0.96,484.0514450073242,484.5399119853973,2,1,6,lightness,readingArea,realistic,75,2023-03-25_12h59.15.250,tripletExp_regina_11082022,2022.2.4,119.14959377308108,
14,10,9,0,0.25,3.10526315789474,0,0.694444444444444,1.0,0,0.444444444444444,1.0,ReadingArea_rsl0-rcl25-esl310-rsm0-rcm69-esm100-rsr0-rcr44-esr100,exr/ReadingArea_rsl0-rcl25-esl310-rsm0-rcm69-esm100-rsr0-rcr44-esr100.exr,ReadingArea_rsl0-rcl25-esl310-rsm0-rcm69-esm100-rsr0-rcr44-esr100.npz,,,,,0,138,138,402,,left,green,0.93,486.2407040596008,486.6981511116028,2,1,6,lightness,readingArea,realistic,75,2023-03-25_12h59.15.250,tripletExp_regina_11082022,2022.2.4,119.14959377308108,
8,13,9,0,0.25,1.0,0,0.111111111111111,3.10526315789474,0,0.444444444444444,1.0,ReadingArea_rsl0-rcl25-esl100-rsm0-rcm11-esm310-rsr0-rcr44-esr100,exr/ReadingArea_rsl0-rcl25-esl100-rsm0-rcm11-esm310-rsr0-rcr44-esr100.exr,ReadingArea_rsl0-rcl25-esl100-rsm0-rcm11-esm310-rsr0-rcr44-esr100.npz,,,,,0,139,139,487,,left,green,0.74,488.391608953476,488.9905469417572,2,1,6,lightness,readingArea,realistic,75,2023-03-25_12h59.15.250,tripletExp_regina_11082022,2022.2.4,119.14959377308108,
12,5,4,0,0.027777777777778,3.10526315789474,0,1.0,0.298245614035088,0,0.694444444444444,0.298245614035088,ReadingArea_rsl0-rcl2-esl310-rsm0-rcm100-esm29-rsr0-rcr69-esr29,exr/ReadingArea_rsl0-rcl2-esl310-rsm0-rcm100-esm29-rsr0-rcr69-esr29.exr,ReadingArea_rsl0-rcl2-esl310-rsm0-rcm100-esm29-rsr0-rcr69-esr29.npz,,,,,0,140,140,566,,right,red,0.87,490.6863210201264,491.1410710811615,2,1,6,lightness,readingArea,realistic,75,2023-03-25_12h59.15.250,tripletExp_regina_11082022,2022.2.4,119.14959377308108,
5,11,8,0,1.0,0.298245614035088,0,1.0,1.0,0,0.25,1.0,ReadingArea_rsl0-rcl100-esl29-rsm0-rcm100-esm100-rsr0-rcr25-esr100,exr/ReadingArea_rsl0-rcl100-esl29-rsm0-rcm100-esm100-rsr0-rcr25-esr100.exr,ReadingArea_rsl0-rcl100-esl29-rsm0-rcm100-esm100-rsr0-rcr25-esr100.npz,,,,,0,141,141,548,,left,green,0.87,492.8325500488281,493.2846720218658,2,1,6,lightness,readingArea,realistic,75,2023-03-25_12h59.15.250,tripletExp_regina_11082022,2022.2.4,119.14959377308108,
13,10,12,0,0.111111111111111,3.10526315789474,0,0.694444444444444,1.0,0,0.027777777777778,3.10526315789474,ReadingArea_rsl0-rcl11-esl310-rsm0-rcm69-esm100-rsr0-rcr2-esr310,exr/ReadingArea_rsl0-rcl11-esl310-rsm0-rcm69-esm100-rsr0-rcr2-esr310.exr,ReadingArea_rsl0-rcl11-esl310-rsm0-rcm69-esm100-rsr0-rcr2-esr310.npz,,,,,0,142,142,384,,left,green,0.85,494.97332310676575,495.4421100616455,2,1,6,lightness,readingArea,realistic,75,2023-03-25_12h59.15.250,tripletExp_regina_11082022,2022.2.4,119.14959377308108,
12,13,7,0,0.027777777777778,3.10526315789474,0,0.111111111111111,3.10526315789474,0,0.111111111111111,1.0,ReadingArea_rsl0-rcl2-esl310-rsm0-rcm11-esm310-rsr0-rcr11-esr100,exr/ReadingArea_rsl0-rcl2-esl310-rsm0-rcm11-esm310-rsr0-rcr11-esr100.exr,ReadingArea_rsl0-rcl2-esl310-rsm0-rcm11-esm310-rsr0-rcr11-esr100.npz,,,,,0,143,143,408,,right,red,2.15,498.8912260532379,499.4420680999756,2,1,6,lightness,readingArea,realistic,75,2023-03-25_12h59.15.250,tripletExp_regina_11082022,2022.2.4,119.14959377308108,
12,6,9,0,0.027777777777778,3.10526315789474,0,0.027777777777778,1.0,0,0.444444444444444,1.0,ReadingArea_rsl0-rcl2-esl310-rsm0-rcm2-esm100-rsr0-rcr44-esr100,exr/ReadingArea_rsl0-rcl2-esl310-rsm0-rcm2-esm100-rsr0-rcr44-esr100.exr,ReadingArea_rsl0-rcl2-esl310-rsm0-rcm2-esm100-rsr0-rcr44-esr100.npz,,,,,0,144,144,177,,left,green,0.62,501.1467020511627,,2,1,6,lightness,readingArea,realistic,75,2023-03-25_12h59.15.250,tripletExp_regina_11082022,2022.2.4,119.14959377308108,
0,4,9,0,0.027777777777778,0.298245614035088,0,0.694444444444444,0.298245614035088,0,0.444444444444444,1.0,ReadingArea_rsl0-rcl2-esl29-rsm0-rcm69-esm29-rsr0-rcr44-esr100,exr/ReadingArea_rsl0-rcl2-esl29-rsm0-rcm69-esm29-rsr0-rcr44-esr100.exr,ReadingArea_rsl0-rcl2-esl29-rsm0-rcm69-esm29-rsr0-rcr44-esr100.npz,,,,,0,145,145,21,,right,red,0.65,503.3228149414063,,2,1,6,lightness,readingArea,realistic,75,2023-03-25_12h59.15.250,tripletExp_regina_11082022,2022.2.4,119.14959377308108,
13,7,6,0,0.111111111111111,3.10526315789474,0,0.111111111111111,1.0,0,0.027777777777778,1.0,ReadingArea_rsl0-rcl11-esl310-rsm0-rcm11-esm100-rsr0-rcr2-esr100,exr/ReadingArea_rsl0-rcl11-esl310-rsm0-rcm11-esm100-rsr0-rcr2-esr100.exr,ReadingArea_rsl0-rcl11-esl310-rsm0-rcm11-esm100-rsr0-rcr2-esr100.npz,,,,,0,146,146,283,,left,green,1.16,505.4767920970917,505.9448471069336,2,1,6,lightness,readingArea,realistic,75,2023-03-25_12h59.15.250,tripletExp_regina_11082022,2022.2.4,119.14959377308108,
4,2,0,0,0.694444444444444,0.298245614035088,0,0.25,0.298245614035088,0,0.027777777777778,0.298245614035088,ReadingArea_rsl0-rcl69-esl29-rsm0-rcm25-esm29-rsr0-rcr2-esr29,exr/ReadingArea_rsl0-rcl69-esl29-rsm0-rcm25-esm29-rsr0-rcr2-esr29.exr,ReadingArea_rsl0-rcl69-esl29-rsm0-rcm25-esm29-rsr0-rcr2-esr29.npz,,,,,0,147,147,71,,left,green,0.74,507.6382100582123,508.080491065979,2,1,6,lightness,readingArea,realistic,75,2023-03-25_12h59.15.250,tripletExp_regina_11082022,2022.2.4,119.14959377308108,
14,9,0,0,0.25,3.10526315789474,0,0.444444444444444,1.0,0,0.027777777777778,0.298245614035088,ReadingArea_rsl0-rcl25-esl310-rsm0-rcm44-esm100-rsr0-rcr2-esr29,exr/ReadingArea_rsl0-rcl25-esl310-rsm0-rcm44-esm100-rsr0-rcr2-esr29.exr,ReadingArea_rsl0-rcl25-esl310-rsm0-rcm44-esm100-rsr0-rcr2-esr29.npz,,,,,0,148,148,313,,left,green,0.56,509.7783830165863,510.41416907310486,2,1,6,lightness,readingArea,realistic,75,2023-03-25_12h59.15.250,tripletExp_regina_11082022,2022.2.4,119.14959377308108,
0,1,8,0,0.027777777777778,0.298245614035088,0,0.111111111111111,0.298245614035088,0,0.25,1.0,ReadingArea_rsl0-rcl2-esl29-rsm0-rcm11-esm29-rsr0-rcr25-esr100,exr/ReadingArea_rsl0-rcl2-esl29-rsm0-rcm11-esm29-rsr0-rcr25-esr100.exr,ReadingArea_rsl0-rcl2-esl29-rsm0-rcm11-esm29-rsr0-rcr25-esr100.npz,,,,,0,149,149,107,,left,green,1.08,512.1026890277863,512.3056609630585,2,1,6,lightness,readingArea,realistic,75,2023-03-25_12h59.15.250,tripletExp_regina_11082022,2022.2.4,119.14959377308108,
13,0,10,0,0.111111111111111,3.10526315789474,0,0.027777777777778,0.298245614035088,0,0.694444444444444,1.0,ReadingArea_rsl0-rcl11-esl310-rsm0-rcm2-esm29-rsr0-rcr69-esr100,exr/ReadingArea_rsl0-rcl11-esl310-rsm0-rcm2-esm29-rsr0-rcr69-esr100.exr,ReadingArea_rsl0-rcl11-esl310-rsm0-rcm2-esm29-rsr0-rcr69-esr100.npz,,,,,0,150,150,505,,left,green,2.18,594.7997989654541,595.2597439289093,3,1,6,lightness,readingArea,realistic,75,2023-03-25_12h59.15.250,tripletExp_regina_11082022,2022.2.4,119.14959377308108,
11,3,12,0,1.0,1.0,0,0.444444444444444,0.298245614035088,0,0.027777777777778,3.10526315789474,ReadingArea_rsl0-rcl100-esl100-rsm0-rcm44-esm29-rsr0-rcr2-esr310,exr/ReadingArea_rsl0-rcl100-esl100-rsm0-rcm44-esm29-rsr0-rcr2-esr310.exr,ReadingArea_rsl0-rcl100-esl100-rsm0-rcm44-esm29-rsr0-rcr2-esr310.npz,,,,,0,151,151,355,,right,red,0.8,596.9530029296875,597.5305030345917,3,1,6,lightness,readingArea,realistic,75,2023-03-25_12h59.15.250,tripletExp_regina_11082022,2022.2.4,119.14959377308108,
7,11,13,0,0.111111111111111,1.0,0,1.0,1.0,0,0.111111111111111,3.10526315789474,ReadingArea_rsl0-rcl11-esl100-rsm0-rcm100-esm100-rsr0-rcr11-esr310,exr/ReadingArea_rsl0-rcl11-esl100-rsm0-rcm100-esm100-rsr0-rcr11-esr310.exr,ReadingArea_rsl0-rcl11-esl100-rsm0-rcm100-esm100-rsr0-rcr11-esr310.npz,,,,,0,152,152,76,,right,red,0.9,599.2186179161072,599.6730470657349,3,1,6,lightness,readingArea,realistic,75,2023-03-25_12h59.15.250,tripletExp_regina_11082022,2022.2.4,119.14959377308108,
1,10,11,0,0.111111111111111,0.298245614035088,0,0.694444444444444,1.0,0,1.0,1.0,ReadingArea_rsl0-rcl11-esl29-rsm0-rcm69-esm100-rsr0-rcr100-esr100,exr/ReadingArea_rsl0-rcl11-esl29-rsm0-rcm69-esm100-rsr0-rcr100-esr100.exr,ReadingArea_rsl0-rcl11-esl29-rsm0-rcm69-esm100-rsr0-rcr100-esr100.npz,,,,,0,153,153,483,,right,red,0.68,601.3623270988464,601.8087449073792,3,1,6,lightness,readingArea,realistic,75,2023-03-25_12h59.15.250,tripletExp_regina_11082022,2022.2.4,119.14959377308108,
11,12,10,0,1.0,1.0,0,0.027777777777778,3.10526315789474,0,0.694444444444444,1.0,ReadingArea_rsl0-rcl100-esl100-rsm0-rcm2-esm310-rsr0-rcr69-esr100,exr/ReadingArea_rsl0-rcl100-esl100-rsm0-rcm2-esm310-rsr0-rcr69-esr100.exr,ReadingArea_rsl0-rcl100-esl100-rsm0-rcm2-esm310-rsr0-rcr69-esr100.npz,,,,,0,154,154,465,,right,red,2.04,605.2580420970917,605.7262690067291,3,1,6,lightness,readingArea,realistic,75,2023-03-25_12h59.15.250,tripletExp_regina_11082022,2022.2.4,119.14959377308108,
0,2,1,0,0.027777777777778,0.298245614035088,0,0.25,0.298245614035088,0,0.111111111111111,0.298245614035088,ReadingArea_rsl0-rcl2-esl29-rsm0-rcm25-esm29-rsr0-rcr11-esr29,exr/ReadingArea_rsl0-rcl2-esl29-rsm0-rcm25-esm29-rsr0-rcr11-esr29.exr,ReadingArea_rsl0-rcl2-esl29-rsm0-rcm25-esm29-rsr0-rcr11-esr29.npz,,,,,0,155,155,527,,right,red,0.73,607.4150021076202,607.8790678977966,3,1,6,lightness,readingArea,realistic,75,2023-03-25_12h59.15.250,tripletExp_regina_11082022,2022.2.4,119.14959377308108,
11,12,4,0,1.0,1.0,0,0.027777777777778,3.10526315789474,0,0.694444444444444,0.298245614035088,ReadingArea_rsl0-rcl100-esl100-rsm0-rcm2-esm310-rsr0-rcr69-esr29,exr/ReadingArea_rsl0-rcl100-esl100-rsm0-rcm2-esm310-rsr0-rcr69-esr29.exr,ReadingArea_rsl0-rcl100-esl100-rsm0-rcm2-esm310-rsr0-rcr69-esr29.npz,,,,,0,156,156,250,,right,red,0.77,609.580493927002,,3,1,6,lightness,readingArea,realistic,75,2023-03-25_12h59.15.250,tripletExp_regina_11082022,2022.2.4,119.14959377308108,
10,7,2,0,0.694444444444444,1.0,0,0.111111111111111,1.0,0,0.25,0.298245614035088,ReadingArea_rsl0-rcl69-esl100-rsm0-rcm11-esm100-rsr0-rcr25-esr29,exr/ReadingArea_rsl0-rcl69-esl100-rsm0-rcm11-esm100-rsr0-rcr25-esr29.exr,ReadingArea_rsl0-rcl69-esl100-rsm0-rcm11-esm100-rsr0-rcr25-esr29.npz,,,,,0,157,157,523,,right,red,0.62,611.7385680675507,612.1793739795685,3,1,6,lightness,readingArea,realistic,75,2023-03-25_12h59.15.250,tripletExp_regina_11082022,2022.2.4,119.14959377308108,
7,10,4,0,0.111111111111111,1.0,0,0.694444444444444,1.0,0,0.694444444444444,0.298245614035088,ReadingArea_rsl0-rcl11-esl100-rsm0-rcm69-esm100-rsr0-rcr69-esr29,exr/ReadingArea_rsl0-rcl11-esl100-rsm0-rcm69-esm100-rsr0-rcr69-esr29.exr,ReadingArea_rsl0-rcl11-esl100-rsm0-rcm69-esm100-rsr0-rcr69-esr29.npz,,,,,0,158,158,46,,right,red,0.75,613.8861269950867,614.3582909107208,3,1,6,lightness,readingArea,realistic,75,2023-03-25_12h59.15.250,tripletExp_regina_11082022,2022.2.4,119.14959377308108,
1,5,8,0,0.111111111111111,0.298245614035088,0,1.0,0.298245614035088,0,0.25,1.0,ReadingArea_rsl0-rcl11-esl29-rsm0-rcm100-esm29-rsr0-rcr25-esr100,exr/ReadingArea_rsl0-rcl11-esl29-rsm0-rcm100-esm29-rsr0-rcr25-esr100.exr,ReadingArea_rsl0-rcl11-esl29-rsm0-rcm100-esm29-rsr0-rcr25-esr100.npz,,,,,0,159,159,238,,right,red,0.65,616.0605289936066,616.5025079250336,3,1,6,lightness,readingArea,realistic,75,2023-03-25_12h59.15.250,tripletExp_regina_11082022,2022.2.4,119.14959377308108,
10,4,13,0,0.694444444444444,1.0,0,0.694444444444444,0.298245614035088,0,0.111111111111111,3.10526315789474,ReadingArea_rsl0-rcl69-esl100-rsm0-rcm69-esm29-rsr0-rcr11-esr310,exr/ReadingArea_rsl0-rcl69-esl100-rsm0-rcm69-esm29-rsr0-rcr11-esr310.exr,ReadingArea_rsl0-rcl69-esl100-rsm0-rcm69-esm29-rsr0-rcr11-esr310.npz,,,,,0,160,160,24,,right,red,0.97,618.1952629089355,618.7242391109467,3,1,6,lightness,readingArea,realistic,75,2023-03-25_12h59.15.250,tripletExp_regina_11082022,2022.2.4,119.14959377308108,
4,8,7,0,0.694444444444444,0.298245614035088,0,0.25,1.0,0,0.111111111111111,1.0,ReadingArea_rsl0-rcl69-esl29-rsm0-rcm25-esm100-rsr0-rcr11-esr100,exr/ReadingArea_rsl0-rcl69-esl29-rsm0-rcm25-esm100-rsr0-rcr11-esr100.exr,ReadingArea_rsl0-rcl69-esl29-rsm0-rcm25-esm100-rsr0-rcr11-esr100.npz,,,,,0,161,161,461,,left,green,2.47,622.1844511032104,622.654727935791,3,1,6,lightness,readingArea,realistic,75,2023-03-25_12h59.15.250,tripletExp_regina_11082022,2022.2.4,119.14959377308108,
10,8,1,0,0.694444444444444,1.0,0,0.25,1.0,0,0.111111111111111,0.298245614035088,ReadingArea_rsl0-rcl69-esl100-rsm0-rcm25-esm100-rsr0-rcr11-esr29,exr/ReadingArea_rsl0-rcl69-esl100-rsm0-rcm25-esm100-rsr0-rcr11-esr29.exr,ReadingArea_rsl0-rcl69-esl100-rsm0-rcm25-esm100-rsr0-rcr11-esr29.npz,,,,,0,162,162,247,,right,red,3.83,627.860032081604,628.3446099758148,3,1,6,lightness,readingArea,realistic,75,2023-03-25_12h59.15.250,tripletExp_regina_11082022,2022.2.4,119.14959377308108,
13,8,0,0,0.111111111111111,3.10526315789474,0,0.25,1.0,0,0.027777777777778,0.298245614035088,ReadingArea_rsl0-rcl11-esl310-rsm0-rcm25-esm100-rsr0-rcr2-esr29,exr/ReadingArea_rsl0-rcl11-esl310-rsm0-rcm25-esm100-rsr0-rcr2-esr29.exr,ReadingArea_rsl0-rcl11-esl310-rsm0-rcm25-esm100-rsr0-rcr2-esr29.npz,,,,,0,163,163,429,,left,green,0.8,630.0332009792328,630.493597984314,3,1,6,lightness,readingArea,realistic,75,2023-03-25_12h59.15.250,tripletExp_regina_11082022,2022.2.4,119.14959377308108,
7,8,11,0,0.111111111111111,1.0,0,0.25,1.0,0,1.0,1.0,ReadingArea_rsl0-rcl11-esl100-rsm0-rcm25-esm100-rsr0-rcr100-esr100,exr/ReadingArea_rsl0-rcl11-esl100-rsm0-rcm25-esm100-rsr0-rcr100-esr100.exr,ReadingArea_rsl0-rcl11-esl100-rsm0-rcm25-esm100-rsr0-rcr100-esr100.npz,,,,,0,164,164,363,,left,green,0.76,632.1869530677795,632.6378600597382,3,1,6,lightness,readingArea,realistic,75,2023-03-25_12h59.15.250,tripletExp_regina_11082022,2022.2.4,119.14959377308108,
11,0,6,0,1.0,1.0,0,0.027777777777778,0.298245614035088,0,0.027777777777778,1.0,ReadingArea_rsl0-rcl100-esl100-rsm0-rcm2-esm29-rsr0-rcr2-esr100,exr/ReadingArea_rsl0-rcl100-esl100-rsm0-rcm2-esm29-rsr0-rcr2-esr100.exr,ReadingArea_rsl0-rcl100-esl100-rsm0-rcm2-esm29-rsr0-rcr2-esr100.npz,,,,,0,165,165,586,,right,red,0.56,634.3303740024567,634.792228937149,3,1,6,lightness,readingArea,realistic,75,2023-03-25_12h59.15.250,tripletExp_regina_11082022,2022.2.4,119.14959377308108,
8,9,6,0,0.25,1.0,0,0.444444444444444,1.0,0,0.027777777777778,1.0,ReadingArea_rsl0-rcl25-esl100-rsm0-rcm44-esm100-rsr0-rcr2-esr100,exr/ReadingArea_rsl0-rcl25-esl100-rsm0-rcm44-esm100-rsr0-rcr2-esr100.exr,ReadingArea_rsl0-rcl25-esl100-rsm0-rcm44-esm100-rsr0-rcr2-esr100.npz,,,,,0,166,166,3,,left,green,0.7,636.4927759170532,636.9593119621277,3,1,6,lightness,readingArea,realistic,75,2023-03-25_12h59.15.250,tripletExp_regina_11082022,2022.2.4,119.14959377308108,
11,6,14,0,1.0,1.0,0,0.027777777777778,1.0,0,0.25,3.10526315789474,ReadingArea_rsl0-rcl100-esl100-rsm0-rcm2-esm100-rsr0-rcr25-esr310,exr/ReadingArea_rsl0-rcl100-esl100-rsm0-rcm2-esm100-rsr0-rcr25-esr310.exr,ReadingArea_rsl0-rcl100-esl100-rsm0-rcm2-esm100-rsr0-rcr25-esr310.npz,,,,,0,167,167,305,,right,red,2.0,640.4181189537048,640.8872249126434,3,1,6,lightness,readingArea,realistic,75,2023-03-25_12h59.15.250,tripletExp_regina_11082022,2022.2.4,119.14959377308108,
1,2,12,0,0.111111111111111,0.298245614035088,0,0.25,0.298245614035088,0,0.027777777777778,3.10526315789474,ReadingArea_rsl0-rcl11-esl29-rsm0-rcm25-esm29-rsr0-rcr2-esr310,exr/ReadingArea_rsl0-rcl11-esl29-rsm0-rcm25-esm29-rsr0-rcr2-esr310.exr,ReadingArea_rsl0-rcl11-esl29-rsm0-rcm25-esm29-rsr0-rcr2-esr310.npz,,,,,0,168,168,229,,right,red,0.83,642.5815939903259,643.0369648933411,3,1,6,lightness,readingArea,realistic,75,2023-03-25_12h59.15.250,tripletExp_regina_11082022,2022.2.4,119.14959377308108,
13,6,2,0,0.111111111111111,3.10526315789474,0,0.027777777777778,1.0,0,0.25,0.298245614035088,ReadingArea_rsl0-rcl11-esl310-rsm0-rcm2-esm100-rsr0-rcr25-esr29,exr/ReadingArea_rsl0-rcl11-esl310-rsm0-rcm2-esm100-rsr0-rcr25-esr29.exr,ReadingArea_rsl0-rcl11-esl310-rsm0-rcm2-esm100-rsr0-rcr25-esr29.npz,,,,,0,169,169,115,,right,red,0.78,644.7275409698486,,3,1,6,lightness,readingArea,realistic,75,2023-03-25_12h59.15.250,tripletExp_regina_11082022,2022.2.4,119.14959377308108,
13,10,3,0,0.111111111111111,3.10526315789474,0,0.694444444444444,1.0,0,0.444444444444444,0.298245614035088,ReadingArea_rsl0-rcl11-esl310-rsm0-rcm69-esm100-rsr0-rcr44-esr29,exr/ReadingArea_rsl0-rcl11-esl310-rsm0-rcm69-esm100-rsr0-rcr44-esr29.exr,ReadingArea_rsl0-rcl11-esl310-rsm0-rcm69-esm100-rsr0-rcr44-esr29.npz,,,,,0,170,170,224,,right,red,0.83,646.933669090271,647.3979959487915,3,1,6,lightness,readingArea,realistic,75,2023-03-25_12h59.15.250,tripletExp_regina_11082022,2022.2.4,119.14959377308108,
3,9,10,0,0.444444444444444,0.298245614035088,0,0.444444444444444,1.0,0,0.694444444444444,1.0,ReadingArea_rsl0-rcl44-esl29-rsm0-rcm44-esm100-rsr0-rcr69-esr100,exr/ReadingArea_rsl0-rcl44-esl29-rsm0-rcm44-esm100-rsr0-rcr69-esr100.exr,ReadingArea_rsl0-rcl44-esl29-rsm0-rcm44-esm100-rsr0-rcr69-esr100.npz,,,,,0,171,171,581,,right,red,0.71,649.1022329330444,649.5537118911743,3,1,6,lightness,readingArea,realistic,75,2023-03-25_12h59.15.250,tripletExp_regina_11082022,2022.2.4,119.14959377308108,
5,2,14,0,1.0,0.298245614035088,0,0.25,0.298245614035088,0,0.25,3.10526315789474,ReadingArea_rsl0-rcl100-esl29-rsm0-rcm25-esm29-rsr0-rcr25-esr310,exr/ReadingArea_rsl0-rcl100-esl29-rsm0-rcm25-esm29-rsr0-rcr25-esr310.exr,ReadingArea_rsl0-rcl100-esl29-rsm0-rcm25-esm29-rsr0-rcr25-esr310.npz,,,,,0,172,172,462,,left,green,0.91,651.2792110443115,,3,1,6,lightness,readingArea,realistic,75,2023-03-25_12h59.15.250,tripletExp_regina_11082022,2022.2.4,119.14959377308108,
4,2,9,0,0.694444444444444,0.298245614035088,0,0.25,0.298245614035088,0,0.444444444444444,1.0,ReadingArea_rsl0-rcl69-esl29-rsm0-rcm25-esm29-rsr0-rcr44-esr100,exr/ReadingArea_rsl0-rcl69-esl29-rsm0-rcm25-esm29-rsr0-rcr44-esr100.exr,ReadingArea_rsl0-rcl69-esl29-rsm0-rcm25-esm29-rsr0-rcr44-esr100.npz,,,,,0,173,173,479,,left,green,0.89,653.4449739456177,653.9117228984833,3,1,6,lightness,readingArea,realistic,75,2023-03-25_12h59.15.250,tripletExp_regina_11082022,2022.2.4,119.14959377308108,
8,4,1,0,0.25,1.0,0,0.694444444444444,0.298245614035088,0,0.111111111111111,0.298245614035088,ReadingArea_rsl0-rcl25-esl100-rsm0-rcm69-esm29-rsr0-rcr11-esr29,exr/ReadingArea_rsl0-rcl25-esl100-rsm0-rcm69-esm29-rsr0-rcr11-esr29.exr,ReadingArea_rsl0-rcl25-esl100-rsm0-rcm69-esm29-rsr0-rcr11-esr29.npz,,,,,0,174,174,286,,left,green,0.69,655.6066610813141,656.063462972641,3,1,6,lightness,readingArea,realistic,75,2023-03-25_12h59.15.250,tripletExp_regina_11082022,2022.2.4,119.14959377308108,
8,6,5,0,0.25,1.0,0,0.027777777777778,1.0,0,1.0,0.298245614035088,ReadingArea_rsl0-rcl25-esl100-rsm0-rcm2-esm100-rsr0-rcr100-esr29,exr/ReadingArea_rsl0-rcl25-esl100-rsm0-rcm2-esm100-rsr0-rcr100-esr29.exr,ReadingArea_rsl0-rcl25-esl100-rsm0-rcm2-esm100-rsr0-rcr100-esr29.npz,,,,,0,175,175,241,,left,green,0.82,657.7873508930206,658.2560269832611,3,1,6,lightness,readingArea,realistic,75,2023-03-25_12h59.15.250,tripletExp_regina_11082022,2022.2.4,119.14959377308108,
10,7,11,0,0.694444444444444,1.0,0,0.111111111111111,1.0,0,1.0,1.0,ReadingArea_rsl0-rcl69-esl100-rsm0-rcm11-esm100-rsr0-rcr100-esr100,exr/ReadingArea_rsl0-rcl69-esl100-rsm0-rcm11-esm100-rsr0-rcr100-esr100.exr,ReadingArea_rsl0-rcl69-esl100-rsm0-rcm11-esm100-rsr0-rcr100-esr100.npz,,,,,0,176,176,542,,left,green,1.24,659.9554989337921,,3,1,6,lightness,readingArea,realistic,75,2023-03-25_12h59.15.250,tripletExp_regina_11082022,2022.2.4,119.14959377308108,
7,12,2,0,0.111111111111111,1.0,0,0.027777777777778,3.10526315789474,0,0.25,0.298245614035088,ReadingArea_rsl0-rcl11-esl100-rsm0-rcm2-esm310-rsr0-rcr25-esr29,exr/ReadingArea_rsl0-rcl11-esl100-rsm0-rcm2-esm310-rsr0-rcr25-esr29.exr,ReadingArea_rsl0-rcl11-esl100-rsm0-rcm2-esm310-rsr0-rcr25-esr29.npz,,,,,0,177,177,72,,left,green,0.99,662.1367321014404,662.6162059307098,3,1,6,lightness,readingArea,realistic,75,2023-03-25_12h59.15.250,tripletExp_regina_11082022,2022.2.4,119.14959377308108,
13,6,1,0,0.111111111111111,3.10526315789474,0,0.027777777777778,1.0,0,0.111111111111111,0.298245614035088,ReadingArea_rsl0-rcl11-esl310-rsm0-rcm2-esm100-rsr0-rcr11-esr29,exr/ReadingArea_rsl0-rcl11-esl310-rsm0-rcm2-esm100-rsr0-rcr11-esr29.exr,ReadingArea_rsl0-rcl11-esl310-rsm0-rcm2-esm100-rsr0-rcr11-esr29.npz,,,,,0,178,178,486,,right,red,0.75,664.3113958835602,664.7582879066467,3,1,6,lightness,readingArea,realistic,75,2023-03-25_12h59.15.250,tripletExp_regina_11082022,2022.2.4,119.14959377308108,
5,13,12,0,1.0,0.298245614035088,0,0.111111111111111,3.10526315789474,0,0.027777777777778,3.10526315789474,ReadingArea_rsl0-rcl100-esl29-rsm0-rcm11-esm310-rsr0-rcr2-esr310,exr/ReadingArea_rsl0-rcl100-esl29-rsm0-rcm11-esm310-rsr0-rcr2-esr310.exr,ReadingArea_rsl0-rcl100-esl29-rsm0-rcm11-esm310-rsr0-rcr2-esr310.npz,,,,,0,179,179,389,,right,red,2.08,668.2215039730072,668.698755979538,3,1,6,lightness,readingArea,realistic,75,2023-03-25_12h59.15.250,tripletExp_regina_11082022,2022.2.4,119.14959377308108,
3,13,12,0,0.444444444444444,0.298245614035088,0,0.111111111111111,3.10526315789474,0,0.027777777777778,3.10526315789474,ReadingArea_rsl0-rcl44-esl29-rsm0-rcm11-esm310-rsr0-rcr2-esr310,exr/ReadingArea_rsl0-rcl44-esl29-rsm0-rcm11-esm310-rsr0-rcr2-esr310.exr,ReadingArea_rsl0-rcl44-esl29-rsm0-rcm11-esm310-rsr0-rcr2-esr310.npz,,,,,0,180,180,34,,left,green,0.88,670.3960950374603,670.8485629558563,3,1,6,lightness,readingArea,realistic,75,2023-03-25_12h59.15.250,tripletExp_regina_11082022,2022.2.4,119.14959377308108,
12,10,9,0,0.027777777777778,3.10526315789474,0,0.694444444444444,1.0,0,0.444444444444444,1.0,ReadingArea_rsl0-rcl2-esl310-rsm0-rcm69-esm100-rsr0-rcr44-esr100,exr/ReadingArea_rsl0-rcl2-esl310-rsm0-rcm69-esm100-rsr0-rcr44-esr100.exr,ReadingArea_rsl0-rcl2-esl310-rsm0-rcm69-esm100-rsr0-rcr44-esr100.npz,,,,,0,181,181,126,,right,red,0.65,672.5437190532684,673.00492811203,3,1,6,lightness,readingArea,realistic,75,2023-03-25_12h59.15.250,tripletExp_regina_11082022,2022.2.4,119.14959377308108,
4,7,5,0,0.694444444444444,0.298245614035088,0,0.111111111111111,1.0,0,1.0,0.298245614035088,ReadingArea_rsl0-rcl69-esl29-rsm0-rcm11-esm100-rsr0-rcr100-esr29,exr/ReadingArea_rsl0-rcl69-esl29-rsm0-rcm11-esm100-rsr0-rcr100-esr29.exr,ReadingArea_rsl0-rcl69-esl29-rsm0-rcm11-esm100-rsr0-rcr100-esr29.npz,,,,,0,182,182,195,,left,green,0.78,674.7293090820312,675.1952600479126,3,1,6,lightness,readingArea,realistic,75,2023-03-25_12h59.15.250,tripletExp_regina_11082022,2022.2.4,119.14959377308108,
9,3,0,0,0.444444444444444,1.0,0,0.444444444444444,0.298245614035088,0,0.027777777777778,0.298245614035088,ReadingArea_rsl0-rcl44-esl100-rsm0-rcm44-esm29-rsr0-rcr2-esr29,exr/ReadingArea_rsl0-rcl44-esl100-rsm0-rcm44-esm29-rsr0-rcr2-esr29.exr,ReadingArea_rsl0-rcl44-esl100-rsm0-rcm44-esm29-rsr0-rcr2-esr29.npz,,,,,0,183,183,120,,left,green,2.75,678.6715068817139,679.1540100574493,3,1,6,lightness,readingArea,realistic,75,2023-03-25_12h59.15.250,tripletExp_regina_11082022,2022.2.4,119.14959377308108,
12,3,5,0,0.027777777777778,3.10526315789474,0,0.444444444444444,0.298245614035088,0,1.0,0.298245614035088,ReadingArea_rsl0-rcl2-esl310-rsm0-rcm44-esm29-rsr0-rcr100-esr29,exr/ReadingArea_rsl0-rcl2-esl310-rsm0-rcm44-esm29-rsr0-rcr100-esr29.exr,ReadingArea_rsl0-rcl2-esl310-rsm0-rcm44-esm29-rsr0-rcr100-esr29.npz,,,,,0,184,184,188,,left,green,1.15,680.8657360076904,681.3417630195618,3,1,6,lightness,readingArea,realistic,75,2023-03-25_12h59.15.250,tripletExp_regina_11082022,2022.2.4,119.14959377308108,
6,9,5,0,0.027777777777778,1.0,0,0.444444444444444,1.0,0,1.0,0.298245614035088,ReadingArea_rsl0-rcl2-esl100-rsm0-rcm44-esm100-rsr0-rcr100-esr29,exr/ReadingArea_rsl0-rcl2-esl100-rsm0-rcm44-esm100-rsr0-rcr100-esr29.exr,ReadingArea_rsl0-rcl2-esl100-rsm0-rcm44-esm100-rsr0-rcr100-esr29.npz,,,,,0,185,185,29,,right,red,0.63,683.0447580814362,683.5081629753113,3,1,6,lightness,readingArea,realistic,75,2023-03-25_12h59.15.250,tripletExp_regina_11082022,2022.2.4,119.14959377308108,
12,10,6,0,0.027777777777778,3.10526315789474,0,0.694444444444444,1.0,0,0.027777777777778,1.0,ReadingArea_rsl0-rcl2-esl310-rsm0-rcm69-esm100-rsr0-rcr2-esr100,exr/ReadingArea_rsl0-rcl2-esl310-rsm0-rcm69-esm100-rsr0-rcr2-esr100.exr,ReadingArea_rsl0-rcl2-esl310-rsm0-rcm69-esm100-rsr0-rcr2-esr100.npz,,,,,0,186,186,273,,left,green,2.11,686.9846940040588,687.4557719230652,3,1,6,lightness,readingArea,realistic,75,2023-03-25_12h59.15.250,tripletExp_regina_11082022,2022.2.4,119.14959377308108,
10,11,13,0,0.694444444444444,1.0,0,1.0,1.0,0,0.111111111111111,3.10526315789474,ReadingArea_rsl0-rcl69-esl100-rsm0-rcm100-esm100-rsr0-rcr11-esr310,exr/ReadingArea_rsl0-rcl69-esl100-rsm0-rcm100-esm100-rsr0-rcr11-esr310.exr,ReadingArea_rsl0-rcl69-esl100-rsm0-rcm100-esm100-rsr0-rcr11-esr310.npz,,,,,0,187,187,79,,left,green,0.75,689.1586260795593,689.5993299484253,3,1,6,lightness,readingArea,realistic,75,2023-03-25_12h59.15.250,tripletExp_regina_11082022,2022.2.4,119.14959377308108,
2,9,8,0,0.25,0.298245614035088,0,0.444444444444444,1.0,0,0.25,1.0,ReadingArea_rsl0-rcl25-esl29-rsm0-rcm44-esm100-rsr0-rcr25-esr100,exr/ReadingArea_rsl0-rcl25-esl29-rsm0-rcm44-esm100-rsr0-rcr25-esr100.exr,ReadingArea_rsl0-rcl25-esl29-rsm0-rcm44-esm100-rsr0-rcr25-esr100.npz,,,,,0,188,188,407,,right,red,0.81,691.3105070590973,691.7536818981171,3,1,6,lightness,readingArea,realistic,75,2023-03-25_12h59.15.250,tripletExp_regina_11082022,2022.2.4,119.14959377308108,
1,12,11,0,0.111111111111111,0.298245614035088,0,0.027777777777778,3.10526315789474,0,1.0,1.0,ReadingArea_rsl0-rcl11-esl29-rsm0-rcm2-esm310-rsr0-rcr100-esr100,exr/ReadingArea_rsl0-rcl11-esl29-rsm0-rcm2-esm310-rsr0-rcr100-esr100.exr,ReadingArea_rsl0-rcl11-esl29-rsm0-rcm2-esm310-rsr0-rcr100-esr100.npz,,,,,0,189,189,178,,left,green,0.71,693.4727249145508,693.9495069980621,3,1,6,lightness,readingArea,realistic,75,2023-03-25_12h59.15.250,tripletExp_regina_11082022,2022.2.4,119.14959377308108,
6,10,8,0,0.027777777777778,1.0,0,0.694444444444444,1.0,0,0.25,1.0,ReadingArea_rsl0-rcl2-esl100-rsm0-rcm69-esm100-rsr0-rcr25-esr100,exr/ReadingArea_rsl0-rcl2-esl100-rsm0-rcm69-esm100-rsr0-rcr25-esr100.exr,ReadingArea_rsl0-rcl2-esl100-rsm0-rcm69-esm100-rsr0-rcr25-esr100.npz,,,,,0,190,190,167,,right,red,0.78,695.6652779579163,696.1160490512848,3,1,6,lightness,readingArea,realistic,75,2023-03-25_12h59.15.250,tripletExp_regina_11082022,2022.2.4,119.14959377308108,
10,0,14,0,0.694444444444444,1.0,0,0.027777777777778,0.298245614035088,0,0.25,3.10526315789474,ReadingArea_rsl0-rcl69-esl100-rsm0-rcm2-esm29-rsr0-rcr25-esr310,exr/ReadingArea_rsl0-rcl69-esl100-rsm0-rcm2-esm29-rsr0-rcr25-esr310.exr,ReadingArea_rsl0-rcl69-esl100-rsm0-rcm2-esm29-rsr0-rcr25-esr310.npz,,,,,0,191,191,95,,right,red,1.15,697.8070340156555,698.3105709552765,3,1,6,lightness,readingArea,realistic,75,2023-03-25_12h59.15.250,tripletExp_regina_11082022,2022.2.4,119.14959377308108,
1,9,11,0,0.111111111111111,0.298245614035088,0,0.444444444444444,1.0,0,1.0,1.0,ReadingArea_rsl0-rcl11-esl29-rsm0-rcm44-esm100-rsr0-rcr100-esr100,exr/ReadingArea_rsl0-rcl11-esl29-rsm0-rcm44-esm100-rsr0-rcr100-esr100.exr,ReadingArea_rsl0-rcl11-esl29-rsm0-rcm44-esm100-rsr0-rcr100-esr100.npz,,,,,0,192,192,215,,right,red,0.81,700.0067429542542,700.4824950695038,3,1,6,lightness,readingArea,realistic,75,2023-03-25_12h59.15.250,tripletExp_regina_11082022,2022.2.4,119.14959377308108,
8,9,13,0,0.25,1.0,0,0.444444444444444,1.0,0,0.111111111111111,3.10526315789474,ReadingArea_rsl0-rcl25-esl100-rsm0-rcm44-esm100-rsr0-rcr11-esr310,exr/ReadingArea_rsl0-rcl25-esl100-rsm0-rcm44-esm100-rsr0-rcr11-esr310.exr,ReadingArea_rsl0-rcl25-esl100-rsm0-rcm44-esm100-rsr0-rcr11-esr310.npz,,,,,0,193,193,519,,left,green,0.88,702.1814880371094,702.6606628894806,3,1,6,lightness,readingArea,realistic,75,2023-03-25_12h59.15.250,tripletExp_regina_11082022,2022.2.4,119.14959377308108,
11,5,8,0,1.0,1.0,0,1.0,0.298245614035088,0,0.25,1.0,ReadingArea_rsl0-rcl100-esl100-rsm0-rcm100-esm29-rsr0-rcr25-esr100,exr/ReadingArea_rsl0-rcl100-esl100-rsm0-rcm100-esm29-rsr0-rcr25-esr100.exr,ReadingArea_rsl0-rcl100-esl100-rsm0-rcm100-esm29-rsr0-rcr25-esr100.npz,,,,,0,194,194,86,,left,green,1.0,704.3528718948364,704.8580861091614,3,1,6,lightness,readingArea,realistic,75,2023-03-25_12h59.15.250,tripletExp_regina_11082022,2022.2.4,119.14959377308108,
5,3,2,0,1.0,0.298245614035088,0,0.444444444444444,0.298245614035088,0,0.25,0.298245614035088,ReadingArea_rsl0-rcl100-esl29-rsm0-rcm44-esm29-rsr0-rcr25-esr29,exr/ReadingArea_rsl0-rcl100-esl29-rsm0-rcm44-esm29-rsr0-rcr25-esr29.exr,ReadingArea_rsl0-rcl100-esl29-rsm0-rcm44-esm29-rsr0-rcr25-esr29.npz,,,,,0,195,195,143,,right,red,2.16,708.3159968852997,708.8044979572296,3,1,6,lightness,readingArea,realistic,75,2023-03-25_12h59.15.250,tripletExp_regina_11082022,2022.2.4,119.14959377308108,
7,10,13,0,0.111111111111111,1.0,0,0.694444444444444,1.0,0,0.111111111111111,3.10526315789474,ReadingArea_rsl0-rcl11-esl100-rsm0-rcm69-esm100-rsr0-rcr11-esr310,exr/ReadingArea_rsl0-rcl11-esl100-rsm0-rcm69-esm100-rsr0-rcr11-esr310.exr,ReadingArea_rsl0-rcl11-esl100-rsm0-rcm69-esm100-rsr0-rcr11-esr310.npz,,,,,0,196,196,446,,right,red,0.67,710.5040850639343,710.9688711166382,3,1,6,lightness,readingArea,realistic,75,2023-03-25_12h59.15.250,tripletExp_regina_11082022,2022.2.4,119.14959377308108,
9,0,14,0,0.444444444444444,1.0,0,0.027777777777778,0.298245614035088,0,0.25,3.10526315789474,ReadingArea_rsl0-rcl44-esl100-rsm0-rcm2-esm29-rsr0-rcr25-esr310,exr/ReadingArea_rsl0-rcl44-esl100-rsm0-rcm2-esm29-rsr0-rcr25-esr310.exr,ReadingArea_rsl0-rcl44-esl100-rsm0-rcm2-esm29-rsr0-rcr25-esr310.npz,,,,,0,197,197,550,,left,green,1.14,712.6953508853912,713.1466319561005,3,1,6,lightness,readingArea,realistic,75,2023-03-25_12h59.15.250,tripletExp_regina_11082022,2022.2.4,119.14959377308108,
9,0,8,0,0.444444444444444,1.0,0,0.027777777777778,0.298245614035088,0,0.25,1.0,ReadingArea_rsl0-rcl44-esl100-rsm0-rcm2-esm29-rsr0-rcr25-esr100,exr/ReadingArea_rsl0-rcl44-esl100-rsm0-rcm2-esm29-rsr0-rcr25-esr100.exr,ReadingArea_rsl0-rcl44-esl100-rsm0-rcm2-esm29-rsr0-rcr25-esr100.npz,,,,,0,198,198,27,,right,red,2.15,716.6142659187317,,3,1,6,lightness,readingArea,realistic,75,2023-03-25_12h59.15.250,tripletExp_regina_11082022,2022.2.4,119.14959377308108,
5,3,10,0,1.0,0.298245614035088,0,0.444444444444444,0.298245614035088,0,0.694444444444444,1.0,ReadingArea_rsl0-rcl100-esl29-rsm0-rcm44-esm29-rsr0-rcr69-esr100,exr/ReadingArea_rsl0-rcl100-esl29-rsm0-rcm44-esm29-rsr0-rcr69-esr100.exr,ReadingArea_rsl0-rcl100-esl29-rsm0-rcm44-esm29-rsr0-rcr69-esr100.npz,,,,,0,199,199,546,,left,green,0.99,718.803503036499,719.283539056778,3,1,6,lightness,readingArea,realistic,75,2023-03-25_12h59.15.250,tripletExp_regina_11082022,2022.2.4,119.14959377308108,
3,10,9,0,0.444444444444444,0.298245614035088,0,0.694444444444444,1.0,0,0.444444444444444,1.0,ReadingArea_rsl0-rcl44-esl29-rsm0-rcm69-esm100-rsr0-rcr44-esr100,exr/ReadingArea_rsl0-rcl44-esl29-rsm0-rcm69-esm100-rsr0-rcr44-esr100.exr,ReadingArea_rsl0-rcl44-esl29-rsm0-rcm69-esm100-rsr0-rcr44-esr100.npz,,,,,0,200,200,222,,right,red,2.35,722.7469539642334,723.2157299518585,3,1,6,lightness,readingArea,realistic,75,2023-03-25_12h59.15.250,tripletExp_regina_11082022,2022.2.4,119.14959377308108,
3,7,9,0,0.444444444444444,0.298245614035088,0,0.111111111111111,1.0,0,0.444444444444444,1.0,ReadingArea_rsl0-rcl44-esl29-rsm0-rcm11-esm100-rsr0-rcr44-esr100,exr/ReadingArea_rsl0-rcl44-esl29-rsm0-rcm11-esm100-rsr0-rcr44-esr100.exr,ReadingArea_rsl0-rcl44-esl29-rsm0-rcm11-esm100-rsr0-rcr44-esr100.npz,,,,,0,201,201,382,,left,green,0.73,724.9376499652863,725.3879499435425,3,1,6,lightness,readingArea,realistic,75,2023-03-25_12h59.15.250,tripletExp_regina_11082022,2022.2.4,119.14959377308108,
9,6,14,0,0.444444444444444,1.0,0,0.027777777777778,1.0,0,0.25,3.10526315789474,ReadingArea_rsl0-rcl44-esl100-rsm0-rcm2-esm100-rsr0-rcr25-esr310,exr/ReadingArea_rsl0-rcl44-esl100-rsm0-rcm2-esm100-rsr0-rcr25-esr310.exr,ReadingArea_rsl0-rcl44-esl100-rsm0-rcm2-esm100-rsr0-rcr25-esr310.npz,,,,,0,202,202,213,,left,green,2.38,728.8632559776306,729.3323719501495,3,1,6,lightness,readingArea,realistic,75,2023-03-25_12h59.15.250,tripletExp_regina_11082022,2022.2.4,119.14959377308108,
0,7,13,0,0.027777777777778,0.298245614035088,0,0.111111111111111,1.0,0,0.111111111111111,3.10526315789474,ReadingArea_rsl0-rcl2-esl29-rsm0-rcm11-esm100-rsr0-rcr11-esr310,exr/ReadingArea_rsl0-rcl2-esl29-rsm0-rcm11-esm100-rsr0-rcr11-esr310.exr,ReadingArea_rsl0-rcl2-esl29-rsm0-rcm11-esm100-rsr0-rcr11-esr310.npz,,,,,0,203,203,159,,right,red,0.78,731.0240650177002,731.4634530544281,3,1,6,lightness,readingArea,realistic,75,2023-03-25_12h59.15.250,tripletExp_regina_11082022,2022.2.4,119.14959377308108,
