index_left,index_middle,index_right,reflectance_surround_left,reflectance_center_left,emission_spot_left,reflectance_surround_middle,reflectance_center_middle,emission_spot_middle,reflectance_surround_right,reflectance_center_right,emission_spot_right,ImageName,ImageExr,ImageNpy,trials_2.thisRepN,trials_2.thisTrialN,trials_2.thisN,trials_2.thisIndex,trials.thisRepN,trials.thisTrialN,trials.thisN,trials.thisIndex,sound_1.started,BB_Trial.resp,BB_Trial.color,BB_Trial.rt,text.started,text.stopped,block,sound_4.started,participant,session,L/B,scene,condition,nTrialsPerBlock,date,expName,psychopyVersion,frameRate,Unnamed: 41
9,11,5,0,0.444444444444444,1.0,0,1.0,1.0,0,1.0,0.298245614035088,ReadingArea_rsl0-rcl44-esl100-rsm0-rcm100-esm100-rsr0-rcr100-esr29,exr/ReadingArea_rsl0-rcl44-esl100-rsm0-rcm100-esm100-rsr0-rcr100-esr29.exr,ReadingArea_rsl0-rcl44-esl100-rsm0-rcm100-esm100-rsr0-rcr100-esr29.npz,,,,,0,0,0,142,162.2138760328293,left,green,3.04,167.6776909828186,159.41213607788086,1,,3,6,lightness,readingArea,realistic,75,2023-03-18_14h11.44.209,tripletExp_regina_11082022,2022.2.4,120.59216409006092,
6,1,14,0,0.027777777777778,1.0,0,0.111111111111111,0.298245614035088,0,0.25,3.10526315789474,ReadingArea_rsl0-rcl2-esl100-rsm0-rcm11-esm29-rsr0-rcr25-esr310,exr/ReadingArea_rsl0-rcl2-esl100-rsm0-rcm11-esm29-rsr0-rcr25-esr310.exr,ReadingArea_rsl0-rcl2-esl100-rsm0-rcm11-esm29-rsr0-rcr25-esr310.npz,,,,,0,1,1,381,,left,green,1.21,169.91739416122437,170.39834117889404,1,,3,6,lightness,readingArea,realistic,75,2023-03-18_14h11.44.209,tripletExp_regina_11082022,2022.2.4,120.59216409006092,
7,14,11,0,0.111111111111111,1.0,0,0.25,3.10526315789474,0,1.0,1.0,ReadingArea_rsl0-rcl11-esl100-rsm0-rcm25-esm310-rsr0-rcr100-esr100,exr/ReadingArea_rsl0-rcl11-esl100-rsm0-rcm25-esm310-rsr0-rcr100-esr100.exr,ReadingArea_rsl0-rcl11-esl100-rsm0-rcm25-esm310-rsr0-rcr100-esr100.npz,,,,,0,2,2,252,,right,red,0.86,172.10120797157288,172.50744009017944,1,,3,6,lightness,readingArea,realistic,75,2023-03-18_14h11.44.209,tripletExp_regina_11082022,2022.2.4,120.59216409006092,
14,8,9,0,0.25,3.10526315789474,0,0.25,1.0,0,0.444444444444444,1.0,ReadingArea_rsl0-rcl25-esl310-rsm0-rcm25-esm100-rsr0-rcr44-esr100,exr/ReadingArea_rsl0-rcl25-esl310-rsm0-rcm25-esm100-rsr0-rcr44-esr100.exr,ReadingArea_rsl0-rcl25-esl310-rsm0-rcm25-esm100-rsr0-rcr44-esr100.npz,,,,,0,3,3,518,,right,red,1.31,174.2216579914093,174.69701218605042,1,,3,6,lightness,readingArea,realistic,75,2023-03-18_14h11.44.209,tripletExp_regina_11082022,2022.2.4,120.59216409006092,
7,3,5,0,0.111111111111111,1.0,0,0.444444444444444,0.298245614035088,0,1.0,0.298245614035088,ReadingArea_rsl0-rcl11-esl100-rsm0-rcm44-esm29-rsr0-rcr100-esr29,exr/ReadingArea_rsl0-rcl11-esl100-rsm0-rcm44-esm29-rsr0-rcr100-esr29.exr,ReadingArea_rsl0-rcl11-esl100-rsm0-rcm44-esm29-rsr0-rcr100-esr29.npz,,,,,0,4,4,589,,left,green,2.99,178.1911211013794,178.61756896972656,1,,3,6,lightness,readingArea,realistic,75,2023-03-18_14h11.44.209,tripletExp_regina_11082022,2022.2.4,120.59216409006092,
10,5,13,0,0.694444444444444,1.0,0,1.0,0.298245614035088,0,0.111111111111111,3.10526315789474,ReadingArea_rsl0-rcl69-esl100-rsm0-rcm100-esm29-rsr0-rcr11-esr310,exr/ReadingArea_rsl0-rcl69-esl100-rsm0-rcm100-esm29-rsr0-rcr11-esr310.exr,ReadingArea_rsl0-rcl69-esl100-rsm0-rcm100-esm29-rsr0-rcr11-esr310.npz,,,,,0,5,5,478,,right,red,0.84,180.34072303771973,180.7708489894867,1,,3,6,lightness,readingArea,realistic,75,2023-03-18_14h11.44.209,tripletExp_regina_11082022,2022.2.4,120.59216409006092,
4,12,2,0,0.694444444444444,0.298245614035088,0,0.027777777777778,3.10526315789474,0,0.25,0.298245614035088,ReadingArea_rsl0-rcl69-esl29-rsm0-rcm2-esm310-rsr0-rcr25-esr29,exr/ReadingArea_rsl0-rcl69-esl29-rsm0-rcm2-esm310-rsr0-rcr25-esr29.exr,ReadingArea_rsl0-rcl69-esl29-rsm0-rcm2-esm310-rsr0-rcr25-esr29.npz,,,,,0,6,6,543,,right,red,2.83,184.21818113327024,184.6674900054932,1,,3,6,lightness,readingArea,realistic,75,2023-03-18_14h11.44.209,tripletExp_regina_11082022,2022.2.4,120.59216409006092,
12,5,2,0,0.027777777777778,3.10526315789474,0,1.0,0.298245614035088,0,0.25,0.298245614035088,ReadingArea_rsl0-rcl2-esl310-rsm0-rcm100-esm29-rsr0-rcr25-esr29,exr/ReadingArea_rsl0-rcl2-esl310-rsm0-rcm100-esm29-rsr0-rcr25-esr29.exr,ReadingArea_rsl0-rcl2-esl310-rsm0-rcm100-esm29-rsr0-rcr25-esr29.npz,,,,,0,7,7,415,,right,red,2.9,188.1466100215912,,1,,3,6,lightness,readingArea,realistic,75,2023-03-18_14h11.44.209,tripletExp_regina_11082022,2022.2.4,120.59216409006092,
8,14,3,0,0.25,1.0,0,0.25,3.10526315789474,0,0.444444444444444,0.298245614035088,ReadingArea_rsl0-rcl25-esl100-rsm0-rcm25-esm310-rsr0-rcr44-esr29,exr/ReadingArea_rsl0-rcl25-esl100-rsm0-rcm25-esm310-rsr0-rcr44-esr29.exr,ReadingArea_rsl0-rcl25-esl100-rsm0-rcm25-esm310-rsr0-rcr44-esr29.npz,,,,,0,8,8,503,,left,green,1.69,190.2898640632629,190.718679189682,1,,3,6,lightness,readingArea,realistic,75,2023-03-18_14h11.44.209,tripletExp_regina_11082022,2022.2.4,120.59216409006092,
5,9,10,0,1.0,0.298245614035088,0,0.444444444444444,1.0,0,0.694444444444444,1.0,ReadingArea_rsl0-rcl100-esl29-rsm0-rcm44-esm100-rsr0-rcr69-esr100,exr/ReadingArea_rsl0-rcl100-esl29-rsm0-rcm44-esm100-rsr0-rcr69-esr100.exr,ReadingArea_rsl0-rcl100-esl29-rsm0-rcm44-esm100-rsr0-rcr69-esr100.npz,,,,,0,9,9,322,,left,green,1.67,192.43106412887573,,1,,3,6,lightness,readingArea,realistic,75,2023-03-18_14h11.44.209,tripletExp_regina_11082022,2022.2.4,120.59216409006092,
14,6,12,0,0.25,3.10526315789474,0,0.027777777777778,1.0,0,0.027777777777778,3.10526315789474,ReadingArea_rsl0-rcl25-esl310-rsm0-rcm2-esm100-rsr0-rcr2-esr310,exr/ReadingArea_rsl0-rcl25-esl310-rsm0-rcm2-esm100-rsr0-rcr2-esr310.exr,ReadingArea_rsl0-rcl25-esl310-rsm0-rcm2-esm100-rsr0-rcr2-esr310.npz,,,,,0,10,10,242,,right,red,1.17,194.56651401519773,194.99262714385983,1,,3,6,lightness,readingArea,realistic,75,2023-03-18_14h11.44.209,tripletExp_regina_11082022,2022.2.4,120.59216409006092,
9,8,0,0,0.444444444444444,1.0,0,0.25,1.0,0,0.027777777777778,0.298245614035088,ReadingArea_rsl0-rcl44-esl100-rsm0-rcm25-esm100-rsr0-rcr2-esr29,exr/ReadingArea_rsl0-rcl44-esl100-rsm0-rcm25-esm100-rsr0-rcr2-esr29.exr,ReadingArea_rsl0-rcl44-esl100-rsm0-rcm25-esm100-rsr0-rcr2-esr29.npz,,,,,0,11,11,66,,left,green,1.22,196.71415615081787,197.11756896972656,1,,3,6,lightness,readingArea,realistic,75,2023-03-18_14h11.44.209,tripletExp_regina_11082022,2022.2.4,120.59216409006092,
2,8,7,0,0.25,0.298245614035088,0,0.25,1.0,0,0.111111111111111,1.0,ReadingArea_rsl0-rcl25-esl29-rsm0-rcm25-esm100-rsr0-rcr11-esr100,exr/ReadingArea_rsl0-rcl25-esl29-rsm0-rcm25-esm100-rsr0-rcr11-esr100.exr,ReadingArea_rsl0-rcl25-esl29-rsm0-rcm25-esm100-rsr0-rcr11-esr100.npz,,,,,0,12,12,393,,right,red,0.76,198.8103370666504,199.24253797531128,1,,3,6,lightness,readingArea,realistic,75,2023-03-18_14h11.44.209,tripletExp_regina_11082022,2022.2.4,120.59216409006092,
4,5,9,0,0.694444444444444,0.298245614035088,0,1.0,0.298245614035088,0,0.444444444444444,1.0,ReadingArea_rsl0-rcl69-esl29-rsm0-rcm100-esm29-rsr0-rcr44-esr100,exr/ReadingArea_rsl0-rcl69-esl29-rsm0-rcm100-esm29-rsr0-rcr44-esr100.exr,ReadingArea_rsl0-rcl69-esl29-rsm0-rcm100-esm29-rsr0-rcr44-esr100.npz,,,,,0,13,13,211,,right,red,1.04,200.963448047638,201.3858630657196,1,,3,6,lightness,readingArea,realistic,75,2023-03-18_14h11.44.209,tripletExp_regina_11082022,2022.2.4,120.59216409006092,
10,14,13,0,0.694444444444444,1.0,0,0.25,3.10526315789474,0,0.111111111111111,3.10526315789474,ReadingArea_rsl0-rcl69-esl100-rsm0-rcm25-esm310-rsr0-rcr11-esr310,exr/ReadingArea_rsl0-rcl69-esl100-rsm0-rcm25-esm310-rsr0-rcr11-esr310.exr,ReadingArea_rsl0-rcl69-esl100-rsm0-rcm25-esm310-rsr0-rcr11-esr310.npz,,,,,0,14,14,168,,left,green,1.42,203.1031939983368,203.51592016220093,1,,3,6,lightness,readingArea,realistic,75,2023-03-18_14h11.44.209,tripletExp_regina_11082022,2022.2.4,120.59216409006092,
7,9,5,0,0.111111111111111,1.0,0,0.444444444444444,1.0,0,1.0,0.298245614035088,ReadingArea_rsl0-rcl11-esl100-rsm0-rcm44-esm100-rsr0-rcr100-esr29,exr/ReadingArea_rsl0-rcl11-esl100-rsm0-rcm44-esm100-rsr0-rcr100-esr29.exr,ReadingArea_rsl0-rcl11-esl100-rsm0-rcm44-esm100-rsr0-rcr100-esr29.npz,,,,,0,15,15,291,,right,red,0.89,205.23889899253845,205.76448702812195,1,,3,6,lightness,readingArea,realistic,75,2023-03-18_14h11.44.209,tripletExp_regina_11082022,2022.2.4,120.59216409006092,
9,13,0,0,0.444444444444444,1.0,0,0.111111111111111,3.10526315789474,0,0.027777777777778,0.298245614035088,ReadingArea_rsl0-rcl44-esl100-rsm0-rcm11-esm310-rsr0-rcr2-esr29,exr/ReadingArea_rsl0-rcl44-esl100-rsm0-rcm11-esm310-rsr0-rcr2-esr29.exr,ReadingArea_rsl0-rcl44-esl100-rsm0-rcm11-esm310-rsr0-rcr2-esr29.npz,,,,,0,16,16,205,,left,green,1.02,207.47564697265625,207.90952801704407,1,,3,6,lightness,readingArea,realistic,75,2023-03-18_14h11.44.209,tripletExp_regina_11082022,2022.2.4,120.59216409006092,
14,0,5,0,0.25,3.10526315789474,0,0.027777777777778,0.298245614035088,0,1.0,0.298245614035088,ReadingArea_rsl0-rcl25-esl310-rsm0-rcm2-esm29-rsr0-rcr100-esr29,exr/ReadingArea_rsl0-rcl25-esl310-rsm0-rcm2-esm29-rsr0-rcr100-esr29.exr,ReadingArea_rsl0-rcl25-esl310-rsm0-rcm2-esm29-rsr0-rcr100-esr29.npz,,,,,0,17,17,418,,right,red,1.63,209.6032190322876,210.02712202072144,1,,3,6,lightness,readingArea,realistic,75,2023-03-18_14h11.44.209,tripletExp_regina_11082022,2022.2.4,120.59216409006092,
11,5,3,0,1.0,1.0,0,1.0,0.298245614035088,0,0.444444444444444,0.298245614035088,ReadingArea_rsl0-rcl100-esl100-rsm0-rcm100-esm29-rsr0-rcr44-esr29,exr/ReadingArea_rsl0-rcl100-esl100-rsm0-rcm100-esm29-rsr0-rcr44-esr29.exr,ReadingArea_rsl0-rcl100-esl100-rsm0-rcm100-esm29-rsr0-rcr44-esr29.npz,,,,,0,18,18,172,,right,red,2.97,213.5193011760712,213.96006417274475,1,,3,6,lightness,readingArea,realistic,75,2023-03-18_14h11.44.209,tripletExp_regina_11082022,2022.2.4,120.59216409006092,
10,6,13,0,0.694444444444444,1.0,0,0.027777777777778,1.0,0,0.111111111111111,3.10526315789474,ReadingArea_rsl0-rcl69-esl100-rsm0-rcm2-esm100-rsr0-rcr11-esr310,exr/ReadingArea_rsl0-rcl69-esl100-rsm0-rcm2-esm100-rsr0-rcr11-esr310.exr,ReadingArea_rsl0-rcl69-esl100-rsm0-rcm2-esm100-rsr0-rcr11-esr310.npz,,,,,0,19,19,41,,right,red,1.32,215.6542851924896,216.06646013259888,1,,3,6,lightness,readingArea,realistic,75,2023-03-18_14h11.44.209,tripletExp_regina_11082022,2022.2.4,120.59216409006092,
10,5,4,0,0.694444444444444,1.0,0,1.0,0.298245614035088,0,0.694444444444444,0.298245614035088,ReadingArea_rsl0-rcl69-esl100-rsm0-rcm100-esm29-rsr0-rcr69-esr29,exr/ReadingArea_rsl0-rcl69-esl100-rsm0-rcm100-esm29-rsr0-rcr69-esr29.exr,ReadingArea_rsl0-rcl69-esl100-rsm0-rcm100-esm29-rsr0-rcr69-esr29.npz,,,,,0,20,20,455,,right,red,1.46,217.77960014343265,218.2069931030273,1,,3,6,lightness,readingArea,realistic,75,2023-03-18_14h11.44.209,tripletExp_regina_11082022,2022.2.4,120.59216409006092,
3,4,5,0,0.444444444444444,0.298245614035088,0,0.694444444444444,0.298245614035088,0,1.0,0.298245614035088,ReadingArea_rsl0-rcl44-esl29-rsm0-rcm69-esm29-rsr0-rcr100-esr29,exr/ReadingArea_rsl0-rcl44-esl29-rsm0-rcm69-esm29-rsr0-rcr100-esr29.exr,ReadingArea_rsl0-rcl44-esl29-rsm0-rcm69-esm29-rsr0-rcr100-esr29.npz,,,,,0,21,21,233,,right,red,1.47,219.9203720092773,220.35693502426147,1,,3,6,lightness,readingArea,realistic,75,2023-03-18_14h11.44.209,tripletExp_regina_11082022,2022.2.4,120.59216409006092,
5,14,3,0,1.0,0.298245614035088,0,0.25,3.10526315789474,0,0.444444444444444,0.298245614035088,ReadingArea_rsl0-rcl100-esl29-rsm0-rcm25-esm310-rsr0-rcr44-esr29,exr/ReadingArea_rsl0-rcl100-esl29-rsm0-rcm25-esm310-rsr0-rcr44-esr29.exr,ReadingArea_rsl0-rcl100-esl29-rsm0-rcm25-esm310-rsr0-rcr44-esr29.npz,,,,,0,22,22,93,,left,green,1.13,222.079579114914,222.49480509758,1,,3,6,lightness,readingArea,realistic,75,2023-03-18_14h11.44.209,tripletExp_regina_11082022,2022.2.4,120.59216409006092,
8,0,4,0,0.25,1.0,0,0.027777777777778,0.298245614035088,0,0.694444444444444,0.298245614035088,ReadingArea_rsl0-rcl25-esl100-rsm0-rcm2-esm29-rsr0-rcr69-esr29,exr/ReadingArea_rsl0-rcl25-esl100-rsm0-rcm2-esm29-rsr0-rcr69-esr29.exr,ReadingArea_rsl0-rcl25-esl100-rsm0-rcm2-esm29-rsr0-rcr69-esr29.npz,,,,,0,23,23,346,,left,green,1.33,224.2126100063324,224.6577491760254,1,,3,6,lightness,readingArea,realistic,75,2023-03-18_14h11.44.209,tripletExp_regina_11082022,2022.2.4,120.59216409006092,
7,12,2,0,0.111111111111111,1.0,0,0.027777777777778,3.10526315789474,0,0.25,0.298245614035088,ReadingArea_rsl0-rcl11-esl100-rsm0-rcm2-esm310-rsr0-rcr25-esr29,exr/ReadingArea_rsl0-rcl11-esl100-rsm0-rcm2-esm310-rsr0-rcr25-esr29.exr,ReadingArea_rsl0-rcl11-esl100-rsm0-rcm2-esm310-rsr0-rcr25-esr29.npz,,,,,0,24,24,72,,right,red,1.5,226.36349606513977,226.7783939838409,1,,3,6,lightness,readingArea,realistic,75,2023-03-18_14h11.44.209,tripletExp_regina_11082022,2022.2.4,120.59216409006092,
2,1,6,0,0.25,0.298245614035088,0,0.111111111111111,0.298245614035088,0,0.027777777777778,1.0,ReadingArea_rsl0-rcl25-esl29-rsm0-rcm11-esm29-rsr0-rcr2-esr100,exr/ReadingArea_rsl0-rcl25-esl29-rsm0-rcm11-esm29-rsr0-rcr2-esr100.exr,ReadingArea_rsl0-rcl25-esl29-rsm0-rcm11-esm29-rsr0-rcr2-esr100.npz,,,,,0,25,25,171,,right,red,0.97,228.50131797790527,228.9030590057373,1,,3,6,lightness,readingArea,realistic,75,2023-03-18_14h11.44.209,tripletExp_regina_11082022,2022.2.4,120.59216409006092,
14,8,5,0,0.25,3.10526315789474,0,0.25,1.0,0,1.0,0.298245614035088,ReadingArea_rsl0-rcl25-esl310-rsm0-rcm25-esm100-rsr0-rcr100-esr29,exr/ReadingArea_rsl0-rcl25-esl310-rsm0-rcm25-esm100-rsr0-rcr100-esr29.exr,ReadingArea_rsl0-rcl25-esl310-rsm0-rcm25-esm100-rsr0-rcr100-esr29.npz,,,,,0,26,26,28,,right,red,1.37,230.59109807014465,231.00575399398804,1,,3,6,lightness,readingArea,realistic,75,2023-03-18_14h11.44.209,tripletExp_regina_11082022,2022.2.4,120.59216409006092,
8,1,3,0,0.25,1.0,0,0.111111111111111,0.298245614035088,0,0.444444444444444,0.298245614035088,ReadingArea_rsl0-rcl25-esl100-rsm0-rcm11-esm29-rsr0-rcr44-esr29,exr/ReadingArea_rsl0-rcl25-esl100-rsm0-rcm11-esm29-rsr0-rcr44-esr29.exr,ReadingArea_rsl0-rcl25-esl100-rsm0-rcm11-esm29-rsr0-rcr44-esr29.npz,,,,,0,27,27,490,,right,red,1.64,232.69523000717163,,1,,3,6,lightness,readingArea,realistic,75,2023-03-18_14h11.44.209,tripletExp_regina_11082022,2022.2.4,120.59216409006092,
8,7,12,0,0.25,1.0,0,0.111111111111111,1.0,0,0.027777777777778,3.10526315789474,ReadingArea_rsl0-rcl25-esl100-rsm0-rcm11-esm100-rsr0-rcr2-esr310,exr/ReadingArea_rsl0-rcl25-esl100-rsm0-rcm11-esm100-rsr0-rcr2-esr310.exr,ReadingArea_rsl0-rcl25-esl100-rsm0-rcm11-esm100-rsr0-rcr2-esr310.npz,,,,,0,28,28,471,,right,red,1.36,234.79928302764893,235.2748990058899,1,,3,6,lightness,readingArea,realistic,75,2023-03-18_14h11.44.209,tripletExp_regina_11082022,2022.2.4,120.59216409006092,
5,13,6,0,1.0,0.298245614035088,0,0.111111111111111,3.10526315789474,0,0.027777777777778,1.0,ReadingArea_rsl0-rcl100-esl29-rsm0-rcm11-esm310-rsr0-rcr2-esr100,exr/ReadingArea_rsl0-rcl100-esl29-rsm0-rcm11-esm310-rsr0-rcr2-esr100.exr,ReadingArea_rsl0-rcl100-esl29-rsm0-rcm11-esm310-rsr0-rcr2-esr100.npz,,,,,0,29,29,263,,left,green,1.06,236.9726390838623,237.41201496124268,1,,3,6,lightness,readingArea,realistic,75,2023-03-18_14h11.44.209,tripletExp_regina_11082022,2022.2.4,120.59216409006092,
4,11,14,0,0.694444444444444,0.298245614035088,0,1.0,1.0,0,0.25,3.10526315789474,ReadingArea_rsl0-rcl69-esl29-rsm0-rcm100-esm100-rsr0-rcr25-esr310,exr/ReadingArea_rsl0-rcl69-esl29-rsm0-rcm100-esm100-rsr0-rcr25-esr310.exr,ReadingArea_rsl0-rcl69-esl29-rsm0-rcm100-esm100-rsr0-rcr25-esr310.npz,,,,,0,30,30,165,,right,red,0.85,239.13137698173523,239.555202960968,1,,3,6,lightness,readingArea,realistic,75,2023-03-18_14h11.44.209,tripletExp_regina_11082022,2022.2.4,120.59216409006092,
13,6,1,0,0.111111111111111,3.10526315789474,0,0.027777777777778,1.0,0,0.111111111111111,0.298245614035088,ReadingArea_rsl0-rcl11-esl310-rsm0-rcm2-esm100-rsr0-rcr11-esr29,exr/ReadingArea_rsl0-rcl11-esl310-rsm0-rcm2-esm100-rsr0-rcr11-esr29.exr,ReadingArea_rsl0-rcl11-esl310-rsm0-rcm2-esm100-rsr0-rcr11-esr29.npz,,,,,0,31,31,486,,right,red,0.76,241.25895810127253,241.6895661354065,1,,3,6,lightness,readingArea,realistic,75,2023-03-18_14h11.44.209,tripletExp_regina_11082022,2022.2.4,120.59216409006092,
13,11,7,0,0.111111111111111,3.10526315789474,0,1.0,1.0,0,0.111111111111111,1.0,ReadingArea_rsl0-rcl11-esl310-rsm0-rcm100-esm100-rsr0-rcr11-esr100,exr/ReadingArea_rsl0-rcl11-esl310-rsm0-rcm100-esm100-rsr0-rcr11-esr100.exr,ReadingArea_rsl0-rcl11-esl310-rsm0-rcm100-esm100-rsr0-rcr11-esr100.npz,,,,,0,32,32,590,,left,green,1.26,243.40894198417664,243.8264939785004,1,,3,6,lightness,readingArea,realistic,75,2023-03-18_14h11.44.209,tripletExp_regina_11082022,2022.2.4,120.59216409006092,
5,12,7,0,1.0,0.298245614035088,0,0.027777777777778,3.10526315789474,0,0.111111111111111,1.0,ReadingArea_rsl0-rcl100-esl29-rsm0-rcm2-esm310-rsr0-rcr11-esr100,exr/ReadingArea_rsl0-rcl100-esl29-rsm0-rcm2-esm310-rsr0-rcr11-esr100.exr,ReadingArea_rsl0-rcl100-esl29-rsm0-rcm2-esm310-rsr0-rcr11-esr100.npz,,,,,0,33,33,447,,right,red,0.97,245.5362811088562,245.96414518356323,1,,3,6,lightness,readingArea,realistic,75,2023-03-18_14h11.44.209,tripletExp_regina_11082022,2022.2.4,120.59216409006092,
4,3,1,0,0.694444444444444,0.298245614035088,0,0.444444444444444,0.298245614035088,0,0.111111111111111,0.298245614035088,ReadingArea_rsl0-rcl69-esl29-rsm0-rcm44-esm29-rsr0-rcr11-esr29,exr/ReadingArea_rsl0-rcl69-esl29-rsm0-rcm44-esm29-rsr0-rcr11-esr29.exr,ReadingArea_rsl0-rcl69-esl29-rsm0-rcm44-esm29-rsr0-rcr11-esr29.npz,,,,,0,34,34,60,,left,green,0.76,247.66424417495728,,1,,3,6,lightness,readingArea,realistic,75,2023-03-18_14h11.44.209,tripletExp_regina_11082022,2022.2.4,120.59216409006092,
10,12,11,0,0.694444444444444,1.0,0,0.027777777777778,3.10526315789474,0,1.0,1.0,ReadingArea_rsl0-rcl69-esl100-rsm0-rcm2-esm310-rsr0-rcr100-esr100,exr/ReadingArea_rsl0-rcl69-esl100-rsm0-rcm2-esm310-rsr0-rcr100-esr100.exr,ReadingArea_rsl0-rcl69-esl100-rsm0-rcm2-esm310-rsr0-rcr100-esr100.npz,,,,,0,35,35,317,,left,green,1.54,249.76864099502563,250.22076416015625,1,,3,6,lightness,readingArea,realistic,75,2023-03-18_14h11.44.209,tripletExp_regina_11082022,2022.2.4,120.59216409006092,
0,14,11,0,0.027777777777778,0.298245614035088,0,0.25,3.10526315789474,0,1.0,1.0,ReadingArea_rsl0-rcl2-esl29-rsm0-rcm25-esm310-rsr0-rcr100-esr100,exr/ReadingArea_rsl0-rcl2-esl29-rsm0-rcm25-esm310-rsr0-rcr100-esr100.exr,ReadingArea_rsl0-rcl2-esl29-rsm0-rcm25-esm310-rsr0-rcr100-esr100.npz,,,,,0,36,36,557,,right,red,0.94,251.94005012512207,,1,,3,6,lightness,readingArea,realistic,75,2023-03-18_14h11.44.209,tripletExp_regina_11082022,2022.2.4,120.59216409006092,
11,9,4,0,1.0,1.0,0,0.444444444444444,1.0,0,0.694444444444444,0.298245614035088,ReadingArea_rsl0-rcl100-esl100-rsm0-rcm44-esm100-rsr0-rcr69-esr29,exr/ReadingArea_rsl0-rcl100-esl100-rsm0-rcm44-esm100-rsr0-rcr69-esr29.exr,ReadingArea_rsl0-rcl100-esl100-rsm0-rcm44-esm100-rsr0-rcr69-esr29.npz,,,,,0,37,37,26,,right,red,1.13,254.1040551662445,254.5140950679779,1,,3,6,lightness,readingArea,realistic,75,2023-03-18_14h11.44.209,tripletExp_regina_11082022,2022.2.4,120.59216409006092,
2,8,4,0,0.25,0.298245614035088,0,0.25,1.0,0,0.694444444444444,0.298245614035088,ReadingArea_rsl0-rcl25-esl29-rsm0-rcm25-esm100-rsr0-rcr69-esr29,exr/ReadingArea_rsl0-rcl25-esl29-rsm0-rcm25-esm100-rsr0-rcr69-esr29.exr,ReadingArea_rsl0-rcl25-esl29-rsm0-rcm25-esm100-rsr0-rcr69-esr29.npz,,,,,0,38,38,507,,right,red,0.74,256.2381901741028,256.6840829849243,1,,3,6,lightness,readingArea,realistic,75,2023-03-18_14h11.44.209,tripletExp_regina_11082022,2022.2.4,120.59216409006092,
4,8,0,0,0.694444444444444,0.298245614035088,0,0.25,1.0,0,0.027777777777778,0.298245614035088,ReadingArea_rsl0-rcl69-esl29-rsm0-rcm25-esm100-rsr0-rcr2-esr29,exr/ReadingArea_rsl0-rcl69-esl29-rsm0-rcm25-esm100-rsr0-rcr2-esr29.exr,ReadingArea_rsl0-rcl69-esl29-rsm0-rcm25-esm100-rsr0-rcr2-esr29.npz,,,,,0,39,39,137,,left,green,0.74,258.3950181007385,258.8038079738617,1,,3,6,lightness,readingArea,realistic,75,2023-03-18_14h11.44.209,tripletExp_regina_11082022,2022.2.4,120.59216409006092,
9,13,6,0,0.444444444444444,1.0,0,0.111111111111111,3.10526315789474,0,0.027777777777778,1.0,ReadingArea_rsl0-rcl44-esl100-rsm0-rcm11-esm310-rsr0-rcr2-esr100,exr/ReadingArea_rsl0-rcl44-esl100-rsm0-rcm11-esm310-rsr0-rcr2-esr100.exr,ReadingArea_rsl0-rcl44-esl100-rsm0-rcm11-esm310-rsr0-rcr2-esr100.npz,,,,,0,40,40,13,,left,green,0.6,260.5031011104584,261.0305850505829,1,,3,6,lightness,readingArea,realistic,75,2023-03-18_14h11.44.209,tripletExp_regina_11082022,2022.2.4,120.59216409006092,
11,13,8,0,1.0,1.0,0,0.111111111111111,3.10526315789474,0,0.25,1.0,ReadingArea_rsl0-rcl100-esl100-rsm0-rcm11-esm310-rsr0-rcr25-esr100,exr/ReadingArea_rsl0-rcl100-esl100-rsm0-rcm11-esm310-rsr0-rcr25-esr100.exr,ReadingArea_rsl0-rcl100-esl100-rsm0-rcm11-esm310-rsr0-rcr25-esr100.npz,,,,,0,41,41,198,,right,red,1.03,262.74361515045166,263.16259598731995,1,,3,6,lightness,readingArea,realistic,75,2023-03-18_14h11.44.209,tripletExp_regina_11082022,2022.2.4,120.59216409006092,
2,3,4,0,0.25,0.298245614035088,0,0.444444444444444,0.298245614035088,0,0.694444444444444,0.298245614035088,ReadingArea_rsl0-rcl25-esl29-rsm0-rcm44-esm29-rsr0-rcr69-esr29,exr/ReadingArea_rsl0-rcl25-esl29-rsm0-rcm44-esm29-rsr0-rcr69-esr29.exr,ReadingArea_rsl0-rcl25-esl29-rsm0-rcm44-esm29-rsr0-rcr69-esr29.npz,,,,,0,42,42,61,,right,red,0.67,264.8809289932251,265.3846900463104,1,,3,6,lightness,readingArea,realistic,75,2023-03-18_14h11.44.209,tripletExp_regina_11082022,2022.2.4,120.59216409006092,
8,6,5,0,0.25,1.0,0,0.027777777777778,1.0,0,1.0,0.298245614035088,ReadingArea_rsl0-rcl25-esl100-rsm0-rcm2-esm100-rsr0-rcr100-esr29,exr/ReadingArea_rsl0-rcl25-esl100-rsm0-rcm2-esm100-rsr0-rcr100-esr29.exr,ReadingArea_rsl0-rcl25-esl100-rsm0-rcm2-esm100-rsr0-rcr100-esr29.npz,,,,,0,43,43,241,,left,green,1.32,267.0869011878968,267.51788806915283,1,,3,6,lightness,readingArea,realistic,75,2023-03-18_14h11.44.209,tripletExp_regina_11082022,2022.2.4,120.59216409006092,
10,3,14,0,0.694444444444444,1.0,0,0.444444444444444,0.298245614035088,0,0.25,3.10526315789474,ReadingArea_rsl0-rcl69-esl100-rsm0-rcm44-esm29-rsr0-rcr25-esr310,exr/ReadingArea_rsl0-rcl69-esl100-rsm0-rcm44-esm29-rsr0-rcr25-esr310.exr,ReadingArea_rsl0-rcl69-esl100-rsm0-rcm44-esm29-rsr0-rcr25-esr310.npz,,,,,0,44,44,597,,left,green,3.3,270.98368310928345,271.46012806892395,1,,3,6,lightness,readingArea,realistic,75,2023-03-18_14h11.44.209,tripletExp_regina_11082022,2022.2.4,120.59216409006092,
11,12,2,0,1.0,1.0,0,0.027777777777778,3.10526315789474,0,0.25,0.298245614035088,ReadingArea_rsl0-rcl100-esl100-rsm0-rcm2-esm310-rsr0-rcr25-esr29,exr/ReadingArea_rsl0-rcl100-esl100-rsm0-rcm2-esm310-rsr0-rcr25-esr29.exr,ReadingArea_rsl0-rcl100-esl100-rsm0-rcm2-esm310-rsr0-rcr25-esr29.npz,,,,,0,45,45,423,,right,red,0.79,273.17323207855225,273.5931420326233,1,,3,6,lightness,readingArea,realistic,75,2023-03-18_14h11.44.209,tripletExp_regina_11082022,2022.2.4,120.59216409006092,
12,7,2,0,0.027777777777778,3.10526315789474,0,0.111111111111111,1.0,0,0.25,0.298245614035088,ReadingArea_rsl0-rcl2-esl310-rsm0-rcm11-esm100-rsr0-rcr25-esr29,exr/ReadingArea_rsl0-rcl2-esl310-rsm0-rcm11-esm100-rsr0-rcr25-esr29.exr,ReadingArea_rsl0-rcl2-esl310-rsm0-rcm11-esm100-rsr0-rcr25-esr29.npz,,,,,0,46,46,248,,left,green,3.31,277.04977202415466,277.4807171821594,1,,3,6,lightness,readingArea,realistic,75,2023-03-18_14h11.44.209,tripletExp_regina_11082022,2022.2.4,120.59216409006092,
2,3,13,0,0.25,0.298245614035088,0,0.444444444444444,0.298245614035088,0,0.111111111111111,3.10526315789474,ReadingArea_rsl0-rcl25-esl29-rsm0-rcm44-esm29-rsr0-rcr11-esr310,exr/ReadingArea_rsl0-rcl25-esl29-rsm0-rcm44-esm29-rsr0-rcr11-esr310.exr,ReadingArea_rsl0-rcl25-esl29-rsm0-rcm44-esm29-rsr0-rcr11-esr310.npz,,,,,0,47,47,498,,right,red,0.8,279.2045409679413,279.6314051151276,1,,3,6,lightness,readingArea,realistic,75,2023-03-18_14h11.44.209,tripletExp_regina_11082022,2022.2.4,120.59216409006092,
5,9,0,0,1.0,0.298245614035088,0,0.444444444444444,1.0,0,0.027777777777778,0.298245614035088,ReadingArea_rsl0-rcl100-esl29-rsm0-rcm44-esm100-rsr0-rcr2-esr29,exr/ReadingArea_rsl0-rcl100-esl29-rsm0-rcm44-esm100-rsr0-rcr2-esr29.exr,ReadingArea_rsl0-rcl100-esl29-rsm0-rcm44-esm100-rsr0-rcr2-esr29.npz,,,,,0,48,48,575,,left,green,0.73,281.3308119773865,281.7695660591125,1,,3,6,lightness,readingArea,realistic,75,2023-03-18_14h11.44.209,tripletExp_regina_11082022,2022.2.4,120.59216409006092,
4,1,13,0,0.694444444444444,0.298245614035088,0,0.111111111111111,0.298245614035088,0,0.111111111111111,3.10526315789474,ReadingArea_rsl0-rcl69-esl29-rsm0-rcm11-esm29-rsr0-rcr11-esr310,exr/ReadingArea_rsl0-rcl69-esl29-rsm0-rcm11-esm29-rsr0-rcr11-esr310.exr,ReadingArea_rsl0-rcl69-esl29-rsm0-rcm11-esm29-rsr0-rcr11-esr310.npz,,,,,0,49,49,565,,left,green,1.58,283.47542214393616,283.9022181034088,1,,3,6,lightness,readingArea,realistic,75,2023-03-18_14h11.44.209,tripletExp_regina_11082022,2022.2.4,120.59216409006092,
2,8,3,0,0.25,0.298245614035088,0,0.25,1.0,0,0.444444444444444,0.298245614035088,ReadingArea_rsl0-rcl25-esl29-rsm0-rcm25-esm100-rsr0-rcr44-esr29,exr/ReadingArea_rsl0-rcl25-esl29-rsm0-rcm25-esm100-rsr0-rcr44-esr29.exr,ReadingArea_rsl0-rcl25-esl29-rsm0-rcm25-esm100-rsr0-rcr44-esr29.npz,,,,,0,50,50,568,,right,red,1.09,285.60304713249207,286.0804560184479,1,,3,6,lightness,readingArea,realistic,75,2023-03-18_14h11.44.209,tripletExp_regina_11082022,2022.2.4,120.59216409006092,
2,1,10,0,0.25,0.298245614035088,0,0.111111111111111,0.298245614035088,0,0.694444444444444,1.0,ReadingArea_rsl0-rcl25-esl29-rsm0-rcm11-esm29-rsr0-rcr69-esr100,exr/ReadingArea_rsl0-rcl25-esl29-rsm0-rcm11-esm29-rsr0-rcr69-esr100.exr,ReadingArea_rsl0-rcl25-esl29-rsm0-rcm11-esm29-rsr0-rcr69-esr100.npz,,,,,0,51,51,585,,left,green,1.17,287.80317211151123,288.24467611312866,1,,3,6,lightness,readingArea,realistic,75,2023-03-18_14h11.44.209,tripletExp_regina_11082022,2022.2.4,120.59216409006092,
5,14,4,0,1.0,0.298245614035088,0,0.25,3.10526315789474,0,0.694444444444444,0.298245614035088,ReadingArea_rsl0-rcl100-esl29-rsm0-rcm25-esm310-rsr0-rcr69-esr29,exr/ReadingArea_rsl0-rcl100-esl29-rsm0-rcm25-esm310-rsr0-rcr69-esr29.exr,ReadingArea_rsl0-rcl100-esl29-rsm0-rcm25-esm310-rsr0-rcr69-esr29.npz,,,,,0,52,52,69,,left,green,1.24,289.9686110019684,290.3819491863251,1,,3,6,lightness,readingArea,realistic,75,2023-03-18_14h11.44.209,tripletExp_regina_11082022,2022.2.4,120.59216409006092,
2,11,7,0,0.25,0.298245614035088,0,1.0,1.0,0,0.111111111111111,1.0,ReadingArea_rsl0-rcl25-esl29-rsm0-rcm100-esm100-rsr0-rcr11-esr100,exr/ReadingArea_rsl0-rcl25-esl29-rsm0-rcm100-esm100-rsr0-rcr11-esr100.exr,ReadingArea_rsl0-rcl25-esl29-rsm0-rcm100-esm100-rsr0-rcr11-esr100.npz,,,,,0,53,53,576,,right,red,1.35,292.07481598854065,292.57118916511536,1,,3,6,lightness,readingArea,realistic,75,2023-03-18_14h11.44.209,tripletExp_regina_11082022,2022.2.4,120.59216409006092,
4,14,12,0,0.694444444444444,0.298245614035088,0,0.25,3.10526315789474,0,0.027777777777778,3.10526315789474,ReadingArea_rsl0-rcl69-esl29-rsm0-rcm25-esm310-rsr0-rcr2-esr310,exr/ReadingArea_rsl0-rcl69-esl29-rsm0-rcm25-esm310-rsr0-rcr2-esr310.exr,ReadingArea_rsl0-rcl69-esl29-rsm0-rcm25-esm310-rsr0-rcr2-esr310.npz,,,,,0,54,54,392,,left,green,1.1,294.28976917266846,294.7236649990082,1,,3,6,lightness,readingArea,realistic,75,2023-03-18_14h11.44.209,tripletExp_regina_11082022,2022.2.4,120.59216409006092,
14,2,0,0,0.25,3.10526315789474,0,0.25,0.298245614035088,0,0.027777777777778,0.298245614035088,ReadingArea_rsl0-rcl25-esl310-rsm0-rcm25-esm29-rsr0-rcr2-esr29,exr/ReadingArea_rsl0-rcl25-esl310-rsm0-rcm25-esm29-rsr0-rcr2-esr29.exr,ReadingArea_rsl0-rcl25-esl310-rsm0-rcm25-esm29-rsr0-rcr2-esr29.npz,,,,,0,55,55,460,,left,green,2.8,298.2059020996094,,1,,3,6,lightness,readingArea,realistic,75,2023-03-18_14h11.44.209,tripletExp_regina_11082022,2022.2.4,120.59216409006092,
14,11,3,0,0.25,3.10526315789474,0,1.0,1.0,0,0.444444444444444,0.298245614035088,ReadingArea_rsl0-rcl25-esl310-rsm0-rcm100-esm100-rsr0-rcr44-esr29,exr/ReadingArea_rsl0-rcl25-esl310-rsm0-rcm100-esm100-rsr0-rcr44-esr29.exr,ReadingArea_rsl0-rcl25-esl310-rsm0-rcm100-esm100-rsr0-rcr44-esr29.npz,,,,,0,56,56,78,,left,green,0.82,300.3572599887848,300.7923321723938,1,,3,6,lightness,readingArea,realistic,75,2023-03-18_14h11.44.209,tripletExp_regina_11082022,2022.2.4,120.59216409006092,
14,9,12,0,0.25,3.10526315789474,0,0.444444444444444,1.0,0,0.027777777777778,3.10526315789474,ReadingArea_rsl0-rcl25-esl310-rsm0-rcm44-esm100-rsr0-rcr2-esr310,exr/ReadingArea_rsl0-rcl25-esl310-rsm0-rcm44-esm100-rsr0-rcr2-esr310.exr,ReadingArea_rsl0-rcl25-esl310-rsm0-rcm44-esm100-rsr0-rcr2-esr310.npz,,,,,0,57,57,378,,left,green,1.67,302.5111680030823,303.0304911136627,1,,3,6,lightness,readingArea,realistic,75,2023-03-18_14h11.44.209,tripletExp_regina_11082022,2022.2.4,120.59216409006092,
5,11,8,0,1.0,0.298245614035088,0,1.0,1.0,0,0.25,1.0,ReadingArea_rsl0-rcl100-esl29-rsm0-rcm100-esm100-rsr0-rcr25-esr100,exr/ReadingArea_rsl0-rcl100-esl29-rsm0-rcm100-esm100-rsr0-rcr25-esr100.exr,ReadingArea_rsl0-rcl100-esl29-rsm0-rcm100-esm100-rsr0-rcr25-esr100.npz,,,,,0,58,58,548,,left,green,3.1,306.48498010635376,306.9325439929962,1,,3,6,lightness,readingArea,realistic,75,2023-03-18_14h11.44.209,tripletExp_regina_11082022,2022.2.4,120.59216409006092,
14,0,6,0,0.25,3.10526315789474,0,0.027777777777778,0.298245614035088,0,0.027777777777778,1.0,ReadingArea_rsl0-rcl25-esl310-rsm0-rcm2-esm29-rsr0-rcr2-esr100,exr/ReadingArea_rsl0-rcl25-esl310-rsm0-rcm2-esm29-rsr0-rcr2-esr100.exr,ReadingArea_rsl0-rcl25-esl310-rsm0-rcm2-esm29-rsr0-rcr2-esr100.npz,,,,,0,59,59,496,,right,red,0.95,308.6451020240784,309.11093497276306,1,,3,6,lightness,readingArea,realistic,75,2023-03-18_14h11.44.209,tripletExp_regina_11082022,2022.2.4,120.59216409006092,
10,8,11,0,0.694444444444444,1.0,0,0.25,1.0,0,1.0,1.0,ReadingArea_rsl0-rcl69-esl100-rsm0-rcm25-esm100-rsr0-rcr100-esr100,exr/ReadingArea_rsl0-rcl69-esl100-rsm0-rcm25-esm100-rsr0-rcr100-esr100.exr,ReadingArea_rsl0-rcl69-esl100-rsm0-rcm25-esm100-rsr0-rcr100-esr100.npz,,,,,0,60,60,578,,left,green,1.81,310.83061599731445,311.2664670944214,1,,3,6,lightness,readingArea,realistic,75,2023-03-18_14h11.44.209,tripletExp_regina_11082022,2022.2.4,120.59216409006092,
4,3,10,0,0.694444444444444,0.298245614035088,0,0.444444444444444,0.298245614035088,0,0.694444444444444,1.0,ReadingArea_rsl0-rcl69-esl29-rsm0-rcm44-esm29-rsr0-rcr69-esr100,exr/ReadingArea_rsl0-rcl69-esl29-rsm0-rcm44-esm29-rsr0-rcr69-esr100.exr,ReadingArea_rsl0-rcl69-esl29-rsm0-rcm44-esm29-rsr0-rcr69-esr100.npz,,,,,0,61,61,371,,left,green,0.76,312.98709416389465,313.4012031555176,1,,3,6,lightness,readingArea,realistic,75,2023-03-18_14h11.44.209,tripletExp_regina_11082022,2022.2.4,120.59216409006092,
13,11,8,0,0.111111111111111,3.10526315789474,0,1.0,1.0,0,0.25,1.0,ReadingArea_rsl0-rcl11-esl310-rsm0-rcm100-esm100-rsr0-rcr25-esr100,exr/ReadingArea_rsl0-rcl11-esl310-rsm0-rcm100-esm100-rsr0-rcr25-esr100.exr,ReadingArea_rsl0-rcl11-esl310-rsm0-rcm100-esm100-rsr0-rcr25-esr100.npz,,,,,0,62,62,410,,right,red,3.33,316.88805103302,317.318825006485,1,,3,6,lightness,readingArea,realistic,75,2023-03-18_14h11.44.209,tripletExp_regina_11082022,2022.2.4,120.59216409006092,
1,2,12,0,0.111111111111111,0.298245614035088,0,0.25,0.298245614035088,0,0.027777777777778,3.10526315789474,ReadingArea_rsl0-rcl11-esl29-rsm0-rcm25-esm29-rsr0-rcr2-esr310,exr/ReadingArea_rsl0-rcl11-esl29-rsm0-rcm25-esm29-rsr0-rcr2-esr310.exr,ReadingArea_rsl0-rcl11-esl29-rsm0-rcm25-esm29-rsr0-rcr2-esr310.npz,,,,,0,63,63,229,,right,red,1.02,319.0272099971771,319.4561471939087,1,,3,6,lightness,readingArea,realistic,75,2023-03-18_14h11.44.209,tripletExp_regina_11082022,2022.2.4,120.59216409006092,
2,9,10,0,0.25,0.298245614035088,0,0.444444444444444,1.0,0,0.694444444444444,1.0,ReadingArea_rsl0-rcl25-esl29-rsm0-rcm44-esm100-rsr0-rcr69-esr100,exr/ReadingArea_rsl0-rcl25-esl29-rsm0-rcm44-esm100-rsr0-rcr69-esr100.exr,ReadingArea_rsl0-rcl25-esl29-rsm0-rcm44-esm100-rsr0-rcr69-esr100.npz,,,,,0,64,64,117,,right,red,2.33,322.9198331832886,323.4077501296997,1,,3,6,lightness,readingArea,realistic,75,2023-03-18_14h11.44.209,tripletExp_regina_11082022,2022.2.4,120.59216409006092,
13,8,5,0,0.111111111111111,3.10526315789474,0,0.25,1.0,0,1.0,0.298245614035088,ReadingArea_rsl0-rcl11-esl310-rsm0-rcm25-esm100-rsr0-rcr100-esr29,exr/ReadingArea_rsl0-rcl11-esl310-rsm0-rcm25-esm100-rsr0-rcr100-esr29.exr,ReadingArea_rsl0-rcl11-esl310-rsm0-rcm25-esm100-rsr0-rcr100-esr29.npz,,,,,0,65,65,209,,,red,2.33,328.61476397514343,329.08736300468445,1,328.2089081048965,3,6,lightness,readingArea,realistic,75,2023-03-18_14h11.44.209,tripletExp_regina_11082022,2022.2.4,120.59216409006092,
14,9,0,0,0.25,3.10526315789474,0,0.444444444444444,1.0,0,0.027777777777778,0.298245614035088,ReadingArea_rsl0-rcl25-esl310-rsm0-rcm44-esm100-rsr0-rcr2-esr29,exr/ReadingArea_rsl0-rcl25-esl310-rsm0-rcm44-esm100-rsr0-rcr2-esr29.exr,ReadingArea_rsl0-rcl25-esl310-rsm0-rcm44-esm100-rsr0-rcr2-esr29.npz,,,,,0,66,66,313,,left,green,0.82,330.8113679885864,,1,,3,6,lightness,readingArea,realistic,75,2023-03-18_14h11.44.209,tripletExp_regina_11082022,2022.2.4,120.59216409006092,
3,4,13,0,0.444444444444444,0.298245614035088,0,0.694444444444444,0.298245614035088,0,0.111111111111111,3.10526315789474,ReadingArea_rsl0-rcl44-esl29-rsm0-rcm69-esm29-rsr0-rcr11-esr310,exr/ReadingArea_rsl0-rcl44-esl29-rsm0-rcm69-esm29-rsr0-rcr11-esr310.exr,ReadingArea_rsl0-rcl44-esl29-rsm0-rcm69-esm29-rsr0-rcr11-esr310.npz,,,,,0,67,67,63,,right,red,1.81,332.97959303855896,333.3880250453949,1,,3,6,lightness,readingArea,realistic,75,2023-03-18_14h11.44.209,tripletExp_regina_11082022,2022.2.4,120.59216409006092,
3,6,11,0,0.444444444444444,0.298245614035088,0,0.027777777777778,1.0,0,1.0,1.0,ReadingArea_rsl0-rcl44-esl29-rsm0-rcm2-esm100-rsr0-rcr100-esr100,exr/ReadingArea_rsl0-rcl44-esl29-rsm0-rcm2-esm100-rsr0-rcr100-esr100.exr,ReadingArea_rsl0-rcl44-esl29-rsm0-rcm2-esm100-rsr0-rcr100-esr100.npz,,,,,0,68,68,155,,left,green,1.18,335.1018211841583,335.53184819221497,1,,3,6,lightness,readingArea,realistic,75,2023-03-18_14h11.44.209,tripletExp_regina_11082022,2022.2.4,120.59216409006092,
9,11,2,0,0.444444444444444,1.0,0,1.0,1.0,0,0.25,0.298245614035088,ReadingArea_rsl0-rcl44-esl100-rsm0-rcm100-esm100-rsr0-rcr25-esr29,exr/ReadingArea_rsl0-rcl44-esl100-rsm0-rcm100-esm100-rsr0-rcr25-esr29.exr,ReadingArea_rsl0-rcl44-esl100-rsm0-rcm100-esm100-rsr0-rcr25-esr29.npz,,,,,0,69,69,329,,left,green,1.06,337.23724007606506,,1,,3,6,lightness,readingArea,realistic,75,2023-03-18_14h11.44.209,tripletExp_regina_11082022,2022.2.4,120.59216409006092,
11,6,14,0,1.0,1.0,0,0.027777777777778,1.0,0,0.25,3.10526315789474,ReadingArea_rsl0-rcl100-esl100-rsm0-rcm2-esm100-rsr0-rcr25-esr310,exr/ReadingArea_rsl0-rcl100-esl100-rsm0-rcm2-esm100-rsr0-rcr25-esr310.exr,ReadingArea_rsl0-rcl100-esl100-rsm0-rcm2-esm100-rsr0-rcr25-esr310.npz,,,,,0,70,70,305,,right,red,1.31,339.37409710884094,339.7894661426544,1,,3,6,lightness,readingArea,realistic,75,2023-03-18_14h11.44.209,tripletExp_regina_11082022,2022.2.4,120.59216409006092,
8,12,4,0,0.25,1.0,0,0.027777777777778,3.10526315789474,0,0.694444444444444,0.298245614035088,ReadingArea_rsl0-rcl25-esl100-rsm0-rcm2-esm310-rsr0-rcr69-esr29,exr/ReadingArea_rsl0-rcl25-esl100-rsm0-rcm2-esm310-rsr0-rcr69-esr29.exr,ReadingArea_rsl0-rcl25-esl100-rsm0-rcm2-esm310-rsr0-rcr69-esr29.npz,,,,,0,71,71,30,,left,green,1.44,341.4951360225677,341.9685580730438,1,,3,6,lightness,readingArea,realistic,75,2023-03-18_14h11.44.209,tripletExp_regina_11082022,2022.2.4,120.59216409006092,
0,5,7,0,0.027777777777778,0.298245614035088,0,1.0,0.298245614035088,0,0.111111111111111,1.0,ReadingArea_rsl0-rcl2-esl29-rsm0-rcm100-esm29-rsr0-rcr11-esr100,exr/ReadingArea_rsl0-rcl2-esl29-rsm0-rcm100-esm29-rsr0-rcr11-esr100.exr,ReadingArea_rsl0-rcl2-esl29-rsm0-rcm100-esm29-rsr0-rcr11-esr100.npz,,,,,0,72,72,217,,right,red,1.04,343.6842620372772,344.11858916282654,1,,3,6,lightness,readingArea,realistic,75,2023-03-18_14h11.44.209,tripletExp_regina_11082022,2022.2.4,120.59216409006092,
3,13,10,0,0.444444444444444,0.298245614035088,0,0.111111111111111,3.10526315789474,0,0.694444444444444,1.0,ReadingArea_rsl0-rcl44-esl29-rsm0-rcm11-esm310-rsr0-rcr69-esr100,exr/ReadingArea_rsl0-rcl44-esl29-rsm0-rcm11-esm310-rsr0-rcr69-esr100.exr,ReadingArea_rsl0-rcl44-esl29-rsm0-rcm11-esm310-rsr0-rcr69-esr100.npz,,,,,0,73,73,416,,left,green,0.96,345.8438210487366,346.2602219581604,1,,3,6,lightness,readingArea,realistic,75,2023-03-18_14h11.44.209,tripletExp_regina_11082022,2022.2.4,120.59216409006092,
3,4,0,0,0.444444444444444,0.298245614035088,0,0.694444444444444,0.298245614035088,0,0.027777777777778,0.298245614035088,ReadingArea_rsl0-rcl44-esl29-rsm0-rcm69-esm29-rsr0-rcr2-esr29,exr/ReadingArea_rsl0-rcl44-esl29-rsm0-rcm69-esm29-rsr0-rcr2-esr29.exr,ReadingArea_rsl0-rcl44-esl29-rsm0-rcm69-esm29-rsr0-rcr2-esr29.npz,,,,,0,74,74,130,,left,green,0.76,347.9525589942932,348.15403008461,1,,3,6,lightness,readingArea,realistic,75,2023-03-18_14h11.44.209,tripletExp_regina_11082022,2022.2.4,120.59216409006092,
3,14,10,0,0.444444444444444,0.298245614035088,0,0.25,3.10526315789474,0,0.694444444444444,1.0,ReadingArea_rsl0-rcl44-esl29-rsm0-rcm25-esm310-rsr0-rcr69-esr100,exr/ReadingArea_rsl0-rcl44-esl29-rsm0-rcm25-esm310-rsr0-rcr69-esr100.exr,ReadingArea_rsl0-rcl44-esl29-rsm0-rcm25-esm310-rsr0-rcr69-esr100.npz,,,,,0,75,75,279,,right,red,0.98,351.2306401729584,,2,,3,6,lightness,readingArea,realistic,75,2023-03-18_14h11.44.209,tripletExp_regina_11082022,2022.2.4,120.59216409006092,
4,13,2,0,0.694444444444444,0.298245614035088,0,0.111111111111111,3.10526315789474,0,0.25,0.298245614035088,ReadingArea_rsl0-rcl69-esl29-rsm0-rcm11-esm310-rsr0-rcr25-esr29,exr/ReadingArea_rsl0-rcl69-esl29-rsm0-rcm11-esm310-rsr0-rcr25-esr29.exr,ReadingArea_rsl0-rcl69-esl29-rsm0-rcm11-esm310-rsr0-rcr25-esr29.npz,,,,,0,76,76,592,,left,green,0.99,353.35477209091187,353.7938210964203,2,,3,6,lightness,readingArea,realistic,75,2023-03-18_14h11.44.209,tripletExp_regina_11082022,2022.2.4,120.59216409006092,
0,8,7,0,0.027777777777778,0.298245614035088,0,0.25,1.0,0,0.111111111111111,1.0,ReadingArea_rsl0-rcl2-esl29-rsm0-rcm25-esm100-rsr0-rcr11-esr100,exr/ReadingArea_rsl0-rcl2-esl29-rsm0-rcm25-esm100-rsr0-rcr11-esr100.exr,ReadingArea_rsl0-rcl2-esl29-rsm0-rcm25-esm100-rsr0-rcr11-esr100.npz,,,,,0,77,77,9,,right,red,0.76,355.4938759803772,355.9365441799164,2,,3,6,lightness,readingArea,realistic,75,2023-03-18_14h11.44.209,tripletExp_regina_11082022,2022.2.4,120.59216409006092,
7,4,1,0,0.111111111111111,1.0,0,0.694444444444444,0.298245614035088,0,0.111111111111111,0.298245614035088,ReadingArea_rsl0-rcl11-esl100-rsm0-rcm69-esm29-rsr0-rcr11-esr29,exr/ReadingArea_rsl0-rcl11-esl100-rsm0-rcm69-esm29-rsr0-rcr11-esr29.exr,ReadingArea_rsl0-rcl11-esl100-rsm0-rcm69-esm29-rsr0-rcr11-esr29.npz,,,,,0,78,78,369,,left,green,0.79,357.63637113571167,358.0565221309662,2,,3,6,lightness,readingArea,realistic,75,2023-03-18_14h11.44.209,tripletExp_regina_11082022,2022.2.4,120.59216409006092,
10,5,2,0,0.694444444444444,1.0,0,1.0,0.298245614035088,0,0.25,0.298245614035088,ReadingArea_rsl0-rcl69-esl100-rsm0-rcm100-esm29-rsr0-rcr25-esr29,exr/ReadingArea_rsl0-rcl69-esl100-rsm0-rcm100-esm29-rsr0-rcr25-esr29.exr,ReadingArea_rsl0-rcl69-esl100-rsm0-rcm100-esm29-rsr0-rcr25-esr29.npz,,,,,0,79,79,299,,left,green,0.8,359.7585310935974,360.1674530506134,2,,3,6,lightness,readingArea,realistic,75,2023-03-18_14h11.44.209,tripletExp_regina_11082022,2022.2.4,120.59216409006092,
10,0,3,0,0.694444444444444,1.0,0,0.027777777777778,0.298245614035088,0,0.444444444444444,0.298245614035088,ReadingArea_rsl0-rcl69-esl100-rsm0-rcm2-esm29-rsr0-rcr44-esr29,exr/ReadingArea_rsl0-rcl69-esl100-rsm0-rcm2-esm29-rsr0-rcr44-esr29.exr,ReadingArea_rsl0-rcl69-esl100-rsm0-rcm2-esm29-rsr0-rcr44-esr29.npz,,,,,0,80,80,87,,right,red,0.94,361.883465051651,362.3209471702576,2,,3,6,lightness,readingArea,realistic,75,2023-03-18_14h11.44.209,tripletExp_regina_11082022,2022.2.4,120.59216409006092,
4,12,6,0,0.694444444444444,0.298245614035088,0,0.027777777777778,3.10526315789474,0,0.027777777777778,1.0,ReadingArea_rsl0-rcl69-esl29-rsm0-rcm2-esm310-rsr0-rcr2-esr100,exr/ReadingArea_rsl0-rcl69-esl29-rsm0-rcm2-esm310-rsr0-rcr2-esr100.exr,ReadingArea_rsl0-rcl69-esl29-rsm0-rcm2-esm310-rsr0-rcr2-esr100.npz,,,,,0,81,81,99,,left,green,3.83,367.55692410469055,368.0853950977325,2,,3,6,lightness,readingArea,realistic,75,2023-03-18_14h11.44.209,tripletExp_regina_11082022,2022.2.4,120.59216409006092,
1,14,5,0,0.111111111111111,0.298245614035088,0,0.25,3.10526315789474,0,1.0,0.298245614035088,ReadingArea_rsl0-rcl11-esl29-rsm0-rcm25-esm310-rsr0-rcr100-esr29,exr/ReadingArea_rsl0-rcl11-esl29-rsm0-rcm25-esm310-rsr0-rcr100-esr29.exr,ReadingArea_rsl0-rcl11-esl29-rsm0-rcm25-esm310-rsr0-rcr100-esr29.npz,,,,,0,82,82,509,,right,red,0.87,369.7765460014343,370.20926904678345,2,,3,6,lightness,readingArea,realistic,75,2023-03-18_14h11.44.209,tripletExp_regina_11082022,2022.2.4,120.59216409006092,
1,10,11,0,0.111111111111111,0.298245614035088,0,0.694444444444444,1.0,0,1.0,1.0,ReadingArea_rsl0-rcl11-esl29-rsm0-rcm69-esm100-rsr0-rcr100-esr100,exr/ReadingArea_rsl0-rcl11-esl29-rsm0-rcm69-esm100-rsr0-rcr100-esr100.exr,ReadingArea_rsl0-rcl11-esl29-rsm0-rcm69-esm100-rsr0-rcr100-esr100.npz,,,,,0,83,83,483,,right,red,0.63,371.91099405288696,372.3347461223602,2,,3,6,lightness,readingArea,realistic,75,2023-03-18_14h11.44.209,tripletExp_regina_11082022,2022.2.4,120.59216409006092,
5,2,8,0,1.0,0.298245614035088,0,0.25,0.298245614035088,0,0.25,1.0,ReadingArea_rsl0-rcl100-esl29-rsm0-rcm25-esm29-rsr0-rcr25-esr100,exr/ReadingArea_rsl0-rcl100-esl29-rsm0-rcm25-esm29-rsr0-rcr25-esr100.exr,ReadingArea_rsl0-rcl100-esl29-rsm0-rcm25-esm29-rsr0-rcr25-esr100.npz,,,,,0,84,84,538,,right,red,3.34,375.8227550983429,376.247584104538,2,,3,6,lightness,readingArea,realistic,75,2023-03-18_14h11.44.209,tripletExp_regina_11082022,2022.2.4,120.59216409006092,
9,0,11,0,0.444444444444444,1.0,0,0.027777777777778,0.298245614035088,0,1.0,1.0,ReadingArea_rsl0-rcl44-esl100-rsm0-rcm2-esm29-rsr0-rcr100-esr100,exr/ReadingArea_rsl0-rcl44-esl100-rsm0-rcm2-esm29-rsr0-rcr100-esr100.exr,ReadingArea_rsl0-rcl44-esl100-rsm0-rcm2-esm29-rsr0-rcr100-esr100.npz,,,,,0,85,85,319,,left,green,1.32,377.9406681060791,378.3948051929474,2,,3,6,lightness,readingArea,realistic,75,2023-03-18_14h11.44.209,tripletExp_regina_11082022,2022.2.4,120.59216409006092,
14,5,9,0,0.25,3.10526315789474,0,1.0,0.298245614035088,0,0.444444444444444,1.0,ReadingArea_rsl0-rcl25-esl310-rsm0-rcm100-esm29-rsr0-rcr44-esr100,exr/ReadingArea_rsl0-rcl25-esl310-rsm0-rcm100-esm29-rsr0-rcr44-esr100.exr,ReadingArea_rsl0-rcl25-esl310-rsm0-rcm100-esm29-rsr0-rcr44-esr100.npz,,,,,0,86,86,482,,right,red,1.43,380.1048030853272,380.5422420501709,2,,3,6,lightness,readingArea,realistic,75,2023-03-18_14h11.44.209,tripletExp_regina_11082022,2022.2.4,120.59216409006092,
0,5,6,0,0.027777777777778,0.298245614035088,0,1.0,0.298245614035088,0,0.027777777777778,1.0,ReadingArea_rsl0-rcl2-esl29-rsm0-rcm100-esm29-rsr0-rcr2-esr100,exr/ReadingArea_rsl0-rcl2-esl29-rsm0-rcm100-esm29-rsr0-rcr2-esr100.exr,ReadingArea_rsl0-rcl2-esl29-rsm0-rcm100-esm29-rsr0-rcr2-esr100.npz,,,,,0,87,87,374,,right,red,1.2,382.2359900474548,,2,,3,6,lightness,readingArea,realistic,75,2023-03-18_14h11.44.209,tripletExp_regina_11082022,2022.2.4,120.59216409006092,
7,12,3,0,0.111111111111111,1.0,0,0.027777777777778,3.10526315789474,0,0.444444444444444,0.298245614035088,ReadingArea_rsl0-rcl11-esl100-rsm0-rcm2-esm310-rsr0-rcr44-esr29,exr/ReadingArea_rsl0-rcl11-esl100-rsm0-rcm2-esm310-rsr0-rcr44-esr29.exr,ReadingArea_rsl0-rcl11-esl100-rsm0-rcm2-esm310-rsr0-rcr44-esr29.npz,,,,,0,88,88,584,,left,green,3.14,386.1515519618988,386.6016290187836,2,,3,6,lightness,readingArea,realistic,75,2023-03-18_14h11.44.209,tripletExp_regina_11082022,2022.2.4,120.59216409006092,
7,4,6,0,0.111111111111111,1.0,0,0.694444444444444,0.298245614035088,0,0.027777777777778,1.0,ReadingArea_rsl0-rcl11-esl100-rsm0-rcm69-esm29-rsr0-rcr2-esr100,exr/ReadingArea_rsl0-rcl11-esl100-rsm0-rcm69-esm29-rsr0-rcr2-esr100.exr,ReadingArea_rsl0-rcl11-esl100-rsm0-rcm69-esm29-rsr0-rcr2-esr100.npz,,,,,0,89,89,528,,left,green,1.06,388.294517993927,388.8672721385956,2,,3,6,lightness,readingArea,realistic,75,2023-03-18_14h11.44.209,tripletExp_regina_11082022,2022.2.4,120.59216409006092,
1,10,7,0,0.111111111111111,0.298245614035088,0,0.694444444444444,1.0,0,0.111111111111111,1.0,ReadingArea_rsl0-rcl11-esl29-rsm0-rcm69-esm100-rsr0-rcr11-esr100,exr/ReadingArea_rsl0-rcl11-esl29-rsm0-rcm69-esm100-rsr0-rcr11-esr100.exr,ReadingArea_rsl0-rcl11-esl29-rsm0-rcm69-esm100-rsr0-rcr11-esr100.npz,,,,,0,90,90,94,,right,red,0.82,390.5648920536041,391.0070250034332,2,,3,6,lightness,readingArea,realistic,75,2023-03-18_14h11.44.209,tripletExp_regina_11082022,2022.2.4,120.59216409006092,
9,11,13,0,0.444444444444444,1.0,0,1.0,1.0,0,0.111111111111111,3.10526315789474,ReadingArea_rsl0-rcl44-esl100-rsm0-rcm100-esm100-rsr0-rcr11-esr310,exr/ReadingArea_rsl0-rcl44-esl100-rsm0-rcm100-esm100-rsr0-rcr11-esr310.exr,ReadingArea_rsl0-rcl44-esl100-rsm0-rcm100-esm100-rsr0-rcr11-esr310.npz,,,,,0,91,91,254,,left,green,1.47,392.7253611087799,393.13175415992737,2,,3,6,lightness,readingArea,realistic,75,2023-03-18_14h11.44.209,tripletExp_regina_11082022,2022.2.4,120.59216409006092,
0,13,12,0,0.027777777777778,0.298245614035088,0,0.111111111111111,3.10526315789474,0,0.027777777777778,3.10526315789474,ReadingArea_rsl0-rcl2-esl29-rsm0-rcm11-esm310-rsr0-rcr2-esr310,exr/ReadingArea_rsl0-rcl2-esl29-rsm0-rcm11-esm310-rsr0-rcr2-esr310.exr,ReadingArea_rsl0-rcl2-esl29-rsm0-rcm11-esm310-rsr0-rcr2-esr310.npz,,,,,0,92,92,501,,right,red,1.1,394.82196402549744,395.26472306251526,2,,3,6,lightness,readingArea,realistic,75,2023-03-18_14h11.44.209,tripletExp_regina_11082022,2022.2.4,120.59216409006092,
9,14,7,0,0.444444444444444,1.0,0,0.25,3.10526315789474,0,0.111111111111111,1.0,ReadingArea_rsl0-rcl44-esl100-rsm0-rcm25-esm310-rsr0-rcr11-esr100,exr/ReadingArea_rsl0-rcl44-esl100-rsm0-rcm25-esm310-rsr0-rcr11-esr100.exr,ReadingArea_rsl0-rcl44-esl100-rsm0-rcm25-esm310-rsr0-rcr11-esr100.npz,,,,,0,93,93,44,,left,green,0.88,396.9868130683899,397.3986551761627,2,,3,6,lightness,readingArea,realistic,75,2023-03-18_14h11.44.209,tripletExp_regina_11082022,2022.2.4,120.59216409006092,
4,5,8,0,0.694444444444444,0.298245614035088,0,1.0,0.298245614035088,0,0.25,1.0,ReadingArea_rsl0-rcl69-esl29-rsm0-rcm100-esm29-rsr0-rcr25-esr100,exr/ReadingArea_rsl0-rcl69-esl29-rsm0-rcm100-esm29-rsr0-rcr25-esr100.exr,ReadingArea_rsl0-rcl69-esl29-rsm0-rcm100-esm29-rsr0-rcr25-esr100.npz,,,,,0,94,94,54,,left,green,3.22,400.8738951683045,401.4855899810791,2,,3,6,lightness,readingArea,realistic,75,2023-03-18_14h11.44.209,tripletExp_regina_11082022,2022.2.4,120.59216409006092,
14,13,6,0,0.25,3.10526315789474,0,0.111111111111111,3.10526315789474,0,0.027777777777778,1.0,ReadingArea_rsl0-rcl25-esl310-rsm0-rcm11-esm310-rsr0-rcr2-esr100,exr/ReadingArea_rsl0-rcl25-esl310-rsm0-rcm11-esm310-rsr0-rcr2-esr100.exr,ReadingArea_rsl0-rcl25-esl310-rsm0-rcm11-esm310-rsr0-rcr2-esr100.npz,,,,,0,95,95,102,,left,green,0.98,403.1821789741516,403.6359100341797,2,,3,6,lightness,readingArea,realistic,75,2023-03-18_14h11.44.209,tripletExp_regina_11082022,2022.2.4,120.59216409006092,
9,11,6,0,0.444444444444444,1.0,0,1.0,1.0,0,0.027777777777778,1.0,ReadingArea_rsl0-rcl44-esl100-rsm0-rcm100-esm100-rsr0-rcr2-esr100,exr/ReadingArea_rsl0-rcl44-esl100-rsm0-rcm100-esm100-rsr0-rcr2-esr100.exr,ReadingArea_rsl0-rcl44-esl100-rsm0-rcm100-esm100-rsr0-rcr2-esr100.npz,,,,,0,96,96,404,,left,green,1.09,405.3246350288391,405.9469690322876,2,,3,6,lightness,readingArea,realistic,75,2023-03-18_14h11.44.209,tripletExp_regina_11082022,2022.2.4,120.59216409006092,
14,7,8,0,0.25,3.10526315789474,0,0.111111111111111,1.0,0,0.25,1.0,ReadingArea_rsl0-rcl25-esl310-rsm0-rcm11-esm100-rsr0-rcr25-esr100,exr/ReadingArea_rsl0-rcl25-esl310-rsm0-rcm11-esm100-rsr0-rcr25-esr100.exr,ReadingArea_rsl0-rcl25-esl310-rsm0-rcm11-esm100-rsr0-rcr25-esr100.npz,,,,,0,97,97,326,,right,red,1.22,407.6399841308594,408.08529114723206,2,,3,6,lightness,readingArea,realistic,75,2023-03-18_14h11.44.209,tripletExp_regina_11082022,2022.2.4,120.59216409006092,
1,5,7,0,0.111111111111111,0.298245614035088,0,1.0,0.298245614035088,0,0.111111111111111,1.0,ReadingArea_rsl0-rcl11-esl29-rsm0-rcm100-esm29-rsr0-rcr11-esr100,exr/ReadingArea_rsl0-rcl11-esl29-rsm0-rcm100-esm29-rsr0-rcr11-esr100.exr,ReadingArea_rsl0-rcl11-esl29-rsm0-rcm100-esm29-rsr0-rcr11-esr100.npz,,,,,0,98,98,197,,right,red,1.38,409.8084280490875,410.22623896598816,2,,3,6,lightness,readingArea,realistic,75,2023-03-18_14h11.44.209,tripletExp_regina_11082022,2022.2.4,120.59216409006092,
10,0,14,0,0.694444444444444,1.0,0,0.027777777777778,0.298245614035088,0,0.25,3.10526315789474,ReadingArea_rsl0-rcl69-esl100-rsm0-rcm2-esm29-rsr0-rcr25-esr310,exr/ReadingArea_rsl0-rcl69-esl100-rsm0-rcm2-esm29-rsr0-rcr25-esr310.exr,ReadingArea_rsl0-rcl69-esl100-rsm0-rcm2-esm29-rsr0-rcr25-esr310.npz,,,,,0,99,99,95,,left,green,3.1,413.7033460140228,414.1401000022888,2,,3,6,lightness,readingArea,realistic,75,2023-03-18_14h11.44.209,tripletExp_regina_11082022,2022.2.4,120.59216409006092,
10,7,11,0,0.694444444444444,1.0,0,0.111111111111111,1.0,0,1.0,1.0,ReadingArea_rsl0-rcl69-esl100-rsm0-rcm11-esm100-rsr0-rcr100-esr100,exr/ReadingArea_rsl0-rcl69-esl100-rsm0-rcm11-esm100-rsr0-rcr100-esr100.exr,ReadingArea_rsl0-rcl69-esl100-rsm0-rcm11-esm100-rsr0-rcr100-esr100.npz,,,,,0,100,100,542,,left,green,1.59,415.8328320980072,,2,,3,6,lightness,readingArea,realistic,75,2023-03-18_14h11.44.209,tripletExp_regina_11082022,2022.2.4,120.59216409006092,
5,14,11,0,1.0,0.298245614035088,0,0.25,3.10526315789474,0,1.0,1.0,ReadingArea_rsl0-rcl100-esl29-rsm0-rcm25-esm310-rsr0-rcr100-esr100,exr/ReadingArea_rsl0-rcl100-esl29-rsm0-rcm25-esm310-rsr0-rcr100-esr100.exr,ReadingArea_rsl0-rcl100-esl29-rsm0-rcm25-esm310-rsr0-rcr100-esr100.npz,,,,,0,101,101,98,,left,green,1.46,417.97812008857727,418.3942821025848,2,,3,6,lightness,readingArea,realistic,75,2023-03-18_14h11.44.209,tripletExp_regina_11082022,2022.2.4,120.59216409006092,
13,1,4,0,0.111111111111111,3.10526315789474,0,0.111111111111111,0.298245614035088,0,0.694444444444444,0.298245614035088,ReadingArea_rsl0-rcl11-esl310-rsm0-rcm11-esm29-rsr0-rcr69-esr29,exr/ReadingArea_rsl0-rcl11-esl310-rsm0-rcm11-esm29-rsr0-rcr69-esr29.exr,ReadingArea_rsl0-rcl11-esl310-rsm0-rcm11-esm29-rsr0-rcr69-esr29.npz,,,,,0,102,102,396,,right,red,3.05,421.8528161048889,422.2932810783386,2,,3,6,lightness,readingArea,realistic,75,2023-03-18_14h11.44.209,tripletExp_regina_11082022,2022.2.4,120.59216409006092,
1,14,8,0,0.111111111111111,0.298245614035088,0,0.25,3.10526315789474,0,0.25,1.0,ReadingArea_rsl0-rcl11-esl29-rsm0-rcm25-esm310-rsr0-rcr25-esr100,exr/ReadingArea_rsl0-rcl11-esl29-rsm0-rcm25-esm310-rsr0-rcr25-esr100.exr,ReadingArea_rsl0-rcl11-esl29-rsm0-rcm25-esm310-rsr0-rcr25-esr100.npz,,,,,0,103,103,108,,right,red,1.22,423.99234318733215,,2,,3,6,lightness,readingArea,realistic,75,2023-03-18_14h11.44.209,tripletExp_regina_11082022,2022.2.4,120.59216409006092,
12,9,14,0,0.027777777777778,3.10526315789474,0,0.444444444444444,1.0,0,0.25,3.10526315789474,ReadingArea_rsl0-rcl2-esl310-rsm0-rcm44-esm100-rsr0-rcr25-esr310,exr/ReadingArea_rsl0-rcl2-esl310-rsm0-rcm44-esm100-rsr0-rcr25-esr310.exr,ReadingArea_rsl0-rcl2-esl310-rsm0-rcm44-esm100-rsr0-rcr25-esr310.npz,,,,,0,104,104,123,,right,red,1.37,426.1363179683685,426.57332396507263,2,,3,6,lightness,readingArea,realistic,75,2023-03-18_14h11.44.209,tripletExp_regina_11082022,2022.2.4,120.59216409006092,
2,11,5,0,0.25,0.298245614035088,0,1.0,1.0,0,1.0,0.298245614035088,ReadingArea_rsl0-rcl25-esl29-rsm0-rcm100-esm100-rsr0-rcr100-esr29,exr/ReadingArea_rsl0-rcl25-esl29-rsm0-rcm100-esm100-rsr0-rcr100-esr29.exr,ReadingArea_rsl0-rcl25-esl29-rsm0-rcm100-esm100-rsr0-rcr100-esr29.npz,,,,,0,105,105,491,,right,red,0.9,428.265524148941,428.6931641101837,2,,3,6,lightness,readingArea,realistic,75,2023-03-18_14h11.44.209,tripletExp_regina_11082022,2022.2.4,120.59216409006092,
2,6,13,0,0.25,0.298245614035088,0,0.027777777777778,1.0,0,0.111111111111111,3.10526315789474,ReadingArea_rsl0-rcl25-esl29-rsm0-rcm2-esm100-rsr0-rcr11-esr310,exr/ReadingArea_rsl0-rcl25-esl29-rsm0-rcm2-esm100-rsr0-rcr11-esr310.exr,ReadingArea_rsl0-rcl25-esl29-rsm0-rcm2-esm100-rsr0-rcr11-esr310.npz,,,,,0,106,106,388,,left,green,0.83,430.38596510887146,430.89260816574097,2,,3,6,lightness,readingArea,realistic,75,2023-03-18_14h11.44.209,tripletExp_regina_11082022,2022.2.4,120.59216409006092,
10,1,13,0,0.694444444444444,1.0,0,0.111111111111111,0.298245614035088,0,0.111111111111111,3.10526315789474,ReadingArea_rsl0-rcl69-esl100-rsm0-rcm11-esm29-rsr0-rcr11-esr310,exr/ReadingArea_rsl0-rcl69-esl100-rsm0-rcm11-esm29-rsr0-rcr11-esr310.exr,ReadingArea_rsl0-rcl69-esl100-rsm0-rcm11-esm29-rsr0-rcr11-esr310.npz,,,,,0,107,107,45,,right,red,1.28,432.58346700668335,433.1980819702149,2,,3,6,lightness,readingArea,realistic,75,2023-03-18_14h11.44.209,tripletExp_regina_11082022,2022.2.4,120.59216409006092,
8,12,13,0,0.25,1.0,0,0.027777777777778,3.10526315789474,0,0.111111111111111,3.10526315789474,ReadingArea_rsl0-rcl25-esl100-rsm0-rcm2-esm310-rsr0-rcr11-esr310,exr/ReadingArea_rsl0-rcl25-esl100-rsm0-rcm2-esm310-rsr0-rcr11-esr310.exr,ReadingArea_rsl0-rcl25-esl100-rsm0-rcm2-esm310-rsr0-rcr11-esr310.npz,,,,,0,108,108,275,,left,green,1.46,434.9071261882782,435.3416571617127,2,,3,6,lightness,readingArea,realistic,75,2023-03-18_14h11.44.209,tripletExp_regina_11082022,2022.2.4,120.59216409006092,
13,8,14,0,0.111111111111111,3.10526315789474,0,0.25,1.0,0,0.25,3.10526315789474,ReadingArea_rsl0-rcl11-esl310-rsm0-rcm25-esm100-rsr0-rcr25-esr310,exr/ReadingArea_rsl0-rcl11-esl310-rsm0-rcm25-esm100-rsr0-rcr25-esr310.exr,ReadingArea_rsl0-rcl11-esl310-rsm0-rcm25-esm100-rsr0-rcr25-esr310.npz,,,,,0,109,109,345,,left,green,1.02,437.0583469867706,437.4960250854492,2,,3,6,lightness,readingArea,realistic,75,2023-03-18_14h11.44.209,tripletExp_regina_11082022,2022.2.4,120.59216409006092,
3,4,11,0,0.444444444444444,0.298245614035088,0,0.694444444444444,0.298245614035088,0,1.0,1.0,ReadingArea_rsl0-rcl44-esl29-rsm0-rcm69-esm29-rsr0-rcr100-esr100,exr/ReadingArea_rsl0-rcl44-esl29-rsm0-rcm69-esm29-rsr0-rcr100-esr100.exr,ReadingArea_rsl0-rcl44-esl29-rsm0-rcm69-esm29-rsr0-rcr100-esr100.npz,,,,,0,110,110,207,,left,green,0.85,439.20794701576233,439.62644505500793,2,,3,6,lightness,readingArea,realistic,75,2023-03-18_14h11.44.209,tripletExp_regina_11082022,2022.2.4,120.59216409006092,
1,4,7,0,0.111111111111111,0.298245614035088,0,0.694444444444444,0.298245614035088,0,0.111111111111111,1.0,ReadingArea_rsl0-rcl11-esl29-rsm0-rcm69-esm29-rsr0-rcr11-esr100,exr/ReadingArea_rsl0-rcl11-esl29-rsm0-rcm69-esm29-rsr0-rcr11-esr100.exr,ReadingArea_rsl0-rcl11-esl29-rsm0-rcm69-esm29-rsr0-rcr11-esr100.npz,,,,,0,111,111,522,,right,red,0.94,441.3418531417847,441.7761809825897,2,,3,6,lightness,readingArea,realistic,75,2023-03-18_14h11.44.209,tripletExp_regina_11082022,2022.2.4,120.59216409006092,
4,1,9,0,0.694444444444444,0.298245614035088,0,0.111111111111111,0.298245614035088,0,0.444444444444444,1.0,ReadingArea_rsl0-rcl69-esl29-rsm0-rcm11-esm29-rsr0-rcr44-esr100,exr/ReadingArea_rsl0-rcl69-esl29-rsm0-rcm11-esm29-rsr0-rcr44-esr100.exr,ReadingArea_rsl0-rcl69-esl29-rsm0-rcm11-esm29-rsr0-rcr44-esr100.npz,,,,,0,112,112,7,,left,green,1.17,443.4979901313782,443.9225950241089,2,,3,6,lightness,readingArea,realistic,75,2023-03-18_14h11.44.209,tripletExp_regina_11082022,2022.2.4,120.59216409006092,
5,14,8,0,1.0,0.298245614035088,0,0.25,3.10526315789474,0,0.25,1.0,ReadingArea_rsl0-rcl100-esl29-rsm0-rcm25-esm310-rsr0-rcr25-esr100,exr/ReadingArea_rsl0-rcl100-esl29-rsm0-rcm25-esm310-rsr0-rcr25-esr100.exr,ReadingArea_rsl0-rcl100-esl29-rsm0-rcm25-esm310-rsr0-rcr25-esr100.npz,,,,,0,113,113,14,,left,green,1.53,445.61145210266113,446.0475311279297,2,,3,6,lightness,readingArea,realistic,75,2023-03-18_14h11.44.209,tripletExp_regina_11082022,2022.2.4,120.59216409006092,
3,7,0,0,0.444444444444444,0.298245614035088,0,0.111111111111111,1.0,0,0.027777777777778,0.298245614035088,ReadingArea_rsl0-rcl44-esl29-rsm0-rcm11-esm100-rsr0-rcr2-esr29,exr/ReadingArea_rsl0-rcl44-esl29-rsm0-rcm11-esm100-rsr0-rcr2-esr29.exr,ReadingArea_rsl0-rcl44-esl29-rsm0-rcm11-esm100-rsr0-rcr2-esr29.npz,,,,,0,114,114,327,,left,green,3.27,449.49642300605774,,2,,3,6,lightness,readingArea,realistic,75,2023-03-18_14h11.44.209,tripletExp_regina_11082022,2022.2.4,120.59216409006092,
11,1,12,0,1.0,1.0,0,0.111111111111111,0.298245614035088,0,0.027777777777778,3.10526315789474,ReadingArea_rsl0-rcl100-esl100-rsm0-rcm11-esm29-rsr0-rcr2-esr310,exr/ReadingArea_rsl0-rcl100-esl100-rsm0-rcm11-esm29-rsr0-rcr2-esr310.exr,ReadingArea_rsl0-rcl100-esl100-rsm0-rcm11-esm29-rsr0-rcr2-esr310.npz,,,,,0,115,115,339,,right,red,0.97,451.72015714645386,452.1957230567932,2,,3,6,lightness,readingArea,realistic,75,2023-03-18_14h11.44.209,tripletExp_regina_11082022,2022.2.4,120.59216409006092,
10,12,9,0,0.694444444444444,1.0,0,0.027777777777778,3.10526315789474,0,0.444444444444444,1.0,ReadingArea_rsl0-rcl69-esl100-rsm0-rcm2-esm310-rsr0-rcr44-esr100,exr/ReadingArea_rsl0-rcl69-esl100-rsm0-rcm2-esm310-rsr0-rcr44-esr100.exr,ReadingArea_rsl0-rcl69-esl100-rsm0-rcm2-esm310-rsr0-rcr44-esr100.npz,,,,,0,116,116,405,,right,red,1.32,453.9171071052551,454.3598890304565,2,,3,6,lightness,readingArea,realistic,75,2023-03-18_14h11.44.209,tripletExp_regina_11082022,2022.2.4,120.59216409006092,
7,10,5,0,0.111111111111111,1.0,0,0.694444444444444,1.0,0,1.0,0.298245614035088,ReadingArea_rsl0-rcl11-esl100-rsm0-rcm69-esm100-rsr0-rcr100-esr29,exr/ReadingArea_rsl0-rcl11-esl100-rsm0-rcm69-esm100-rsr0-rcr100-esr29.exr,ReadingArea_rsl0-rcl11-esl100-rsm0-rcm69-esm100-rsr0-rcr100-esr29.npz,,,,,0,117,117,395,,right,red,0.84,456.0544400215149,456.5599269866944,2,,3,6,lightness,readingArea,realistic,75,2023-03-18_14h11.44.209,tripletExp_regina_11082022,2022.2.4,120.59216409006092,
5,8,3,0,1.0,0.298245614035088,0,0.25,1.0,0,0.444444444444444,0.298245614035088,ReadingArea_rsl0-rcl100-esl29-rsm0-rcm25-esm100-rsr0-rcr44-esr29,exr/ReadingArea_rsl0-rcl100-esl29-rsm0-rcm25-esm100-rsr0-rcr44-esr29.exr,ReadingArea_rsl0-rcl100-esl29-rsm0-rcm25-esm100-rsr0-rcr44-esr29.npz,,,,,0,118,118,556,,left,green,3.3,460.0321590900421,460.4803991317749,2,,3,6,lightness,readingArea,realistic,75,2023-03-18_14h11.44.209,tripletExp_regina_11082022,2022.2.4,120.59216409006092,
3,9,13,0,0.444444444444444,0.298245614035088,0,0.444444444444444,1.0,0,0.111111111111111,3.10526315789474,ReadingArea_rsl0-rcl44-esl29-rsm0-rcm44-esm100-rsr0-rcr11-esr310,exr/ReadingArea_rsl0-rcl44-esl29-rsm0-rcm44-esm100-rsr0-rcr11-esr310.exr,ReadingArea_rsl0-rcl44-esl29-rsm0-rcm44-esm100-rsr0-rcr11-esr310.npz,,,,,0,119,119,341,,right,red,1.31,462.1746201515198,462.633239030838,2,,3,6,lightness,readingArea,realistic,75,2023-03-18_14h11.44.209,tripletExp_regina_11082022,2022.2.4,120.59216409006092,
11,7,8,0,1.0,1.0,0,0.111111111111111,1.0,0,0.25,1.0,ReadingArea_rsl0-rcl100-esl100-rsm0-rcm11-esm100-rsr0-rcr25-esr100,exr/ReadingArea_rsl0-rcl100-esl100-rsm0-rcm11-esm100-rsr0-rcr25-esr100.exr,ReadingArea_rsl0-rcl100-esl100-rsm0-rcm11-esm100-rsr0-rcr25-esr100.npz,,,,,0,120,120,37,,right,red,0.9,464.3298389911652,464.76428413391113,2,,3,6,lightness,readingArea,realistic,75,2023-03-18_14h11.44.209,tripletExp_regina_11082022,2022.2.4,120.59216409006092,
14,6,7,0,0.25,3.10526315789474,0,0.027777777777778,1.0,0,0.111111111111111,1.0,ReadingArea_rsl0-rcl25-esl310-rsm0-rcm2-esm100-rsr0-rcr11-esr100,exr/ReadingArea_rsl0-rcl25-esl310-rsm0-rcm2-esm100-rsr0-rcr11-esr100.exr,ReadingArea_rsl0-rcl25-esl310-rsm0-rcm2-esm100-rsr0-rcr11-esr100.npz,,,,,0,121,121,306,,right,red,0.8,466.4575700759888,,2,,3,6,lightness,readingArea,realistic,75,2023-03-18_14h11.44.209,tripletExp_regina_11082022,2022.2.4,120.59216409006092,
13,7,11,0,0.111111111111111,3.10526315789474,0,0.111111111111111,1.0,0,1.0,1.0,ReadingArea_rsl0-rcl11-esl310-rsm0-rcm11-esm100-rsr0-rcr100-esr100,exr/ReadingArea_rsl0-rcl11-esl310-rsm0-rcm11-esm100-rsr0-rcr100-esr100.exr,ReadingArea_rsl0-rcl11-esl310-rsm0-rcm11-esm100-rsr0-rcr100-esr100.npz,,,,,0,122,122,121,,left,green,0.89,468.58190512657166,469.0181109905243,2,,3,6,lightness,readingArea,realistic,75,2023-03-18_14h11.44.209,tripletExp_regina_11082022,2022.2.4,120.59216409006092,
5,2,14,0,1.0,0.298245614035088,0,0.25,0.298245614035088,0,0.25,3.10526315789474,ReadingArea_rsl0-rcl100-esl29-rsm0-rcm25-esm29-rsr0-rcr25-esr310,exr/ReadingArea_rsl0-rcl100-esl29-rsm0-rcm25-esm29-rsr0-rcr25-esr310.exr,ReadingArea_rsl0-rcl100-esl29-rsm0-rcm25-esm29-rsr0-rcr25-esr310.npz,,,,,0,123,123,462,,left,green,0.71,470.7064290046692,471.1463191509247,2,,3,6,lightness,readingArea,realistic,75,2023-03-18_14h11.44.209,tripletExp_regina_11082022,2022.2.4,120.59216409006092,
7,0,3,0,0.111111111111111,1.0,0,0.027777777777778,0.298245614035088,0,0.444444444444444,0.298245614035088,ReadingArea_rsl0-rcl11-esl100-rsm0-rcm2-esm29-rsr0-rcr44-esr29,exr/ReadingArea_rsl0-rcl11-esl100-rsm0-rcm2-esm29-rsr0-rcr44-esr29.exr,ReadingArea_rsl0-rcl11-esl100-rsm0-rcm2-esm29-rsr0-rcr44-esr29.npz,,,,,0,124,124,237,,left,green,1.58,472.8680200576782,473.4088711738586,2,,3,6,lightness,readingArea,realistic,75,2023-03-18_14h11.44.209,tripletExp_regina_11082022,2022.2.4,120.59216409006092,
8,13,2,0,0.25,1.0,0,0.111111111111111,3.10526315789474,0,0.25,0.298245614035088,ReadingArea_rsl0-rcl25-esl100-rsm0-rcm11-esm310-rsr0-rcr25-esr29,exr/ReadingArea_rsl0-rcl25-esl100-rsm0-rcm11-esm310-rsr0-rcr25-esr29.exr,ReadingArea_rsl0-rcl25-esl100-rsm0-rcm11-esm310-rsr0-rcr25-esr29.npz,,,,,0,125,125,376,,left,green,1.27,475.1107511520386,475.5423519611359,2,,3,6,lightness,readingArea,realistic,75,2023-03-18_14h11.44.209,tripletExp_regina_11082022,2022.2.4,120.59216409006092,
11,7,13,0,1.0,1.0,0,0.111111111111111,1.0,0,0.111111111111111,3.10526315789474,ReadingArea_rsl0-rcl100-esl100-rsm0-rcm11-esm100-rsr0-rcr11-esr310,exr/ReadingArea_rsl0-rcl100-esl100-rsm0-rcm11-esm100-rsr0-rcr11-esr310.exr,ReadingArea_rsl0-rcl100-esl100-rsm0-rcm11-esm100-rsr0-rcr11-esr310.npz,,,,,0,126,126,431,,right,red,0.85,477.2455921173096,477.6740729808808,2,,3,6,lightness,readingArea,realistic,75,2023-03-18_14h11.44.209,tripletExp_regina_11082022,2022.2.4,120.59216409006092,
7,8,14,0,0.111111111111111,1.0,0,0.25,1.0,0,0.25,3.10526315789474,ReadingArea_rsl0-rcl11-esl100-rsm0-rcm25-esm100-rsr0-rcr25-esr310,exr/ReadingArea_rsl0-rcl11-esl100-rsm0-rcm25-esm100-rsr0-rcr25-esr310.exr,ReadingArea_rsl0-rcl11-esl100-rsm0-rcm25-esm100-rsr0-rcr25-esr310.npz,,,,,0,127,127,300,,left,green,3.02,481.1349160671234,481.7236230373383,2,,3,6,lightness,readingArea,realistic,75,2023-03-18_14h11.44.209,tripletExp_regina_11082022,2022.2.4,120.59216409006092,
13,1,3,0,0.111111111111111,3.10526315789474,0,0.111111111111111,0.298245614035088,0,0.444444444444444,0.298245614035088,ReadingArea_rsl0-rcl11-esl310-rsm0-rcm11-esm29-rsr0-rcr44-esr29,exr/ReadingArea_rsl0-rcl11-esl310-rsm0-rcm11-esm29-rsr0-rcr44-esr29.exr,ReadingArea_rsl0-rcl11-esl310-rsm0-rcm11-esm29-rsr0-rcr44-esr29.npz,,,,,0,128,128,588,,right,red,1.56,483.4351160526276,,2,,3,6,lightness,readingArea,realistic,75,2023-03-18_14h11.44.209,tripletExp_regina_11082022,2022.2.4,120.59216409006092,
13,0,9,0,0.111111111111111,3.10526315789474,0,0.027777777777778,0.298245614035088,0,0.444444444444444,1.0,ReadingArea_rsl0-rcl11-esl310-rsm0-rcm2-esm29-rsr0-rcr44-esr100,exr/ReadingArea_rsl0-rcl11-esl310-rsm0-rcm2-esm29-rsr0-rcr44-esr100.exr,ReadingArea_rsl0-rcl11-esl310-rsm0-rcm2-esm29-rsr0-rcr44-esr100.npz,,,,,0,129,129,373,,left,green,2.91,487.33769607543945,487.8905701637268,2,,3,6,lightness,readingArea,realistic,75,2023-03-18_14h11.44.209,tripletExp_regina_11082022,2022.2.4,120.59216409006092,
2,4,14,0,0.25,0.298245614035088,0,0.694444444444444,0.298245614035088,0,0.25,3.10526315789474,ReadingArea_rsl0-rcl25-esl29-rsm0-rcm69-esm29-rsr0-rcr25-esr310,exr/ReadingArea_rsl0-rcl25-esl29-rsm0-rcm69-esm29-rsr0-rcr25-esr310.exr,ReadingArea_rsl0-rcl25-esl29-rsm0-rcm69-esm29-rsr0-rcr25-esr310.npz,,,,,0,130,130,356,,left,green,3.19,491.3714561462402,491.831789970398,2,,3,6,lightness,readingArea,realistic,75,2023-03-18_14h11.44.209,tripletExp_regina_11082022,2022.2.4,120.59216409006092,
1,5,8,0,0.111111111111111,0.298245614035088,0,1.0,0.298245614035088,0,0.25,1.0,ReadingArea_rsl0-rcl11-esl29-rsm0-rcm100-esm29-rsr0-rcr25-esr100,exr/ReadingArea_rsl0-rcl11-esl29-rsm0-rcm100-esm29-rsr0-rcr25-esr100.exr,ReadingArea_rsl0-rcl11-esl29-rsm0-rcm100-esm29-rsr0-rcr25-esr100.npz,,,,,0,131,131,238,,right,red,0.89,493.5470089912415,494.0055279731751,2,,3,6,lightness,readingArea,realistic,75,2023-03-18_14h11.44.209,tripletExp_regina_11082022,2022.2.4,120.59216409006092,
6,5,13,0,0.027777777777778,1.0,0,1.0,0.298245614035088,0,0.111111111111111,3.10526315789474,ReadingArea_rsl0-rcl2-esl100-rsm0-rcm100-esm29-rsr0-rcr11-esr310,exr/ReadingArea_rsl0-rcl2-esl100-rsm0-rcm100-esm29-rsr0-rcr11-esr310.exr,ReadingArea_rsl0-rcl2-esl100-rsm0-rcm100-esm29-rsr0-rcr11-esr310.npz,,,,,0,132,132,450,,right,red,1.02,495.7239511013031,496.17059206962585,2,,3,6,lightness,readingArea,realistic,75,2023-03-18_14h11.44.209,tripletExp_regina_11082022,2022.2.4,120.59216409006092,
9,7,10,0,0.444444444444444,1.0,0,0.111111111111111,1.0,0,0.694444444444444,1.0,ReadingArea_rsl0-rcl44-esl100-rsm0-rcm11-esm100-rsr0-rcr69-esr100,exr/ReadingArea_rsl0-rcl44-esl100-rsm0-rcm11-esm100-rsr0-rcr69-esr100.exr,ReadingArea_rsl0-rcl44-esl100-rsm0-rcm11-esm100-rsr0-rcr69-esr100.npz,,,,,0,133,133,508,,left,green,2.69,499.6370360851288,500.14720702171326,2,,3,6,lightness,readingArea,realistic,75,2023-03-18_14h11.44.209,tripletExp_regina_11082022,2022.2.4,120.59216409006092,
9,11,3,0,0.444444444444444,1.0,0,1.0,1.0,0,0.444444444444444,0.298245614035088,ReadingArea_rsl0-rcl44-esl100-rsm0-rcm100-esm100-rsr0-rcr44-esr29,exr/ReadingArea_rsl0-rcl44-esl100-rsm0-rcm100-esm100-rsr0-rcr44-esr29.exr,ReadingArea_rsl0-rcl44-esl100-rsm0-rcm100-esm100-rsr0-rcr44-esr29.npz,,,,,0,134,134,348,,left,green,0.97,501.8695111274719,502.3137490749359,2,,3,6,lightness,readingArea,realistic,75,2023-03-18_14h11.44.209,tripletExp_regina_11082022,2022.2.4,120.59216409006092,
13,1,7,0,0.111111111111111,3.10526315789474,0,0.111111111111111,0.298245614035088,0,0.111111111111111,1.0,ReadingArea_rsl0-rcl11-esl310-rsm0-rcm11-esm29-rsr0-rcr11-esr100,exr/ReadingArea_rsl0-rcl11-esl310-rsm0-rcm11-esm29-rsr0-rcr11-esr100.exr,ReadingArea_rsl0-rcl11-esl310-rsm0-rcm11-esm29-rsr0-rcr11-esr100.npz,,,,,0,135,135,206,,right,red,1.55,504.0308561325073,504.4762201309204,2,,3,6,lightness,readingArea,realistic,75,2023-03-18_14h11.44.209,tripletExp_regina_11082022,2022.2.4,120.59216409006092,
0,4,12,0,0.027777777777778,0.298245614035088,0,0.694444444444444,0.298245614035088,0,0.027777777777778,3.10526315789474,ReadingArea_rsl0-rcl2-esl29-rsm0-rcm69-esm29-rsr0-rcr2-esr310,exr/ReadingArea_rsl0-rcl2-esl29-rsm0-rcm69-esm29-rsr0-rcr2-esr310.exr,ReadingArea_rsl0-rcl2-esl29-rsm0-rcm69-esm29-rsr0-rcr2-esr310.npz,,,,,0,136,136,150,,right,red,1.02,506.1863071918488,506.6219999790192,2,,3,6,lightness,readingArea,realistic,75,2023-03-18_14h11.44.209,tripletExp_regina_11082022,2022.2.4,120.59216409006092,
14,2,8,0,0.25,3.10526315789474,0,0.25,0.298245614035088,0,0.25,1.0,ReadingArea_rsl0-rcl25-esl310-rsm0-rcm25-esm29-rsr0-rcr25-esr100,exr/ReadingArea_rsl0-rcl25-esl310-rsm0-rcm25-esm29-rsr0-rcr25-esr100.exr,ReadingArea_rsl0-rcl25-esl310-rsm0-rcm25-esm29-rsr0-rcr25-esr100.npz,,,,,0,137,137,212,,right,red,1.06,508.3119111061096,508.75252509117126,2,,3,6,lightness,readingArea,realistic,75,2023-03-18_14h11.44.209,tripletExp_regina_11082022,2022.2.4,120.59216409006092,
8,0,6,0,0.25,1.0,0,0.027777777777778,0.298245614035088,0,0.027777777777778,1.0,ReadingArea_rsl0-rcl25-esl100-rsm0-rcm2-esm29-rsr0-rcr2-esr100,exr/ReadingArea_rsl0-rcl25-esl100-rsm0-rcm2-esm29-rsr0-rcr2-esr100.exr,ReadingArea_rsl0-rcl25-esl100-rsm0-rcm2-esm29-rsr0-rcr2-esr100.npz,,,,,0,138,138,401,,right,red,0.81,510.4435670375824,510.8578050136566,2,,3,6,lightness,readingArea,realistic,75,2023-03-18_14h11.44.209,tripletExp_regina_11082022,2022.2.4,120.59216409006092,
1,13,8,0,0.111111111111111,0.298245614035088,0,0.111111111111111,3.10526315789474,0,0.25,1.0,ReadingArea_rsl0-rcl11-esl29-rsm0-rcm11-esm310-rsr0-rcr25-esr100,exr/ReadingArea_rsl0-rcl11-esl29-rsm0-rcm11-esm310-rsr0-rcr25-esr100.exr,ReadingArea_rsl0-rcl11-esl29-rsm0-rcm11-esm310-rsr0-rcr25-esr100.npz,,,,,0,139,139,64,,right,red,1.42,512.5485210418701,512.9858360290527,2,,3,6,lightness,readingArea,realistic,75,2023-03-18_14h11.44.209,tripletExp_regina_11082022,2022.2.4,120.59216409006092,
11,2,4,0,1.0,1.0,0,0.25,0.298245614035088,0,0.694444444444444,0.298245614035088,ReadingArea_rsl0-rcl100-esl100-rsm0-rcm25-esm29-rsr0-rcr69-esr29,exr/ReadingArea_rsl0-rcl100-esl100-rsm0-rcm25-esm29-rsr0-rcr69-esr29.exr,ReadingArea_rsl0-rcl100-esl100-rsm0-rcm25-esm29-rsr0-rcr69-esr29.npz,,,,,0,140,140,359,,right,red,0.98,514.681715965271,,2,,3,6,lightness,readingArea,realistic,75,2023-03-18_14h11.44.209,tripletExp_regina_11082022,2022.2.4,120.59216409006092,
6,0,11,0,0.027777777777778,1.0,0,0.027777777777778,0.298245614035088,0,1.0,1.0,ReadingArea_rsl0-rcl2-esl100-rsm0-rcm2-esm29-rsr0-rcr100-esr100,exr/ReadingArea_rsl0-rcl2-esl100-rsm0-rcm2-esm29-rsr0-rcr100-esr100.exr,ReadingArea_rsl0-rcl2-esl100-rsm0-rcm2-esm29-rsr0-rcr100-esr100.npz,,,,,0,141,141,245,,left,green,0.89,516.8369801044464,517.253252029419,2,,3,6,lightness,readingArea,realistic,75,2023-03-18_14h11.44.209,tripletExp_regina_11082022,2022.2.4,120.59216409006092,
2,1,3,0,0.25,0.298245614035088,0,0.111111111111111,0.298245614035088,0,0.444444444444444,0.298245614035088,ReadingArea_rsl0-rcl25-esl29-rsm0-rcm11-esm29-rsr0-rcr44-esr29,exr/ReadingArea_rsl0-rcl25-esl29-rsm0-rcm11-esm29-rsr0-rcr44-esr29.exr,ReadingArea_rsl0-rcl25-esl29-rsm0-rcm11-esm29-rsr0-rcr44-esr29.npz,,,,,0,142,142,85,,left,green,1.39,518.9588279724121,519.4623880386353,2,,3,6,lightness,readingArea,realistic,75,2023-03-18_14h11.44.209,tripletExp_regina_11082022,2022.2.4,120.59216409006092,
11,7,12,0,1.0,1.0,0,0.111111111111111,1.0,0,0.027777777777778,3.10526315789474,ReadingArea_rsl0-rcl100-esl100-rsm0-rcm11-esm100-rsr0-rcr2-esr310,exr/ReadingArea_rsl0-rcl100-esl100-rsm0-rcm11-esm100-rsr0-rcr2-esr310.exr,ReadingArea_rsl0-rcl100-esl100-rsm0-rcm11-esm100-rsr0-rcr2-esr310.npz,,,,,0,143,143,352,,right,red,1.17,521.1816611289978,521.626412153244,2,,3,6,lightness,readingArea,realistic,75,2023-03-18_14h11.44.209,tripletExp_regina_11082022,2022.2.4,120.59216409006092,
0,14,6,0,0.027777777777778,0.298245614035088,0,0.25,3.10526315789474,0,0.027777777777778,1.0,ReadingArea_rsl0-rcl2-esl29-rsm0-rcm25-esm310-rsr0-rcr2-esr100,exr/ReadingArea_rsl0-rcl2-esl29-rsm0-rcm25-esm310-rsr0-rcr2-esr100.exr,ReadingArea_rsl0-rcl2-esl29-rsm0-rcm25-esm310-rsr0-rcr2-esr100.npz,,,,,0,144,144,499,,right,red,1.46,523.3208060264587,523.7368030548096,2,,3,6,lightness,readingArea,realistic,75,2023-03-18_14h11.44.209,tripletExp_regina_11082022,2022.2.4,120.59216409006092,
9,6,11,0,0.444444444444444,1.0,0,0.027777777777778,1.0,0,1.0,1.0,ReadingArea_rsl0-rcl44-esl100-rsm0-rcm2-esm100-rsr0-rcr100-esr100,exr/ReadingArea_rsl0-rcl44-esl100-rsm0-rcm2-esm100-rsr0-rcr100-esr100.exr,ReadingArea_rsl0-rcl44-esl100-rsm0-rcm2-esm100-rsr0-rcr100-esr100.npz,,,,,0,145,145,572,,left,green,1.23,525.4302141666412,525.877289056778,2,,3,6,lightness,readingArea,realistic,75,2023-03-18_14h11.44.209,tripletExp_regina_11082022,2022.2.4,120.59216409006092,
12,3,11,0,0.027777777777778,3.10526315789474,0,0.444444444444444,0.298245614035088,0,1.0,1.0,ReadingArea_rsl0-rcl2-esl310-rsm0-rcm44-esm29-rsr0-rcr100-esr100,exr/ReadingArea_rsl0-rcl2-esl310-rsm0-rcm44-esm29-rsr0-rcr100-esr100.exr,ReadingArea_rsl0-rcl2-esl310-rsm0-rcm44-esm29-rsr0-rcr100-esr100.npz,,,,,0,146,146,83,,left,green,1.01,527.586207151413,528.0275871753693,2,,3,6,lightness,readingArea,realistic,75,2023-03-18_14h11.44.209,tripletExp_regina_11082022,2022.2.4,120.59216409006092,
10,11,5,0,0.694444444444444,1.0,0,1.0,1.0,0,1.0,0.298245614035088,ReadingArea_rsl0-rcl69-esl100-rsm0-rcm100-esm100-rsr0-rcr100-esr29,exr/ReadingArea_rsl0-rcl69-esl100-rsm0-rcm100-esm100-rsr0-rcr100-esr29.exr,ReadingArea_rsl0-rcl69-esl100-rsm0-rcm100-esm100-rsr0-rcr100-esr29.npz,,,,,0,147,147,514,,left,green,1.16,529.7504081726074,,2,,3,6,lightness,readingArea,realistic,75,2023-03-18_14h11.44.209,tripletExp_regina_11082022,2022.2.4,120.59216409006092,
0,10,14,0,0.027777777777778,0.298245614035088,0,0.694444444444444,1.0,0,0.25,3.10526315789474,ReadingArea_rsl0-rcl2-esl29-rsm0-rcm69-esm100-rsr0-rcr25-esr310,exr/ReadingArea_rsl0-rcl2-esl29-rsm0-rcm69-esm100-rsr0-rcr25-esr310.exr,ReadingArea_rsl0-rcl2-esl29-rsm0-rcm69-esm100-rsr0-rcr25-esr310.npz,,,,,0,148,148,31,,right,red,0.69,531.8708870410919,532.3000481128693,2,,3,6,lightness,readingArea,realistic,75,2023-03-18_14h11.44.209,tripletExp_regina_11082022,2022.2.4,120.59216409006092,
14,4,8,0,0.25,3.10526315789474,0,0.694444444444444,0.298245614035088,0,0.25,1.0,ReadingArea_rsl0-rcl25-esl310-rsm0-rcm69-esm29-rsr0-rcr25-esr100,exr/ReadingArea_rsl0-rcl25-esl310-rsm0-rcm69-esm29-rsr0-rcr25-esr100.exr,ReadingArea_rsl0-rcl25-esl310-rsm0-rcm69-esm29-rsr0-rcr25-esr100.npz,,,,,0,149,149,253,,right,red,1.1,533.9894850254059,534.1915230751038,2,,3,6,lightness,readingArea,realistic,75,2023-03-18_14h11.44.209,tripletExp_regina_11082022,2022.2.4,120.59216409006092,
11,12,4,0,1.0,1.0,0,0.027777777777778,3.10526315789474,0,0.694444444444444,0.298245614035088,ReadingArea_rsl0-rcl100-esl100-rsm0-rcm2-esm310-rsr0-rcr69-esr29,exr/ReadingArea_rsl0-rcl100-esl100-rsm0-rcm2-esm310-rsr0-rcr69-esr29.exr,ReadingArea_rsl0-rcl100-esl100-rsm0-rcm2-esm310-rsr0-rcr69-esr29.npz,,,,,0,150,150,250,,right,red,1.03,606.0550780296326,606.4956541061401,3,,3,6,lightness,readingArea,realistic,75,2023-03-18_14h11.44.209,tripletExp_regina_11082022,2022.2.4,120.59216409006092,
12,14,4,0,0.027777777777778,3.10526315789474,0,0.25,3.10526315789474,0,0.694444444444444,0.298245614035088,ReadingArea_rsl0-rcl2-esl310-rsm0-rcm25-esm310-rsr0-rcr69-esr29,exr/ReadingArea_rsl0-rcl2-esl310-rsm0-rcm25-esm310-rsr0-rcr69-esr29.exr,ReadingArea_rsl0-rcl2-esl310-rsm0-rcm25-esm310-rsr0-rcr69-esr29.npz,,,,,0,151,151,315,,right,red,1.01,608.1969439983368,608.6163110733032,3,,3,6,lightness,readingArea,realistic,75,2023-03-18_14h11.44.209,tripletExp_regina_11082022,2022.2.4,120.59216409006092,
1,11,14,0,0.111111111111111,0.298245614035088,0,1.0,1.0,0,0.25,3.10526315789474,ReadingArea_rsl0-rcl11-esl29-rsm0-rcm100-esm100-rsr0-rcr25-esr310,exr/ReadingArea_rsl0-rcl11-esl29-rsm0-rcm100-esm100-rsr0-rcr25-esr310.exr,ReadingArea_rsl0-rcl11-esl29-rsm0-rcm100-esm100-rsr0-rcr25-esr310.npz,,,,,0,152,152,399,,right,red,0.78,610.3091549873352,610.75701212883,3,,3,6,lightness,readingArea,realistic,75,2023-03-18_14h11.44.209,tripletExp_regina_11082022,2022.2.4,120.59216409006092,
1,7,2,0,0.111111111111111,0.298245614035088,0,0.111111111111111,1.0,0,0.25,0.298245614035088,ReadingArea_rsl0-rcl11-esl29-rsm0-rcm11-esm100-rsr0-rcr25-esr29,exr/ReadingArea_rsl0-rcl11-esl29-rsm0-rcm11-esm100-rsr0-rcr25-esr29.exr,ReadingArea_rsl0-rcl11-esl29-rsm0-rcm11-esm100-rsr0-rcr25-esr29.npz,,,,,0,153,153,162,,right,red,1.07,612.4701471328735,612.8941261768341,3,,3,6,lightness,readingArea,realistic,75,2023-03-18_14h11.44.209,tripletExp_regina_11082022,2022.2.4,120.59216409006092,
4,13,1,0,0.694444444444444,0.298245614035088,0,0.111111111111111,3.10526315789474,0,0.111111111111111,0.298245614035088,ReadingArea_rsl0-rcl69-esl29-rsm0-rcm11-esm310-rsr0-rcr11-esr29,exr/ReadingArea_rsl0-rcl69-esl29-rsm0-rcm11-esm310-rsr0-rcr11-esr29.exr,ReadingArea_rsl0-rcl69-esl29-rsm0-rcm11-esm310-rsr0-rcr11-esr29.npz,,,,,0,154,154,192,,left,green,0.71,614.582729101181,615.1043500900269,3,,3,6,lightness,readingArea,realistic,75,2023-03-18_14h11.44.209,tripletExp_regina_11082022,2022.2.4,120.59216409006092,
4,8,14,0,0.694444444444444,0.298245614035088,0,0.25,1.0,0,0.25,3.10526315789474,ReadingArea_rsl0-rcl69-esl29-rsm0-rcm25-esm100-rsr0-rcr25-esr310,exr/ReadingArea_rsl0-rcl69-esl29-rsm0-rcm25-esm100-rsr0-rcr25-esr310.exr,ReadingArea_rsl0-rcl69-esl29-rsm0-rcm25-esm100-rsr0-rcr25-esr310.npz,,,,,0,155,155,234,,left,green,0.71,616.7967131137848,617.2433869838715,3,,3,6,lightness,readingArea,realistic,75,2023-03-18_14h11.44.209,tripletExp_regina_11082022,2022.2.4,120.59216409006092,
1,10,0,0,0.111111111111111,0.298245614035088,0,0.694444444444444,1.0,0,0.027777777777778,0.298245614035088,ReadingArea_rsl0-rcl11-esl29-rsm0-rcm69-esm100-rsr0-rcr2-esr29,exr/ReadingArea_rsl0-rcl11-esl29-rsm0-rcm69-esm100-rsr0-rcr2-esr29.exr,ReadingArea_rsl0-rcl11-esl29-rsm0-rcm69-esm100-rsr0-rcr2-esr29.npz,,,,,0,156,156,196,,left,green,1.25,618.9345560073853,619.5269620418549,3,,3,6,lightness,readingArea,realistic,75,2023-03-18_14h11.44.209,tripletExp_regina_11082022,2022.2.4,120.59216409006092,
11,8,0,0,1.0,1.0,0,0.25,1.0,0,0.027777777777778,0.298245614035088,ReadingArea_rsl0-rcl100-esl100-rsm0-rcm25-esm100-rsr0-rcr2-esr29,exr/ReadingArea_rsl0-rcl100-esl100-rsm0-rcm25-esm100-rsr0-rcr2-esr29.exr,ReadingArea_rsl0-rcl100-esl100-rsm0-rcm25-esm100-rsr0-rcr2-esr29.npz,,,,,0,157,157,81,,left,green,1.47,621.2235081195831,,3,,3,6,lightness,readingArea,realistic,75,2023-03-18_14h11.44.209,tripletExp_regina_11082022,2022.2.4,120.59216409006092,
14,5,11,0,0.25,3.10526315789474,0,1.0,0.298245614035088,0,1.0,1.0,ReadingArea_rsl0-rcl25-esl310-rsm0-rcm100-esm29-rsr0-rcr100-esr100,exr/ReadingArea_rsl0-rcl25-esl310-rsm0-rcm100-esm29-rsr0-rcr100-esr100.exr,ReadingArea_rsl0-rcl25-esl310-rsm0-rcm100-esm29-rsr0-rcr100-esr100.npz,,,,,0,158,158,161,,left,green,1.35,623.3866190910339,623.8136241436005,3,,3,6,lightness,readingArea,realistic,75,2023-03-18_14h11.44.209,tripletExp_regina_11082022,2022.2.4,120.59216409006092,
2,14,8,0,0.25,0.298245614035088,0,0.25,3.10526315789474,0,0.25,1.0,ReadingArea_rsl0-rcl25-esl29-rsm0-rcm25-esm310-rsr0-rcr25-esr100,exr/ReadingArea_rsl0-rcl25-esl29-rsm0-rcm25-esm310-rsr0-rcr25-esr100.exr,ReadingArea_rsl0-rcl25-esl29-rsm0-rcm25-esm310-rsr0-rcr25-esr100.npz,,,,,0,159,159,255,,right,red,0.95,625.5086131095886,626.0378150939941,3,,3,6,lightness,readingArea,realistic,75,2023-03-18_14h11.44.209,tripletExp_regina_11082022,2022.2.4,120.59216409006092,
6,4,0,0,0.027777777777778,1.0,0,0.694444444444444,0.298245614035088,0,0.027777777777778,0.298245614035088,ReadingArea_rsl0-rcl2-esl100-rsm0-rcm69-esm29-rsr0-rcr2-esr29,exr/ReadingArea_rsl0-rcl2-esl100-rsm0-rcm69-esm29-rsr0-rcr2-esr29.exr,ReadingArea_rsl0-rcl2-esl100-rsm0-rcm69-esm29-rsr0-rcr2-esr29.npz,,,,,0,160,160,360,,left,green,0.7,627.7274780273438,628.1739871501923,3,,3,6,lightness,readingArea,realistic,75,2023-03-18_14h11.44.209,tripletExp_regina_11082022,2022.2.4,120.59216409006092,
12,13,14,0,0.027777777777778,3.10526315789474,0,0.111111111111111,3.10526315789474,0,0.25,3.10526315789474,ReadingArea_rsl0-rcl2-esl310-rsm0-rcm11-esm310-rsr0-rcr25-esr310,exr/ReadingArea_rsl0-rcl2-esl310-rsm0-rcm11-esm310-rsr0-rcr25-esr310.exr,ReadingArea_rsl0-rcl2-esl310-rsm0-rcm11-esm310-rsr0-rcr25-esr310.npz,,,,,0,161,161,208,,left,green,0.87,629.8799161911011,630.3041331768036,3,,3,6,lightness,readingArea,realistic,75,2023-03-18_14h11.44.209,tripletExp_regina_11082022,2022.2.4,120.59216409006092,
0,10,12,0,0.027777777777778,0.298245614035088,0,0.694444444444444,1.0,0,0.027777777777778,3.10526315789474,ReadingArea_rsl0-rcl2-esl29-rsm0-rcm69-esm100-rsr0-rcr2-esr310,exr/ReadingArea_rsl0-rcl2-esl29-rsm0-rcm69-esm100-rsr0-rcr2-esr310.exr,ReadingArea_rsl0-rcl2-esl29-rsm0-rcm69-esm100-rsr0-rcr2-esr310.npz,,,,,0,162,162,531,,right,red,0.8,632.0038411617279,632.4571530818939,3,,3,6,lightness,readingArea,realistic,75,2023-03-18_14h11.44.209,tripletExp_regina_11082022,2022.2.4,120.59216409006092,
0,9,11,0,0.027777777777778,0.298245614035088,0,0.444444444444444,1.0,0,1.0,1.0,ReadingArea_rsl0-rcl2-esl29-rsm0-rcm44-esm100-rsr0-rcr100-esr100,exr/ReadingArea_rsl0-rcl2-esl29-rsm0-rcm44-esm100-rsr0-rcr100-esr100.exr,ReadingArea_rsl0-rcl2-esl29-rsm0-rcm44-esm100-rsr0-rcr100-esr100.npz,,,,,0,163,163,448,,right,red,1.2,634.1660130023956,634.6132409572601,3,,3,6,lightness,readingArea,realistic,75,2023-03-18_14h11.44.209,tripletExp_regina_11082022,2022.2.4,120.59216409006092,
9,3,14,0,0.444444444444444,1.0,0,0.444444444444444,0.298245614035088,0,0.25,3.10526315789474,ReadingArea_rsl0-rcl44-esl100-rsm0-rcm44-esm29-rsr0-rcr25-esr310,exr/ReadingArea_rsl0-rcl44-esl100-rsm0-rcm44-esm29-rsr0-rcr25-esr310.exr,ReadingArea_rsl0-rcl44-esl100-rsm0-rcm44-esm29-rsr0-rcr25-esr310.npz,,,,,0,164,164,17,,left,green,1.39,636.3168661594391,,3,,3,6,lightness,readingArea,realistic,75,2023-03-18_14h11.44.209,tripletExp_regina_11082022,2022.2.4,120.59216409006092,
3,6,4,0,0.444444444444444,0.298245614035088,0,0.027777777777778,1.0,0,0.694444444444444,0.298245614035088,ReadingArea_rsl0-rcl44-esl29-rsm0-rcm2-esm100-rsr0-rcr69-esr29,exr/ReadingArea_rsl0-rcl44-esl29-rsm0-rcm2-esm100-rsr0-rcr69-esr29.exr,ReadingArea_rsl0-rcl44-esl29-rsm0-rcm2-esm100-rsr0-rcr69-esr29.npz,,,,,0,165,165,154,,left,green,1.52,638.4429581165314,638.9237401485443,3,,3,6,lightness,readingArea,realistic,75,2023-03-18_14h11.44.209,tripletExp_regina_11082022,2022.2.4,120.59216409006092,
6,1,2,0,0.027777777777778,1.0,0,0.111111111111111,0.298245614035088,0,0.25,0.298245614035088,ReadingArea_rsl0-rcl2-esl100-rsm0-rcm11-esm29-rsr0-rcr25-esr29,exr/ReadingArea_rsl0-rcl2-esl100-rsm0-rcm11-esm29-rsr0-rcr25-esr29.exr,ReadingArea_rsl0-rcl2-esl100-rsm0-rcm11-esm29-rsr0-rcr25-esr29.npz,,,,,0,166,166,68,,left,green,1.43,640.6144061088562,641.1068120002747,3,,3,6,lightness,readingArea,realistic,75,2023-03-18_14h11.44.209,tripletExp_regina_11082022,2022.2.4,120.59216409006092,
13,10,7,0,0.111111111111111,3.10526315789474,0,0.694444444444444,1.0,0,0.111111111111111,1.0,ReadingArea_rsl0-rcl11-esl310-rsm0-rcm69-esm100-rsr0-rcr11-esr100,exr/ReadingArea_rsl0-rcl11-esl310-rsm0-rcm69-esm100-rsr0-rcr11-esr100.exr,ReadingArea_rsl0-rcl11-esl310-rsm0-rcm69-esm100-rsr0-rcr11-esr100.npz,,,,,0,167,167,385,,left,green,1.48,642.8268930912018,,3,,3,6,lightness,readingArea,realistic,75,2023-03-18_14h11.44.209,tripletExp_regina_11082022,2022.2.4,120.59216409006092,
14,0,9,0,0.25,3.10526315789474,0,0.027777777777778,0.298245614035088,0,0.444444444444444,1.0,ReadingArea_rsl0-rcl25-esl310-rsm0-rcm2-esm29-rsr0-rcr44-esr100,exr/ReadingArea_rsl0-rcl25-esl310-rsm0-rcm2-esm29-rsr0-rcr44-esr100.exr,ReadingArea_rsl0-rcl25-esl310-rsm0-rcm2-esm29-rsr0-rcr44-esr100.npz,,,,,0,168,168,90,,right,red,1.13,644.9877331256866,645.5109300613403,3,,3,6,lightness,readingArea,realistic,75,2023-03-18_14h11.44.209,tripletExp_regina_11082022,2022.2.4,120.59216409006092,
2,1,14,0,0.25,0.298245614035088,0,0.111111111111111,0.298245614035088,0,0.25,3.10526315789474,ReadingArea_rsl0-rcl25-esl29-rsm0-rcm11-esm29-rsr0-rcr25-esr310,exr/ReadingArea_rsl0-rcl25-esl29-rsm0-rcm11-esm29-rsr0-rcr25-esr310.exr,ReadingArea_rsl0-rcl25-esl29-rsm0-rcm11-esm29-rsr0-rcr25-esr310.npz,,,,,0,169,169,59,,left,green,0.82,647.2109379768372,,3,,3,6,lightness,readingArea,realistic,75,2023-03-18_14h11.44.209,tripletExp_regina_11082022,2022.2.4,120.59216409006092,
14,8,2,0,0.25,3.10526315789474,0,0.25,1.0,0,0.25,0.298245614035088,ReadingArea_rsl0-rcl25-esl310-rsm0-rcm25-esm100-rsr0-rcr25-esr29,exr/ReadingArea_rsl0-rcl25-esl310-rsm0-rcm25-esm100-rsr0-rcr25-esr29.exr,ReadingArea_rsl0-rcl25-esl310-rsm0-rcm25-esm100-rsr0-rcr25-esr29.npz,,,,,0,170,170,251,,right,red,1.12,649.3466761112213,649.7776300907135,3,,3,6,lightness,readingArea,realistic,75,2023-03-18_14h11.44.209,tripletExp_regina_11082022,2022.2.4,120.59216409006092,
1,9,7,0,0.111111111111111,0.298245614035088,0,0.444444444444444,1.0,0,0.111111111111111,1.0,ReadingArea_rsl0-rcl11-esl29-rsm0-rcm44-esm100-rsr0-rcr11-esr100,exr/ReadingArea_rsl0-rcl11-esl29-rsm0-rcm44-esm100-rsr0-rcr11-esr100.exr,ReadingArea_rsl0-rcl11-esl29-rsm0-rcm44-esm100-rsr0-rcr11-esr100.npz,,,,,0,171,171,397,,right,red,0.84,651.4761180877686,651.9270160198212,3,,3,6,lightness,readingArea,realistic,75,2023-03-18_14h11.44.209,tripletExp_regina_11082022,2022.2.4,120.59216409006092,
3,7,9,0,0.444444444444444,0.298245614035088,0,0.111111111111111,1.0,0,0.444444444444444,1.0,ReadingArea_rsl0-rcl44-esl29-rsm0-rcm11-esm100-rsr0-rcr44-esr100,exr/ReadingArea_rsl0-rcl44-esl29-rsm0-rcm11-esm100-rsr0-rcr44-esr100.exr,ReadingArea_rsl0-rcl44-esl29-rsm0-rcm11-esm100-rsr0-rcr44-esr100.npz,,,,,0,172,172,382,,left,green,1.5,653.6205010414124,,3,,3,6,lightness,readingArea,realistic,75,2023-03-18_14h11.44.209,tripletExp_regina_11082022,2022.2.4,120.59216409006092,
7,10,4,0,0.111111111111111,1.0,0,0.694444444444444,1.0,0,0.694444444444444,0.298245614035088,ReadingArea_rsl0-rcl11-esl100-rsm0-rcm69-esm100-rsr0-rcr69-esr29,exr/ReadingArea_rsl0-rcl11-esl100-rsm0-rcm69-esm100-rsr0-rcr69-esr29.exr,ReadingArea_rsl0-rcl11-esl100-rsm0-rcm69-esm100-rsr0-rcr69-esr29.npz,,,,,0,173,173,46,,right,red,1.32,655.7678430080414,656.2108581066132,3,,3,6,lightness,readingArea,realistic,75,2023-03-18_14h11.44.209,tripletExp_regina_11082022,2022.2.4,120.59216409006092,
4,8,11,0,0.694444444444444,0.298245614035088,0,0.25,1.0,0,1.0,1.0,ReadingArea_rsl0-rcl69-esl29-rsm0-rcm25-esm100-rsr0-rcr100-esr100,exr/ReadingArea_rsl0-rcl69-esl29-rsm0-rcm25-esm100-rsr0-rcr100-esr100.exr,ReadingArea_rsl0-rcl69-esl29-rsm0-rcm25-esm100-rsr0-rcr100-esr100.npz,,,,,0,174,174,403,,left,green,0.83,657.9099571704865,658.5571761131287,3,,3,6,lightness,readingArea,realistic,75,2023-03-18_14h11.44.209,tripletExp_regina_11082022,2022.2.4,120.59216409006092,
6,7,3,0,0.027777777777778,1.0,0,0.111111111111111,1.0,0,0.444444444444444,0.298245614035088,ReadingArea_rsl0-rcl2-esl100-rsm0-rcm11-esm100-rsr0-rcr44-esr29,exr/ReadingArea_rsl0-rcl2-esl100-rsm0-rcm11-esm100-rsr0-rcr44-esr29.exr,ReadingArea_rsl0-rcl2-esl100-rsm0-rcm11-esm100-rsr0-rcr44-esr29.npz,,,,,0,175,175,47,,right,red,2.95,662.0001239776611,662.4535889625549,3,,3,6,lightness,readingArea,realistic,75,2023-03-18_14h11.44.209,tripletExp_regina_11082022,2022.2.4,120.59216409006092,
13,6,0,0,0.111111111111111,3.10526315789474,0,0.027777777777778,1.0,0,0.027777777777778,0.298245614035088,ReadingArea_rsl0-rcl11-esl310-rsm0-rcm2-esm100-rsr0-rcr2-esr29,exr/ReadingArea_rsl0-rcl11-esl310-rsm0-rcm2-esm100-rsr0-rcr2-esr29.exr,ReadingArea_rsl0-rcl11-esl310-rsm0-rcm2-esm100-rsr0-rcr2-esr29.npz,,,,,0,176,176,309,,right,red,0.94,664.1702170372009,664.6025261878967,3,,3,6,lightness,readingArea,realistic,75,2023-03-18_14h11.44.209,tripletExp_regina_11082022,2022.2.4,120.59216409006092,
6,0,10,0,0.027777777777778,1.0,0,0.027777777777778,0.298245614035088,0,0.694444444444444,1.0,ReadingArea_rsl0-rcl2-esl100-rsm0-rcm2-esm29-rsr0-rcr69-esr100,exr/ReadingArea_rsl0-rcl2-esl100-rsm0-rcm2-esm29-rsr0-rcr69-esr100.exr,ReadingArea_rsl0-rcl2-esl100-rsm0-rcm2-esm29-rsr0-rcr69-esr100.npz,,,,,0,177,177,532,,left,green,0.85,666.2939720153809,666.7392160892487,3,,3,6,lightness,readingArea,realistic,75,2023-03-18_14h11.44.209,tripletExp_regina_11082022,2022.2.4,120.59216409006092,
12,5,14,0,0.027777777777778,3.10526315789474,0,1.0,0.298245614035088,0,0.25,3.10526315789474,ReadingArea_rsl0-rcl2-esl310-rsm0-rcm100-esm29-rsr0-rcr25-esr310,exr/ReadingArea_rsl0-rcl2-esl310-rsm0-rcm100-esm29-rsr0-rcr25-esr310.exr,ReadingArea_rsl0-rcl2-esl310-rsm0-rcm100-esm29-rsr0-rcr25-esr310.npz,,,,,0,178,178,193,,left,green,3.35,670.1838021278381,670.6159520149231,3,,3,6,lightness,readingArea,realistic,75,2023-03-18_14h11.44.209,tripletExp_regina_11082022,2022.2.4,120.59216409006092,
10,7,3,0,0.694444444444444,1.0,0,0.111111111111111,1.0,0,0.444444444444444,0.298245614035088,ReadingArea_rsl0-rcl69-esl100-rsm0-rcm11-esm100-rsr0-rcr44-esr29,exr/ReadingArea_rsl0-rcl69-esl100-rsm0-rcm11-esm100-rsr0-rcr44-esr29.exr,ReadingArea_rsl0-rcl69-esl100-rsm0-rcm11-esm100-rsr0-rcr44-esr29.npz,,,,,0,179,179,582,,right,red,0.73,672.3382411003113,672.7831010818481,3,,3,6,lightness,readingArea,realistic,75,2023-03-18_14h11.44.209,tripletExp_regina_11082022,2022.2.4,120.59216409006092,
4,11,12,0,0.694444444444444,0.298245614035088,0,1.0,1.0,0,0.027777777777778,3.10526315789474,ReadingArea_rsl0-rcl69-esl29-rsm0-rcm100-esm100-rsr0-rcr2-esr310,exr/ReadingArea_rsl0-rcl69-esl29-rsm0-rcm100-esm100-rsr0-rcr2-esr310.exr,ReadingArea_rsl0-rcl69-esl29-rsm0-rcm100-esm100-rsr0-rcr2-esr310.npz,,,,,0,180,180,109,,left,green,0.89,674.4739940166473,675.0798270702362,3,,3,6,lightness,readingArea,realistic,75,2023-03-18_14h11.44.209,tripletExp_regina_11082022,2022.2.4,120.59216409006092,
4,8,10,0,0.694444444444444,0.298245614035088,0,0.25,1.0,0,0.694444444444444,1.0,ReadingArea_rsl0-rcl69-esl29-rsm0-rcm25-esm100-rsr0-rcr69-esr100,exr/ReadingArea_rsl0-rcl69-esl29-rsm0-rcm25-esm100-rsr0-rcr69-esr100.exr,ReadingArea_rsl0-rcl69-esl29-rsm0-rcm25-esm100-rsr0-rcr69-esr100.npz,,,,,0,181,181,221,,left,green,1.06,676.7805781364441,677.2229759693146,3,,3,6,lightness,readingArea,realistic,75,2023-03-18_14h11.44.209,tripletExp_regina_11082022,2022.2.4,120.59216409006092,
6,11,1,0,0.027777777777778,1.0,0,1.0,1.0,0,0.111111111111111,0.298245614035088,ReadingArea_rsl0-rcl2-esl100-rsm0-rcm100-esm100-rsr0-rcr11-esr29,exr/ReadingArea_rsl0-rcl2-esl100-rsm0-rcm100-esm100-rsr0-rcr11-esr29.exr,ReadingArea_rsl0-rcl2-esl100-rsm0-rcm100-esm100-rsr0-rcr11-esr29.npz,,,,,0,182,182,436,,right,red,3.03,680.6714010238647,681.1095910072327,3,,3,6,lightness,readingArea,realistic,75,2023-03-18_14h11.44.209,tripletExp_regina_11082022,2022.2.4,120.59216409006092,
10,1,0,0,0.694444444444444,1.0,0,0.111111111111111,0.298245614035088,0,0.027777777777778,0.298245614035088,ReadingArea_rsl0-rcl69-esl100-rsm0-rcm11-esm29-rsr0-rcr2-esr29,exr/ReadingArea_rsl0-rcl69-esl100-rsm0-rcm11-esm29-rsr0-rcr2-esr29.exr,ReadingArea_rsl0-rcl69-esl100-rsm0-rcm11-esm29-rsr0-rcr2-esr29.npz,,,,,0,183,183,276,,right,red,1.05,682.8029041290283,683.4433300495148,3,,3,6,lightness,readingArea,realistic,75,2023-03-18_14h11.44.209,tripletExp_regina_11082022,2022.2.4,120.59216409006092,
11,1,4,0,1.0,1.0,0,0.111111111111111,0.298245614035088,0,0.694444444444444,0.298245614035088,ReadingArea_rsl0-rcl100-esl100-rsm0-rcm11-esm29-rsr0-rcr69-esr29,exr/ReadingArea_rsl0-rcl100-esl100-rsm0-rcm11-esm29-rsr0-rcr69-esr29.exr,ReadingArea_rsl0-rcl100-esl100-rsm0-rcm11-esm29-rsr0-rcr69-esr29.npz,,,,,0,184,184,110,,right,red,1.11,685.1343681812286,685.7464611530304,3,,3,6,lightness,readingArea,realistic,75,2023-03-18_14h11.44.209,tripletExp_regina_11082022,2022.2.4,120.59216409006092,
7,10,13,0,0.111111111111111,1.0,0,0.694444444444444,1.0,0,0.111111111111111,3.10526315789474,ReadingArea_rsl0-rcl11-esl100-rsm0-rcm69-esm100-rsr0-rcr11-esr310,exr/ReadingArea_rsl0-rcl11-esl100-rsm0-rcm69-esm100-rsr0-rcr11-esr310.exr,ReadingArea_rsl0-rcl11-esl100-rsm0-rcm69-esm100-rsr0-rcr11-esr310.npz,,,,,0,185,185,446,,right,red,1.43,687.4325730800629,687.8783001899719,3,,3,6,lightness,readingArea,realistic,75,2023-03-18_14h11.44.209,tripletExp_regina_11082022,2022.2.4,120.59216409006092,
4,2,0,0,0.694444444444444,0.298245614035088,0,0.25,0.298245614035088,0,0.027777777777778,0.298245614035088,ReadingArea_rsl0-rcl69-esl29-rsm0-rcm25-esm29-rsr0-rcr2-esr29,exr/ReadingArea_rsl0-rcl69-esl29-rsm0-rcm25-esm29-rsr0-rcr2-esr29.exr,ReadingArea_rsl0-rcl69-esl29-rsm0-rcm25-esm29-rsr0-rcr2-esr29.npz,,,,,0,186,186,71,,left,green,0.85,689.5988490581512,690.0441510677338,3,,3,6,lightness,readingArea,realistic,75,2023-03-18_14h11.44.209,tripletExp_regina_11082022,2022.2.4,120.59216409006092,
11,12,10,0,1.0,1.0,0,0.027777777777778,3.10526315789474,0,0.694444444444444,1.0,ReadingArea_rsl0-rcl100-esl100-rsm0-rcm2-esm310-rsr0-rcr69-esr100,exr/ReadingArea_rsl0-rcl100-esl100-rsm0-rcm2-esm310-rsr0-rcr69-esr100.exr,ReadingArea_rsl0-rcl100-esl100-rsm0-rcm2-esm310-rsr0-rcr69-esr100.npz,,,,,0,187,187,465,,right,red,1.36,691.7324810028076,692.1889350414276,3,,3,6,lightness,readingArea,realistic,75,2023-03-18_14h11.44.209,tripletExp_regina_11082022,2022.2.4,120.59216409006092,
11,5,1,0,1.0,1.0,0,1.0,0.298245614035088,0,0.111111111111111,0.298245614035088,ReadingArea_rsl0-rcl100-esl100-rsm0-rcm100-esm29-rsr0-rcr11-esr29,exr/ReadingArea_rsl0-rcl100-esl100-rsm0-rcm100-esm29-rsr0-rcr11-esr29.exr,ReadingArea_rsl0-rcl100-esl100-rsm0-rcm100-esm29-rsr0-rcr11-esr29.npz,,,,,0,188,188,48,,left,green,4.35,697.4154670238495,697.8558700084686,3,,3,6,lightness,readingArea,realistic,75,2023-03-18_14h11.44.209,tripletExp_regina_11082022,2022.2.4,120.59216409006092,
1,3,4,0,0.111111111111111,0.298245614035088,0,0.444444444444444,0.298245614035088,0,0.694444444444444,0.298245614035088,ReadingArea_rsl0-rcl11-esl29-rsm0-rcm44-esm29-rsr0-rcr69-esr29,exr/ReadingArea_rsl0-rcl11-esl29-rsm0-rcm44-esm29-rsr0-rcr69-esr29.exr,ReadingArea_rsl0-rcl11-esl29-rsm0-rcm44-esm29-rsr0-rcr69-esr29.npz,,,,,0,189,189,153,,right,red,0.87,699.578458070755,700.0119881629944,3,,3,6,lightness,readingArea,realistic,75,2023-03-18_14h11.44.209,tripletExp_regina_11082022,2022.2.4,120.59216409006092,
7,9,3,0,0.111111111111111,1.0,0,0.444444444444444,1.0,0,0.444444444444444,0.298245614035088,ReadingArea_rsl0-rcl11-esl100-rsm0-rcm44-esm100-rsr0-rcr44-esr29,exr/ReadingArea_rsl0-rcl11-esl100-rsm0-rcm44-esm100-rsr0-rcr44-esr29.exr,ReadingArea_rsl0-rcl11-esl100-rsm0-rcm44-esm100-rsr0-rcr44-esr29.npz,,,,,0,190,190,311,,right,red,0.73,701.7022850513458,,3,,3,6,lightness,readingArea,realistic,75,2023-03-18_14h11.44.209,tripletExp_regina_11082022,2022.2.4,120.59216409006092,
7,4,2,0,0.111111111111111,1.0,0,0.694444444444444,0.298245614035088,0,0.25,0.298245614035088,ReadingArea_rsl0-rcl11-esl100-rsm0-rcm69-esm29-rsr0-rcr25-esr29,exr/ReadingArea_rsl0-rcl11-esl100-rsm0-rcm69-esm29-rsr0-rcr25-esr29.exr,ReadingArea_rsl0-rcl11-esl100-rsm0-rcm69-esm29-rsr0-rcr25-esr29.npz,,,,,0,191,191,146,,right,red,1.52,703.8589980602264,704.2976760864258,3,,3,6,lightness,readingArea,realistic,75,2023-03-18_14h11.44.209,tripletExp_regina_11082022,2022.2.4,120.59216409006092,
6,9,2,0,0.027777777777778,1.0,0,0.444444444444444,1.0,0,0.25,0.298245614035088,ReadingArea_rsl0-rcl2-esl100-rsm0-rcm44-esm100-rsr0-rcr25-esr29,exr/ReadingArea_rsl0-rcl2-esl100-rsm0-rcm44-esm100-rsr0-rcr25-esr29.exr,ReadingArea_rsl0-rcl2-esl100-rsm0-rcm44-esm100-rsr0-rcr25-esr29.npz,,,,,0,192,192,182,,right,red,1.0,705.9893400669098,706.4263920783997,3,,3,6,lightness,readingArea,realistic,75,2023-03-18_14h11.44.209,tripletExp_regina_11082022,2022.2.4,120.59216409006092,
8,13,3,0,0.25,1.0,0,0.111111111111111,3.10526315789474,0,0.444444444444444,0.298245614035088,ReadingArea_rsl0-rcl25-esl100-rsm0-rcm11-esm310-rsr0-rcr44-esr29,exr/ReadingArea_rsl0-rcl25-esl100-rsm0-rcm11-esm310-rsr0-rcr44-esr29.exr,ReadingArea_rsl0-rcl25-esl100-rsm0-rcm11-esm310-rsr0-rcr44-esr29.npz,,,,,0,193,193,553,,left,green,3.09,709.8795480728149,710.3309600353241,3,,3,6,lightness,readingArea,realistic,75,2023-03-18_14h11.44.209,tripletExp_regina_11082022,2022.2.4,120.59216409006092,
0,1,8,0,0.027777777777778,0.298245614035088,0,0.111111111111111,0.298245614035088,0,0.25,1.0,ReadingArea_rsl0-rcl2-esl29-rsm0-rcm11-esm29-rsr0-rcr25-esr100,exr/ReadingArea_rsl0-rcl2-esl29-rsm0-rcm11-esm29-rsr0-rcr25-esr100.exr,ReadingArea_rsl0-rcl2-esl29-rsm0-rcm11-esm29-rsr0-rcr25-esr100.npz,,,,,0,194,194,107,,left,green,3.96,715.6280641555786,716.1696569919586,3,,3,6,lightness,readingArea,realistic,75,2023-03-18_14h11.44.209,tripletExp_regina_11082022,2022.2.4,120.59216409006092,
12,6,8,0,0.027777777777778,3.10526315789474,0,0.027777777777778,1.0,0,0.25,1.0,ReadingArea_rsl0-rcl2-esl310-rsm0-rcm2-esm100-rsr0-rcr25-esr100,exr/ReadingArea_rsl0-rcl2-esl310-rsm0-rcm2-esm100-rsr0-rcr25-esr100.exr,ReadingArea_rsl0-rcl2-esl310-rsm0-rcm2-esm100-rsr0-rcr25-esr100.npz,,,,,0,195,195,540,,left,green,1.04,717.8531999588013,718.3083581924438,3,,3,6,lightness,readingArea,realistic,75,2023-03-18_14h11.44.209,tripletExp_regina_11082022,2022.2.4,120.59216409006092,
1,7,8,0,0.111111111111111,0.298245614035088,0,0.111111111111111,1.0,0,0.25,1.0,ReadingArea_rsl0-rcl11-esl29-rsm0-rcm11-esm100-rsr0-rcr25-esr100,exr/ReadingArea_rsl0-rcl11-esl29-rsm0-rcm11-esm100-rsr0-rcr25-esr100.exr,ReadingArea_rsl0-rcl11-esl29-rsm0-rcm11-esm100-rsr0-rcr25-esr100.npz,,,,,0,196,196,260,,right,red,4.61,723.524875164032,723.9787361621857,3,,3,6,lightness,readingArea,realistic,75,2023-03-18_14h11.44.209,tripletExp_regina_11082022,2022.2.4,120.59216409006092,
0,8,3,0,0.027777777777778,0.298245614035088,0,0.25,1.0,0,0.444444444444444,0.298245614035088,ReadingArea_rsl0-rcl2-esl29-rsm0-rcm25-esm100-rsr0-rcr44-esr29,exr/ReadingArea_rsl0-rcl2-esl29-rsm0-rcm25-esm100-rsr0-rcr44-esr29.exr,ReadingArea_rsl0-rcl2-esl29-rsm0-rcm25-esm100-rsr0-rcr44-esr29.npz,,,,,0,197,197,301,,right,red,0.88,725.6730840206146,,3,,3,6,lightness,readingArea,realistic,75,2023-03-18_14h11.44.209,tripletExp_regina_11082022,2022.2.4,120.59216409006092,
3,2,11,0,0.444444444444444,0.298245614035088,0,0.25,0.298245614035088,0,1.0,1.0,ReadingArea_rsl0-rcl44-esl29-rsm0-rcm25-esm29-rsr0-rcr100-esr100,exr/ReadingArea_rsl0-rcl44-esl29-rsm0-rcm25-esm29-rsr0-rcr100-esr100.exr,ReadingArea_rsl0-rcl44-esl29-rsm0-rcm25-esm29-rsr0-rcr100-esr100.npz,,,,,0,198,198,257,,left,green,0.78,727.8230621814728,,3,,3,6,lightness,readingArea,realistic,75,2023-03-18_14h11.44.209,tripletExp_regina_11082022,2022.2.4,120.59216409006092,
8,3,9,0,0.25,1.0,0,0.444444444444444,0.298245614035088,0,0.444444444444444,1.0,ReadingArea_rsl0-rcl25-esl100-rsm0-rcm44-esm29-rsr0-rcr44-esr100,exr/ReadingArea_rsl0-rcl25-esl100-rsm0-rcm44-esm29-rsr0-rcr44-esr100.exr,ReadingArea_rsl0-rcl25-esl100-rsm0-rcm44-esm29-rsr0-rcr44-esr100.npz,,,,,0,199,199,15,,left,green,1.53,729.9592971801758,730.5710301399231,3,,3,6,lightness,readingArea,realistic,75,2023-03-18_14h11.44.209,tripletExp_regina_11082022,2022.2.4,120.59216409006092,
4,1,3,0,0.694444444444444,0.298245614035088,0,0.111111111111111,0.298245614035088,0,0.444444444444444,0.298245614035088,ReadingArea_rsl0-rcl69-esl29-rsm0-rcm11-esm29-rsr0-rcr44-esr29,exr/ReadingArea_rsl0-rcl69-esl29-rsm0-rcm11-esm29-rsr0-rcr44-esr29.exr,ReadingArea_rsl0-rcl69-esl29-rsm0-rcm11-esm29-rsr0-rcr44-esr29.npz,,,,,0,200,200,70,,right,red,1.65,732.2903959751129,,3,,3,6,lightness,readingArea,realistic,75,2023-03-18_14h11.44.209,tripletExp_regina_11082022,2022.2.4,120.59216409006092,
9,11,10,0,0.444444444444444,1.0,0,1.0,1.0,0,0.694444444444444,1.0,ReadingArea_rsl0-rcl44-esl100-rsm0-rcm100-esm100-rsr0-rcr69-esr100,exr/ReadingArea_rsl0-rcl44-esl100-rsm0-rcm100-esm100-rsr0-rcr69-esr100.exr,ReadingArea_rsl0-rcl44-esl100-rsm0-rcm100-esm100-rsr0-rcr69-esr100.npz,,,,,0,201,201,591,,right,red,3.21,736.180328130722,736.6786260604858,3,,3,6,lightness,readingArea,realistic,75,2023-03-18_14h11.44.209,tripletExp_regina_11082022,2022.2.4,120.59216409006092,
12,14,8,0,0.027777777777778,3.10526315789474,0,0.25,3.10526315789474,0,0.25,1.0,ReadingArea_rsl0-rcl2-esl310-rsm0-rcm25-esm310-rsr0-rcr25-esr100,exr/ReadingArea_rsl0-rcl2-esl310-rsm0-rcm25-esm310-rsr0-rcr25-esr100.exr,ReadingArea_rsl0-rcl2-esl310-rsm0-rcm25-esm310-rsr0-rcr25-esr100.npz,,,,,0,202,202,466,,right,red,1.19,738.4034819602966,738.8575179576874,3,,3,6,lightness,readingArea,realistic,75,2023-03-18_14h11.44.209,tripletExp_regina_11082022,2022.2.4,120.59216409006092,
2,4,6,0,0.25,0.298245614035088,0,0.694444444444444,0.298245614035088,0,0.027777777777778,1.0,ReadingArea_rsl0-rcl25-esl29-rsm0-rcm69-esm29-rsr0-rcr2-esr100,exr/ReadingArea_rsl0-rcl25-esl29-rsm0-rcm69-esm29-rsr0-rcr2-esr100.exr,ReadingArea_rsl0-rcl25-esl29-rsm0-rcm69-esm29-rsr0-rcr2-esr100.npz,,,,,0,203,203,563,,left,green,1.05,740.5512759685516,740.9768970012665,3,,3,6,lightness,readingArea,realistic,75,2023-03-18_14h11.44.209,tripletExp_regina_11082022,2022.2.4,120.59216409006092,
10,11,0,0,0.694444444444444,1.0,0,1.0,1.0,0,0.027777777777778,0.298245614035088,ReadingArea_rsl0-rcl69-esl100-rsm0-rcm100-esm100-rsr0-rcr2-esr29,exr/ReadingArea_rsl0-rcl69-esl100-rsm0-rcm100-esm100-rsr0-rcr2-esr29.exr,ReadingArea_rsl0-rcl69-esl100-rsm0-rcm100-esm100-rsr0-rcr2-esr29.npz,,,,,0,204,204,58,,left,green,0.7,742.6711411476135,743.1156101226807,3,,3,6,lightness,readingArea,realistic,75,2023-03-18_14h11.44.209,tripletExp_regina_11082022,2022.2.4,120.59216409006092,
