index_left,index_middle,index_right,reflectance_surround_left,reflectance_center_left,emission_spot_left,reflectance_surround_middle,reflectance_center_middle,emission_spot_middle,reflectance_surround_right,reflectance_center_right,emission_spot_right,ImageName,ImageExr,ImageNpy,trials_2.thisRepN,trials_2.thisTrialN,trials_2.thisN,trials_2.thisIndex,trials.thisRepN,trials.thisTrialN,trials.thisN,trials.thisIndex,sound_1.started,BB_Trial.resp,BB_Trial.color,BB_Trial.rt,text.started,text.stopped,sound_2.started,sound_1.stopped,block,sound_4.started,participant,session,L/B,scene,condition,nTrialsPerBlock,date,expName,psychopyVersion,frameRate,Unnamed: 43
7,9,5,0,0.111111111111111,1.0,0,0.444444444444444,1.0,0,1.0,0.298245614035088,ReadingArea_rsl0-rcl11-esl100-rsm0-rcm44-esm100-rsr0-rcr100-esr29,exr/ReadingArea_rsl0-rcl11-esl100-rsm0-rcm44-esm100-rsr0-rcr100-esr29.exr,ReadingArea_rsl0-rcl11-esl100-rsm0-rcm44-esm100-rsr0-rcr100-esr29.npz,,,,,0,0,0,291,153.66074838638306,right,red,1.06,161.42011785507202,161.93101692199707,99.3778084754944,112.16107392311096,1,,7,3,lightness,readingArea,realistic,75,2023-03-25_12h00.29.698,tripletExp_regina_11082022,2022.2.4,119.8639696846726,
11,7,12,0,1.0,1.0,0,0.111111111111111,1.0,0,0.027777777777778,3.10526315789474,ReadingArea_rsl0-rcl100-esl100-rsm0-rcm11-esm100-rsr0-rcr2-esr310,exr/ReadingArea_rsl0-rcl100-esl100-rsm0-rcm11-esm100-rsr0-rcr2-esr310.exr,ReadingArea_rsl0-rcl100-esl100-rsm0-rcm11-esm100-rsr0-rcr2-esr310.npz,,,,,0,1,1,352,,right,red,0.78,163.61892080307007,164.1299159526825,,,1,,7,3,lightness,readingArea,realistic,75,2023-03-25_12h00.29.698,tripletExp_regina_11082022,2022.2.4,119.8639696846726,
3,6,11,0,0.444444444444444,0.298245614035088,0,0.027777777777778,1.0,0,1.0,1.0,ReadingArea_rsl0-rcl44-esl29-rsm0-rcm2-esm100-rsr0-rcr100-esr100,exr/ReadingArea_rsl0-rcl44-esl29-rsm0-rcm2-esm100-rsr0-rcr100-esr100.exr,ReadingArea_rsl0-rcl44-esl29-rsm0-rcm2-esm100-rsr0-rcr100-esr100.npz,,,,,0,2,2,155,,left,green,0.75,165.84201097488403,166.35355496406555,,,1,,7,3,lightness,readingArea,realistic,75,2023-03-25_12h00.29.698,tripletExp_regina_11082022,2022.2.4,119.8639696846726,
0,5,12,0,0.027777777777778,0.298245614035088,0,1.0,0.298245614035088,0,0.027777777777778,3.10526315789474,ReadingArea_rsl0-rcl2-esl29-rsm0-rcm100-esm29-rsr0-rcr2-esr310,exr/ReadingArea_rsl0-rcl2-esl29-rsm0-rcm100-esm29-rsr0-rcr2-esr310.exr,ReadingArea_rsl0-rcl2-esl29-rsm0-rcm100-esm29-rsr0-rcr2-esr310.npz,,,,,0,3,3,366,,right,red,1.21,168.04561495780945,168.53739190101624,,,1,,7,3,lightness,readingArea,realistic,75,2023-03-25_12h00.29.698,tripletExp_regina_11082022,2022.2.4,119.8639696846726,
12,8,10,0,0.027777777777778,3.10526315789474,0,0.25,1.0,0,0.694444444444444,1.0,ReadingArea_rsl0-rcl2-esl310-rsm0-rcm25-esm100-rsr0-rcr69-esr100,exr/ReadingArea_rsl0-rcl2-esl310-rsm0-rcm25-esm100-rsr0-rcr69-esr100.exr,ReadingArea_rsl0-rcl2-esl310-rsm0-rcm25-esm100-rsr0-rcr69-esr100.npz,,,,,0,4,4,216,,right,red,1.1,170.2346580028534,170.71802282333374,,,1,,7,3,lightness,readingArea,realistic,75,2023-03-25_12h00.29.698,tripletExp_regina_11082022,2022.2.4,119.8639696846726,
4,10,9,0,0.694444444444444,0.298245614035088,0,0.694444444444444,1.0,0,0.444444444444444,1.0,ReadingArea_rsl0-rcl69-esl29-rsm0-rcm69-esm100-rsr0-rcr44-esr100,exr/ReadingArea_rsl0-rcl69-esl29-rsm0-rcm69-esm100-rsr0-rcr44-esr100.exr,ReadingArea_rsl0-rcl69-esl29-rsm0-rcm69-esm100-rsr0-rcr44-esr100.npz,,,,,0,5,5,516,,right,red,1.31,172.419291973114,172.96010780334473,,,1,,7,3,lightness,readingArea,realistic,75,2023-03-25_12h00.29.698,tripletExp_regina_11082022,2022.2.4,119.8639696846726,
12,7,2,0,0.027777777777778,3.10526315789474,0,0.111111111111111,1.0,0,0.25,0.298245614035088,ReadingArea_rsl0-rcl2-esl310-rsm0-rcm11-esm100-rsr0-rcr25-esr29,exr/ReadingArea_rsl0-rcl2-esl310-rsm0-rcm11-esm100-rsr0-rcr25-esr29.exr,ReadingArea_rsl0-rcl2-esl310-rsm0-rcm11-esm100-rsr0-rcr25-esr29.npz,,,,,0,6,6,248,,right,red,1.5,174.6537549495697,175.13320088386536,,,1,,7,3,lightness,readingArea,realistic,75,2023-03-25_12h00.29.698,tripletExp_regina_11082022,2022.2.4,119.8639696846726,
8,14,3,0,0.25,1.0,0,0.25,3.10526315789474,0,0.444444444444444,0.298245614035088,ReadingArea_rsl0-rcl25-esl100-rsm0-rcm25-esm310-rsr0-rcr44-esr29,exr/ReadingArea_rsl0-rcl25-esl100-rsm0-rcm25-esm310-rsr0-rcr44-esr29.exr,ReadingArea_rsl0-rcl25-esl100-rsm0-rcm25-esm310-rsr0-rcr44-esr29.npz,,,,,0,7,7,503,,left,green,0.87,176.84954285621643,177.4272449016571,,,1,,7,3,lightness,readingArea,realistic,75,2023-03-25_12h00.29.698,tripletExp_regina_11082022,2022.2.4,119.8639696846726,
2,8,7,0,0.25,0.298245614035088,0,0.25,1.0,0,0.111111111111111,1.0,ReadingArea_rsl0-rcl25-esl29-rsm0-rcm25-esm100-rsr0-rcr11-esr100,exr/ReadingArea_rsl0-rcl25-esl29-rsm0-rcm25-esm100-rsr0-rcr11-esr100.exr,ReadingArea_rsl0-rcl25-esl29-rsm0-rcm25-esm100-rsr0-rcr11-esr100.npz,,,,,0,8,8,393,,right,red,1.07,179.1332049369812,179.61929392814636,,,1,,7,3,lightness,readingArea,realistic,75,2023-03-25_12h00.29.698,tripletExp_regina_11082022,2022.2.4,119.8639696846726,
10,12,11,0,0.694444444444444,1.0,0,0.027777777777778,3.10526315789474,0,1.0,1.0,ReadingArea_rsl0-rcl69-esl100-rsm0-rcm2-esm310-rsr0-rcr100-esr100,exr/ReadingArea_rsl0-rcl69-esl100-rsm0-rcm2-esm310-rsr0-rcr100-esr100.exr,ReadingArea_rsl0-rcl69-esl100-rsm0-rcm2-esm310-rsr0-rcr100-esr100.npz,,,,,0,9,9,317,,right,red,1.48,181.3157699108124,181.81114101409912,,,1,,7,3,lightness,readingArea,realistic,75,2023-03-25_12h00.29.698,tripletExp_regina_11082022,2022.2.4,119.8639696846726,
13,10,11,0,0.111111111111111,3.10526315789474,0,0.694444444444444,1.0,0,1.0,1.0,ReadingArea_rsl0-rcl11-esl310-rsm0-rcm69-esm100-rsr0-rcr100-esr100,exr/ReadingArea_rsl0-rcl11-esl310-rsm0-rcm69-esm100-rsr0-rcr100-esr100.exr,ReadingArea_rsl0-rcl11-esl310-rsm0-rcm69-esm100-rsr0-rcr100-esr100.npz,,,,,0,10,10,320,,right,red,1.44,183.50363898277283,183.96534991264343,,,1,,7,3,lightness,readingArea,realistic,75,2023-03-25_12h00.29.698,tripletExp_regina_11082022,2022.2.4,119.8639696846726,
14,13,0,0,0.25,3.10526315789474,0,0.111111111111111,3.10526315789474,0,0.027777777777778,0.298245614035088,ReadingArea_rsl0-rcl25-esl310-rsm0-rcm11-esm310-rsr0-rcr2-esr29,exr/ReadingArea_rsl0-rcl25-esl310-rsm0-rcm11-esm310-rsr0-rcr2-esr29.exr,ReadingArea_rsl0-rcl25-esl310-rsm0-rcm11-esm310-rsr0-rcr2-esr29.npz,,,,,0,11,11,417,,right,red,0.97,185.6554977893829,186.1137638092041,,,1,,7,3,lightness,readingArea,realistic,75,2023-03-25_12h00.29.698,tripletExp_regina_11082022,2022.2.4,119.8639696846726,
8,2,0,0,0.25,1.0,0,0.25,0.298245614035088,0,0.027777777777778,0.298245614035088,ReadingArea_rsl0-rcl25-esl100-rsm0-rcm25-esm29-rsr0-rcr2-esr29,exr/ReadingArea_rsl0-rcl25-esl100-rsm0-rcm25-esm29-rsr0-rcr2-esr29.exr,ReadingArea_rsl0-rcl25-esl100-rsm0-rcm25-esm29-rsr0-rcr2-esr29.npz,,,,,0,12,12,574,,right,red,1.32,187.79996585845947,188.39958095550537,,,1,,7,3,lightness,readingArea,realistic,75,2023-03-25_12h00.29.698,tripletExp_regina_11082022,2022.2.4,119.8639696846726,
1,14,5,0,0.111111111111111,0.298245614035088,0,0.25,3.10526315789474,0,1.0,0.298245614035088,ReadingArea_rsl0-rcl11-esl29-rsm0-rcm25-esm310-rsr0-rcr100-esr29,exr/ReadingArea_rsl0-rcl11-esl29-rsm0-rcm25-esm310-rsr0-rcr100-esr29.exr,ReadingArea_rsl0-rcl11-esl29-rsm0-rcm25-esm310-rsr0-rcr100-esr29.npz,,,,,0,13,13,509,,right,red,1.04,190.08160495758057,190.54079580307007,,,1,,7,3,lightness,readingArea,realistic,75,2023-03-25_12h00.29.698,tripletExp_regina_11082022,2022.2.4,119.8639696846726,
8,13,2,0,0.25,1.0,0,0.111111111111111,3.10526315789474,0,0.25,0.298245614035088,ReadingArea_rsl0-rcl25-esl100-rsm0-rcm11-esm310-rsr0-rcr25-esr29,exr/ReadingArea_rsl0-rcl25-esl100-rsm0-rcm11-esm310-rsr0-rcr25-esr29.exr,ReadingArea_rsl0-rcl25-esl100-rsm0-rcm11-esm310-rsr0-rcr25-esr29.npz,,,,,0,14,14,376,,left,green,1.0,192.23730397224423,192.7128758430481,,,1,,7,3,lightness,readingArea,realistic,75,2023-03-25_12h00.29.698,tripletExp_regina_11082022,2022.2.4,119.8639696846726,
11,9,4,0,1.0,1.0,0,0.444444444444444,1.0,0,0.694444444444444,0.298245614035088,ReadingArea_rsl0-rcl100-esl100-rsm0-rcm44-esm100-rsr0-rcr69-esr29,exr/ReadingArea_rsl0-rcl100-esl100-rsm0-rcm44-esm100-rsr0-rcr69-esr29.exr,ReadingArea_rsl0-rcl100-esl100-rsm0-rcm44-esm100-rsr0-rcr69-esr29.npz,,,,,0,15,15,26,,right,red,1.2,194.4346899986267,194.9666609764099,,,1,,7,3,lightness,readingArea,realistic,75,2023-03-25_12h00.29.698,tripletExp_regina_11082022,2022.2.4,119.8639696846726,
8,3,9,0,0.25,1.0,0,0.444444444444444,0.298245614035088,0,0.444444444444444,1.0,ReadingArea_rsl0-rcl25-esl100-rsm0-rcm44-esm29-rsr0-rcr44-esr100,exr/ReadingArea_rsl0-rcl25-esl100-rsm0-rcm44-esm29-rsr0-rcr44-esr100.exr,ReadingArea_rsl0-rcl25-esl100-rsm0-rcm44-esm29-rsr0-rcr44-esr100.npz,,,,,0,16,16,15,,left,green,1.35,196.6890089511872,197.15117979049683,,,1,,7,3,lightness,readingArea,realistic,75,2023-03-25_12h00.29.698,tripletExp_regina_11082022,2022.2.4,119.8639696846726,
2,0,13,0,0.25,0.298245614035088,0,0.027777777777778,0.298245614035088,0,0.111111111111111,3.10526315789474,ReadingArea_rsl0-rcl25-esl29-rsm0-rcm2-esm29-rsr0-rcr11-esr310,exr/ReadingArea_rsl0-rcl25-esl29-rsm0-rcm2-esm29-rsr0-rcr11-esr310.exr,ReadingArea_rsl0-rcl25-esl29-rsm0-rcm2-esm29-rsr0-rcr11-esr310.npz,,,,,0,17,17,50,,left,green,2.17,200.6319508552552,201.12633800506592,,,1,,7,3,lightness,readingArea,realistic,75,2023-03-25_12h00.29.698,tripletExp_regina_11082022,2022.2.4,119.8639696846726,
7,9,8,0,0.111111111111111,1.0,0,0.444444444444444,1.0,0,0.25,1.0,ReadingArea_rsl0-rcl11-esl100-rsm0-rcm44-esm100-rsr0-rcr25-esr100,exr/ReadingArea_rsl0-rcl11-esl100-rsm0-rcm44-esm100-rsr0-rcr25-esr100.exr,ReadingArea_rsl0-rcl11-esl100-rsm0-rcm44-esm100-rsr0-rcr25-esr100.npz,,,,,0,18,18,515,,right,red,2.28,204.6026909351349,205.2573997974396,,,1,,7,3,lightness,readingArea,realistic,75,2023-03-25_12h00.29.698,tripletExp_regina_11082022,2022.2.4,119.8639696846726,
6,2,5,0,0.027777777777778,1.0,0,0.25,0.298245614035088,0,1.0,0.298245614035088,ReadingArea_rsl0-rcl2-esl100-rsm0-rcm25-esm29-rsr0-rcr100-esr29,exr/ReadingArea_rsl0-rcl2-esl100-rsm0-rcm25-esm29-rsr0-rcr100-esr29.exr,ReadingArea_rsl0-rcl2-esl100-rsm0-rcm25-esm29-rsr0-rcr100-esr29.npz,,,,,0,19,19,504,,left,green,1.16,206.9561297893524,207.43344402313232,,,1,,7,3,lightness,readingArea,realistic,75,2023-03-25_12h00.29.698,tripletExp_regina_11082022,2022.2.4,119.8639696846726,
1,9,11,0,0.111111111111111,0.298245614035088,0,0.444444444444444,1.0,0,1.0,1.0,ReadingArea_rsl0-rcl11-esl29-rsm0-rcm44-esm100-rsr0-rcr100-esr100,exr/ReadingArea_rsl0-rcl11-esl29-rsm0-rcm44-esm100-rsr0-rcr100-esr100.exr,ReadingArea_rsl0-rcl11-esl29-rsm0-rcm44-esm100-rsr0-rcr100-esr100.npz,,,,,0,20,20,215,,right,red,0.83,209.1507248878479,209.6177279949188,,,1,,7,3,lightness,readingArea,realistic,75,2023-03-25_12h00.29.698,tripletExp_regina_11082022,2022.2.4,119.8639696846726,
9,13,0,0,0.444444444444444,1.0,0,0.111111111111111,3.10526315789474,0,0.027777777777778,0.298245614035088,ReadingArea_rsl0-rcl44-esl100-rsm0-rcm11-esm310-rsr0-rcr2-esr29,exr/ReadingArea_rsl0-rcl44-esl100-rsm0-rcm11-esm310-rsr0-rcr2-esr29.exr,ReadingArea_rsl0-rcl44-esl100-rsm0-rcm11-esm310-rsr0-rcr2-esr29.npz,,,,,0,21,21,205,,left,green,1.13,211.3253049850464,211.88427901268005,,,1,,7,3,lightness,readingArea,realistic,75,2023-03-25_12h00.29.698,tripletExp_regina_11082022,2022.2.4,119.8639696846726,
9,8,0,0,0.444444444444444,1.0,0,0.25,1.0,0,0.027777777777778,0.298245614035088,ReadingArea_rsl0-rcl44-esl100-rsm0-rcm25-esm100-rsr0-rcr2-esr29,exr/ReadingArea_rsl0-rcl44-esl100-rsm0-rcm25-esm100-rsr0-rcr2-esr29.exr,ReadingArea_rsl0-rcl44-esl100-rsm0-rcm25-esm100-rsr0-rcr2-esr29.npz,,,,,0,22,22,66,,left,green,0.96,213.584774017334,214.13346886634827,,,1,,7,3,lightness,readingArea,realistic,75,2023-03-25_12h00.29.698,tripletExp_regina_11082022,2022.2.4,119.8639696846726,
0,10,14,0,0.027777777777778,0.298245614035088,0,0.694444444444444,1.0,0,0.25,3.10526315789474,ReadingArea_rsl0-rcl2-esl29-rsm0-rcm69-esm100-rsr0-rcr25-esr310,exr/ReadingArea_rsl0-rcl2-esl29-rsm0-rcm69-esm100-rsr0-rcr25-esr310.exr,ReadingArea_rsl0-rcl2-esl29-rsm0-rcm69-esm100-rsr0-rcr25-esr310.npz,,,,,0,23,23,31,,right,red,1.01,215.82613682746887,216.31148481369016,,,1,,7,3,lightness,readingArea,realistic,75,2023-03-25_12h00.29.698,tripletExp_regina_11082022,2022.2.4,119.8639696846726,
3,9,13,0,0.444444444444444,0.298245614035088,0,0.444444444444444,1.0,0,0.111111111111111,3.10526315789474,ReadingArea_rsl0-rcl44-esl29-rsm0-rcm44-esm100-rsr0-rcr11-esr310,exr/ReadingArea_rsl0-rcl44-esl29-rsm0-rcm44-esm100-rsr0-rcr11-esr310.exr,ReadingArea_rsl0-rcl44-esl29-rsm0-rcm44-esm100-rsr0-rcr11-esr310.npz,,,,,0,24,24,341,,right,red,2.77,219.7777099609375,220.2771728038788,,,1,,7,3,lightness,readingArea,realistic,75,2023-03-25_12h00.29.698,tripletExp_regina_11082022,2022.2.4,119.8639696846726,
12,5,2,0,0.027777777777778,3.10526315789474,0,1.0,0.298245614035088,0,0.25,0.298245614035088,ReadingArea_rsl0-rcl2-esl310-rsm0-rcm100-esm29-rsr0-rcr25-esr29,exr/ReadingArea_rsl0-rcl2-esl310-rsm0-rcm100-esm29-rsr0-rcr25-esr29.exr,ReadingArea_rsl0-rcl2-esl310-rsm0-rcm100-esm29-rsr0-rcr25-esr29.npz,,,,,0,25,25,415,,right,red,2.17,223.7575409412384,,,,1,,7,3,lightness,readingArea,realistic,75,2023-03-25_12h00.29.698,tripletExp_regina_11082022,2022.2.4,119.8639696846726,
7,8,12,0,0.111111111111111,1.0,0,0.25,1.0,0,0.027777777777778,3.10526315789474,ReadingArea_rsl0-rcl11-esl100-rsm0-rcm25-esm100-rsr0-rcr2-esr310,exr/ReadingArea_rsl0-rcl11-esl100-rsm0-rcm25-esm100-rsr0-rcr2-esr310.exr,ReadingArea_rsl0-rcl11-esl100-rsm0-rcm25-esm100-rsr0-rcr2-esr310.npz,,,,,0,26,26,271,,left,green,1.39,225.95200896263125,226.46115398406985,,,1,,7,3,lightness,readingArea,realistic,75,2023-03-25_12h00.29.698,tripletExp_regina_11082022,2022.2.4,119.8639696846726,
13,8,5,0,0.111111111111111,3.10526315789474,0,0.25,1.0,0,1.0,0.298245614035088,ReadingArea_rsl0-rcl11-esl310-rsm0-rcm25-esm100-rsr0-rcr100-esr29,exr/ReadingArea_rsl0-rcl11-esl310-rsm0-rcm25-esm100-rsr0-rcr100-esr29.exr,ReadingArea_rsl0-rcl11-esl310-rsm0-rcm25-esm100-rsr0-rcr100-esr29.npz,,,,,0,27,27,209,,left,green,2.25,229.9556889533997,230.5472948551178,,,1,,7,3,lightness,readingArea,realistic,75,2023-03-25_12h00.29.698,tripletExp_regina_11082022,2022.2.4,119.8639696846726,
11,6,14,0,1.0,1.0,0,0.027777777777778,1.0,0,0.25,3.10526315789474,ReadingArea_rsl0-rcl100-esl100-rsm0-rcm2-esm100-rsr0-rcr25-esr310,exr/ReadingArea_rsl0-rcl100-esl100-rsm0-rcm2-esm100-rsr0-rcr25-esr310.exr,ReadingArea_rsl0-rcl100-esl100-rsm0-rcm2-esm100-rsr0-rcr25-esr310.npz,,,,,0,28,28,305,,right,red,1.05,232.24516201019287,232.702360868454,,,1,,7,3,lightness,readingArea,realistic,75,2023-03-25_12h00.29.698,tripletExp_regina_11082022,2022.2.4,119.8639696846726,
4,14,12,0,0.694444444444444,0.298245614035088,0,0.25,3.10526315789474,0,0.027777777777778,3.10526315789474,ReadingArea_rsl0-rcl69-esl29-rsm0-rcm25-esm310-rsr0-rcr2-esr310,exr/ReadingArea_rsl0-rcl69-esl29-rsm0-rcm25-esm310-rsr0-rcr2-esr310.exr,ReadingArea_rsl0-rcl69-esl29-rsm0-rcm25-esm310-rsr0-rcr2-esr310.npz,,,,,0,29,29,392,,left,green,1.05,234.4095368385315,234.90613985061648,,,1,,7,3,lightness,readingArea,realistic,75,2023-03-25_12h00.29.698,tripletExp_regina_11082022,2022.2.4,119.8639696846726,
14,5,13,0,0.25,3.10526315789474,0,1.0,0.298245614035088,0,0.111111111111111,3.10526315789474,ReadingArea_rsl0-rcl25-esl310-rsm0-rcm100-esm29-rsr0-rcr11-esr310,exr/ReadingArea_rsl0-rcl25-esl310-rsm0-rcm100-esm29-rsr0-rcr11-esr310.exr,ReadingArea_rsl0-rcl25-esl310-rsm0-rcm100-esm29-rsr0-rcr11-esr310.npz,,,,,0,30,30,524,,right,red,1.11,236.6125128269196,237.11175394058228,,,1,,7,3,lightness,readingArea,realistic,75,2023-03-25_12h00.29.698,tripletExp_regina_11082022,2022.2.4,119.8639696846726,
13,11,2,0,0.111111111111111,3.10526315789474,0,1.0,1.0,0,0.25,0.298245614035088,ReadingArea_rsl0-rcl11-esl310-rsm0-rcm100-esm100-rsr0-rcr25-esr29,exr/ReadingArea_rsl0-rcl11-esl310-rsm0-rcm100-esm100-rsr0-rcr25-esr29.exr,ReadingArea_rsl0-rcl11-esl310-rsm0-rcm100-esm100-rsr0-rcr25-esr29.npz,,,,,0,31,31,55,,left,green,1.13,238.7993438243866,239.2805359363556,,,1,,7,3,lightness,readingArea,realistic,75,2023-03-25_12h00.29.698,tripletExp_regina_11082022,2022.2.4,119.8639696846726,
12,9,14,0,0.027777777777778,3.10526315789474,0,0.444444444444444,1.0,0,0.25,3.10526315789474,ReadingArea_rsl0-rcl2-esl310-rsm0-rcm44-esm100-rsr0-rcr25-esr310,exr/ReadingArea_rsl0-rcl2-esl310-rsm0-rcm44-esm100-rsr0-rcr25-esr310.exr,ReadingArea_rsl0-rcl2-esl310-rsm0-rcm44-esm100-rsr0-rcr25-esr310.npz,,,,,0,32,32,123,,right,red,0.83,240.9714229106903,241.5687608718872,,,1,,7,3,lightness,readingArea,realistic,75,2023-03-25_12h00.29.698,tripletExp_regina_11082022,2022.2.4,119.8639696846726,
11,5,2,0,1.0,1.0,0,1.0,0.298245614035088,0,0.25,0.298245614035088,ReadingArea_rsl0-rcl100-esl100-rsm0-rcm100-esm29-rsr0-rcr25-esr29,exr/ReadingArea_rsl0-rcl100-esl100-rsm0-rcm100-esm29-rsr0-rcr25-esr29.exr,ReadingArea_rsl0-rcl100-esl100-rsm0-rcm100-esm29-rsr0-rcr25-esr29.npz,,,,,0,33,33,596,,left,green,1.24,243.26001286506653,243.71739292144773,,,1,,7,3,lightness,readingArea,realistic,75,2023-03-25_12h00.29.698,tripletExp_regina_11082022,2022.2.4,119.8639696846726,
0,10,12,0,0.027777777777778,0.298245614035088,0,0.694444444444444,1.0,0,0.027777777777778,3.10526315789474,ReadingArea_rsl0-rcl2-esl29-rsm0-rcm69-esm100-rsr0-rcr2-esr310,exr/ReadingArea_rsl0-rcl2-esl29-rsm0-rcm69-esm100-rsr0-rcr2-esr310.exr,ReadingArea_rsl0-rcl2-esl29-rsm0-rcm69-esm100-rsr0-rcr2-esr310.npz,,,,,0,34,34,531,,right,red,0.89,245.40803599357605,245.8889307975769,,,1,,7,3,lightness,readingArea,realistic,75,2023-03-25_12h00.29.698,tripletExp_regina_11082022,2022.2.4,119.8639696846726,
2,6,13,0,0.25,0.298245614035088,0,0.027777777777778,1.0,0,0.111111111111111,3.10526315789474,ReadingArea_rsl0-rcl25-esl29-rsm0-rcm2-esm100-rsr0-rcr11-esr310,exr/ReadingArea_rsl0-rcl25-esl29-rsm0-rcm2-esm100-rsr0-rcr11-esr310.exr,ReadingArea_rsl0-rcl25-esl29-rsm0-rcm2-esm100-rsr0-rcr11-esr310.npz,,,,,0,35,35,388,,left,green,1.27,247.58534789085388,248.06629180908203,,,1,,7,3,lightness,readingArea,realistic,75,2023-03-25_12h00.29.698,tripletExp_regina_11082022,2022.2.4,119.8639696846726,
12,6,9,0,0.027777777777778,3.10526315789474,0,0.027777777777778,1.0,0,0.444444444444444,1.0,ReadingArea_rsl0-rcl2-esl310-rsm0-rcm2-esm100-rsr0-rcr44-esr100,exr/ReadingArea_rsl0-rcl2-esl310-rsm0-rcm2-esm100-rsr0-rcr44-esr100.exr,ReadingArea_rsl0-rcl2-esl310-rsm0-rcm2-esm100-rsr0-rcr44-esr100.npz,,,,,0,36,36,177,,left,green,1.06,249.75718784332275,250.37658286094663,,,1,,7,3,lightness,readingArea,realistic,75,2023-03-25_12h00.29.698,tripletExp_regina_11082022,2022.2.4,119.8639696846726,
0,4,7,0,0.027777777777778,0.298245614035088,0,0.694444444444444,0.298245614035088,0,0.111111111111111,1.0,ReadingArea_rsl0-rcl2-esl29-rsm0-rcm69-esm29-rsr0-rcr11-esr100,exr/ReadingArea_rsl0-rcl2-esl29-rsm0-rcm69-esm29-rsr0-rcr11-esr100.exr,ReadingArea_rsl0-rcl2-esl29-rsm0-rcm69-esm29-rsr0-rcr11-esr100.npz,,,,,0,37,37,200,,right,red,1.4,252.0566668510437,252.5017828941345,,,1,,7,3,lightness,readingArea,realistic,75,2023-03-25_12h00.29.698,tripletExp_regina_11082022,2022.2.4,119.8639696846726,
12,11,13,0,0.027777777777778,3.10526315789474,0,1.0,1.0,0,0.111111111111111,3.10526315789474,ReadingArea_rsl0-rcl2-esl310-rsm0-rcm100-esm100-rsr0-rcr11-esr310,exr/ReadingArea_rsl0-rcl2-esl310-rsm0-rcm100-esm100-rsr0-rcr11-esr310.exr,ReadingArea_rsl0-rcl2-esl310-rsm0-rcm100-esm100-rsr0-rcr11-esr310.npz,,,,,0,38,38,151,,right,red,1.15,254.19978284835813,254.66592979431152,,,1,,7,3,lightness,readingArea,realistic,75,2023-03-25_12h00.29.698,tripletExp_regina_11082022,2022.2.4,119.8639696846726,
4,12,2,0,0.694444444444444,0.298245614035088,0,0.027777777777778,3.10526315789474,0,0.25,0.298245614035088,ReadingArea_rsl0-rcl69-esl29-rsm0-rcm2-esm310-rsr0-rcr25-esr29,exr/ReadingArea_rsl0-rcl69-esl29-rsm0-rcm2-esm310-rsr0-rcr25-esr29.exr,ReadingArea_rsl0-rcl69-esl29-rsm0-rcm2-esm310-rsr0-rcr25-esr29.npz,,,,,0,39,39,543,,right,red,1.08,256.35400795936584,,,,1,,7,3,lightness,readingArea,realistic,75,2023-03-25_12h00.29.698,tripletExp_regina_11082022,2022.2.4,119.8639696846726,
9,12,0,0,0.444444444444444,1.0,0,0.027777777777778,3.10526315789474,0,0.027777777777778,0.298245614035088,ReadingArea_rsl0-rcl44-esl100-rsm0-rcm2-esm310-rsr0-rcr2-esr29,exr/ReadingArea_rsl0-rcl44-esl100-rsm0-rcm2-esm310-rsr0-rcr2-esr29.exr,ReadingArea_rsl0-rcl44-esl100-rsm0-rcm2-esm310-rsr0-rcr2-esr29.npz,,,,,0,40,40,175,,right,red,1.04,258.638876914978,259.1124339103699,,,1,,7,3,lightness,readingArea,realistic,75,2023-03-25_12h00.29.698,tripletExp_regina_11082022,2022.2.4,119.8639696846726,
14,12,0,0,0.25,3.10526315789474,0,0.027777777777778,3.10526315789474,0,0.027777777777778,0.298245614035088,ReadingArea_rsl0-rcl25-esl310-rsm0-rcm2-esm310-rsr0-rcr2-esr29,exr/ReadingArea_rsl0-rcl25-esl310-rsm0-rcm2-esm310-rsr0-rcr2-esr29.exr,ReadingArea_rsl0-rcl25-esl310-rsm0-rcm2-esm310-rsr0-rcr2-esr29.npz,,,,,0,41,41,409,,right,red,0.85,260.8260979652405,261.2661738395691,,,1,,7,3,lightness,readingArea,realistic,75,2023-03-25_12h00.29.698,tripletExp_regina_11082022,2022.2.4,119.8639696846726,
4,14,1,0,0.694444444444444,0.298245614035088,0,0.25,3.10526315789474,0,0.111111111111111,0.298245614035088,ReadingArea_rsl0-rcl69-esl29-rsm0-rcm25-esm310-rsr0-rcr11-esr29,exr/ReadingArea_rsl0-rcl69-esl29-rsm0-rcm25-esm310-rsr0-rcr11-esr29.exr,ReadingArea_rsl0-rcl69-esl29-rsm0-rcm25-esm310-rsr0-rcr11-esr29.npz,,,,,0,42,42,477,,left,green,0.96,262.9875309467316,263.4663128852844,,,1,,7,3,lightness,readingArea,realistic,75,2023-03-25_12h00.29.698,tripletExp_regina_11082022,2022.2.4,119.8639696846726,
4,12,6,0,0.694444444444444,0.298245614035088,0,0.027777777777778,3.10526315789474,0,0.027777777777778,1.0,ReadingArea_rsl0-rcl69-esl29-rsm0-rcm2-esm310-rsr0-rcr2-esr100,exr/ReadingArea_rsl0-rcl69-esl29-rsm0-rcm2-esm310-rsr0-rcr2-esr100.exr,ReadingArea_rsl0-rcl69-esl29-rsm0-rcm2-esm310-rsr0-rcr2-esr100.npz,,,,,0,43,43,99,,right,red,0.9,265.16574883461,265.6913869380951,,,1,,7,3,lightness,readingArea,realistic,75,2023-03-25_12h00.29.698,tripletExp_regina_11082022,2022.2.4,119.8639696846726,
13,0,8,0,0.111111111111111,3.10526315789474,0,0.027777777777778,0.298245614035088,0,0.25,1.0,ReadingArea_rsl0-rcl11-esl310-rsm0-rcm2-esm29-rsr0-rcr25-esr100,exr/ReadingArea_rsl0-rcl11-esl310-rsm0-rcm2-esm29-rsr0-rcr25-esr100.exr,ReadingArea_rsl0-rcl11-esl310-rsm0-rcm2-esm29-rsr0-rcr25-esr100.npz,,,,,0,44,44,249,,right,red,1.55,267.386883020401,268.06000089645386,,,1,,7,3,lightness,readingArea,realistic,75,2023-03-25_12h00.29.698,tripletExp_regina_11082022,2022.2.4,119.8639696846726,
13,6,10,0,0.111111111111111,3.10526315789474,0,0.027777777777778,1.0,0,0.694444444444444,1.0,ReadingArea_rsl0-rcl11-esl310-rsm0-rcm2-esm100-rsr0-rcr69-esr100,exr/ReadingArea_rsl0-rcl11-esl310-rsm0-rcm2-esm100-rsr0-rcr69-esr100.exr,ReadingArea_rsl0-rcl11-esl310-rsm0-rcm2-esm100-rsr0-rcr69-esr100.npz,,,,,0,45,45,593,,left,green,1.22,269.7515938282013,270.211678981781,,,1,,7,3,lightness,readingArea,realistic,75,2023-03-25_12h00.29.698,tripletExp_regina_11082022,2022.2.4,119.8639696846726,
14,13,6,0,0.25,3.10526315789474,0,0.111111111111111,3.10526315789474,0,0.027777777777778,1.0,ReadingArea_rsl0-rcl25-esl310-rsm0-rcm11-esm310-rsr0-rcr2-esr100,exr/ReadingArea_rsl0-rcl25-esl310-rsm0-rcm11-esm310-rsr0-rcr2-esr100.exr,ReadingArea_rsl0-rcl25-esl310-rsm0-rcm11-esm310-rsr0-rcr2-esr100.npz,,,,,0,46,46,102,,right,red,1.07,271.91917991638184,272.5184488296509,,,1,,7,3,lightness,readingArea,realistic,75,2023-03-25_12h00.29.698,tripletExp_regina_11082022,2022.2.4,119.8639696846726,
8,7,13,0,0.25,1.0,0,0.111111111111111,1.0,0,0.111111111111111,3.10526315789474,ReadingArea_rsl0-rcl25-esl100-rsm0-rcm11-esm100-rsr0-rcr11-esr310,exr/ReadingArea_rsl0-rcl25-esl100-rsm0-rcm11-esm100-rsr0-rcr11-esr310.exr,ReadingArea_rsl0-rcl25-esl100-rsm0-rcm11-esm100-rsr0-rcr11-esr310.npz,,,,,0,47,47,512,,left,green,1.45,274.2068898677826,,,,1,,7,3,lightness,readingArea,realistic,75,2023-03-25_12h00.29.698,tripletExp_regina_11082022,2022.2.4,119.8639696846726,
14,11,4,0,0.25,3.10526315789474,0,1.0,1.0,0,0.694444444444444,0.298245614035088,ReadingArea_rsl0-rcl25-esl310-rsm0-rcm100-esm100-rsr0-rcr69-esr29,exr/ReadingArea_rsl0-rcl25-esl310-rsm0-rcm100-esm100-rsr0-rcr69-esr29.exr,ReadingArea_rsl0-rcl25-esl310-rsm0-rcm100-esm100-rsr0-rcr69-esr29.npz,,,,,0,48,48,370,,left,green,1.18,276.3817069530487,276.8334729671478,,,1,,7,3,lightness,readingArea,realistic,75,2023-03-25_12h00.29.698,tripletExp_regina_11082022,2022.2.4,119.8639696846726,
10,4,9,0,0.694444444444444,1.0,0,0.694444444444444,0.298245614035088,0,0.444444444444444,1.0,ReadingArea_rsl0-rcl69-esl100-rsm0-rcm69-esm29-rsr0-rcr44-esr100,exr/ReadingArea_rsl0-rcl69-esl100-rsm0-rcm69-esm29-rsr0-rcr44-esr100.exr,ReadingArea_rsl0-rcl69-esl100-rsm0-rcm69-esm29-rsr0-rcr44-esr100.npz,,,,,0,49,49,452,,right,red,2.29,280.2931928634644,280.7742228507996,,,1,,7,3,lightness,readingArea,realistic,75,2023-03-25_12h00.29.698,tripletExp_regina_11082022,2022.2.4,119.8639696846726,
9,0,6,0,0.444444444444444,1.0,0,0.027777777777778,0.298245614035088,0,0.027777777777778,1.0,ReadingArea_rsl0-rcl44-esl100-rsm0-rcm2-esm29-rsr0-rcr2-esr100,exr/ReadingArea_rsl0-rcl44-esl100-rsm0-rcm2-esm29-rsr0-rcr2-esr100.exr,ReadingArea_rsl0-rcl44-esl100-rsm0-rcm2-esm29-rsr0-rcr2-esr100.npz,,,,,0,50,50,362,,right,red,1.01,282.4768760204315,283.0390908718109,,,1,,7,3,lightness,readingArea,realistic,75,2023-03-25_12h00.29.698,tripletExp_regina_11082022,2022.2.4,119.8639696846726,
0,8,9,0,0.027777777777778,0.298245614035088,0,0.25,1.0,0,0.444444444444444,1.0,ReadingArea_rsl0-rcl2-esl29-rsm0-rcm25-esm100-rsr0-rcr44-esr100,exr/ReadingArea_rsl0-rcl2-esl29-rsm0-rcm25-esm100-rsr0-rcr44-esr100.exr,ReadingArea_rsl0-rcl2-esl29-rsm0-rcm25-esm100-rsr0-rcr44-esr100.npz,,,,,0,51,51,541,,right,red,1.13,284.73177099227905,285.26024198532104,,,1,,7,3,lightness,readingArea,realistic,75,2023-03-25_12h00.29.698,tripletExp_regina_11082022,2022.2.4,119.8639696846726,
6,3,13,0,0.027777777777778,1.0,0,0.444444444444444,0.298245614035088,0,0.111111111111111,3.10526315789474,ReadingArea_rsl0-rcl2-esl100-rsm0-rcm44-esm29-rsr0-rcr11-esr310,exr/ReadingArea_rsl0-rcl2-esl100-rsm0-rcm44-esm29-rsr0-rcr11-esr310.exr,ReadingArea_rsl0-rcl2-esl100-rsm0-rcm44-esm29-rsr0-rcr11-esr310.npz,,,,,0,52,52,228,,right,red,1.13,286.95076298713684,,,,1,,7,3,lightness,readingArea,realistic,75,2023-03-25_12h00.29.698,tripletExp_regina_11082022,2022.2.4,119.8639696846726,
0,5,1,0,0.027777777777778,0.298245614035088,0,1.0,0.298245614035088,0,0.111111111111111,0.298245614035088,ReadingArea_rsl0-rcl2-esl29-rsm0-rcm100-esm29-rsr0-rcr11-esr29,exr/ReadingArea_rsl0-rcl2-esl29-rsm0-rcm100-esm29-rsr0-rcr11-esr29.exr,ReadingArea_rsl0-rcl2-esl29-rsm0-rcm100-esm29-rsr0-rcr11-esr29.npz,,,,,0,53,53,367,,right,red,1.09,289.16524600982666,289.6346559524536,,,1,,7,3,lightness,readingArea,realistic,75,2023-03-25_12h00.29.698,tripletExp_regina_11082022,2022.2.4,119.8639696846726,
10,5,2,0,0.694444444444444,1.0,0,1.0,0.298245614035088,0,0.25,0.298245614035088,ReadingArea_rsl0-rcl69-esl100-rsm0-rcm100-esm29-rsr0-rcr25-esr29,exr/ReadingArea_rsl0-rcl69-esl100-rsm0-rcm100-esm29-rsr0-rcr25-esr29.exr,ReadingArea_rsl0-rcl69-esl100-rsm0-rcm100-esm29-rsr0-rcr25-esr29.npz,,,,,0,54,54,299,,left,green,0.91,291.3390388488769,291.79754281044006,,,1,,7,3,lightness,readingArea,realistic,75,2023-03-25_12h00.29.698,tripletExp_regina_11082022,2022.2.4,119.8639696846726,
10,3,0,0,0.694444444444444,1.0,0,0.444444444444444,0.298245614035088,0,0.027777777777778,0.298245614035088,ReadingArea_rsl0-rcl69-esl100-rsm0-rcm44-esm29-rsr0-rcr2-esr29,exr/ReadingArea_rsl0-rcl69-esl100-rsm0-rcm44-esm29-rsr0-rcr2-esr29.exr,ReadingArea_rsl0-rcl69-esl100-rsm0-rcm44-esm29-rsr0-rcr2-esr29.npz,,,,,0,55,55,203,,left,green,1.01,293.51992082595825,294.0348539352417,,,1,,7,3,lightness,readingArea,realistic,75,2023-03-25_12h00.29.698,tripletExp_regina_11082022,2022.2.4,119.8639696846726,
1,13,7,0,0.111111111111111,0.298245614035088,0,0.111111111111111,3.10526315789474,0,0.111111111111111,1.0,ReadingArea_rsl0-rcl11-esl29-rsm0-rcm11-esm310-rsr0-rcr11-esr100,exr/ReadingArea_rsl0-rcl11-esl29-rsm0-rcm11-esm310-rsr0-rcr11-esr100.exr,ReadingArea_rsl0-rcl11-esl29-rsm0-rcm11-esm310-rsr0-rcr11-esr100.npz,,,,,0,56,56,158,,right,red,0.92,295.74536180496216,296.2170670032501,,,1,,7,3,lightness,readingArea,realistic,75,2023-03-25_12h00.29.698,tripletExp_regina_11082022,2022.2.4,119.8639696846726,
13,0,10,0,0.111111111111111,3.10526315789474,0,0.027777777777778,0.298245614035088,0,0.694444444444444,1.0,ReadingArea_rsl0-rcl11-esl310-rsm0-rcm2-esm29-rsr0-rcr69-esr100,exr/ReadingArea_rsl0-rcl11-esl310-rsm0-rcm2-esm29-rsr0-rcr69-esr100.exr,ReadingArea_rsl0-rcl11-esl310-rsm0-rcm2-esm29-rsr0-rcr69-esr100.npz,,,,,0,57,57,505,,left,green,2.51,299.6963329315185,300.172474861145,,,1,,7,3,lightness,readingArea,realistic,75,2023-03-25_12h00.29.698,tripletExp_regina_11082022,2022.2.4,119.8639696846726,
2,3,13,0,0.25,0.298245614035088,0,0.444444444444444,0.298245614035088,0,0.111111111111111,3.10526315789474,ReadingArea_rsl0-rcl25-esl29-rsm0-rcm44-esm29-rsr0-rcr11-esr310,exr/ReadingArea_rsl0-rcl25-esl29-rsm0-rcm44-esm29-rsr0-rcr11-esr310.exr,ReadingArea_rsl0-rcl25-esl29-rsm0-rcm44-esm29-rsr0-rcr11-esr310.npz,,,,,0,58,58,498,,left,green,1.07,301.87492179870605,302.5129408836365,,,1,,7,3,lightness,readingArea,realistic,75,2023-03-25_12h00.29.698,tripletExp_regina_11082022,2022.2.4,119.8639696846726,
0,14,6,0,0.027777777777778,0.298245614035088,0,0.25,3.10526315789474,0,0.027777777777778,1.0,ReadingArea_rsl0-rcl2-esl29-rsm0-rcm25-esm310-rsr0-rcr2-esr100,exr/ReadingArea_rsl0-rcl2-esl29-rsm0-rcm25-esm310-rsr0-rcr2-esr100.exr,ReadingArea_rsl0-rcl2-esl29-rsm0-rcm25-esm310-rsr0-rcr2-esr100.npz,,,,,0,59,59,499,,right,red,2.45,305.98461294174194,306.4649279117584,,,1,,7,3,lightness,readingArea,realistic,75,2023-03-25_12h00.29.698,tripletExp_regina_11082022,2022.2.4,119.8639696846726,
3,6,10,0,0.444444444444444,0.298245614035088,0,0.027777777777778,1.0,0,0.694444444444444,1.0,ReadingArea_rsl0-rcl44-esl29-rsm0-rcm2-esm100-rsr0-rcr69-esr100,exr/ReadingArea_rsl0-rcl44-esl29-rsm0-rcm2-esm100-rsr0-rcr69-esr100.exr,ReadingArea_rsl0-rcl44-esl29-rsm0-rcm2-esm100-rsr0-rcr69-esr100.npz,,,,,0,60,60,138,,left,green,1.06,308.17724084854126,308.67002987861633,,,1,,7,3,lightness,readingArea,realistic,75,2023-03-25_12h00.29.698,tripletExp_regina_11082022,2022.2.4,119.8639696846726,
10,11,12,0,0.694444444444444,1.0,0,1.0,1.0,0,0.027777777777778,3.10526315789474,ReadingArea_rsl0-rcl69-esl100-rsm0-rcm100-esm100-rsr0-rcr2-esr310,exr/ReadingArea_rsl0-rcl69-esl100-rsm0-rcm100-esm100-rsr0-rcr2-esr310.exr,ReadingArea_rsl0-rcl69-esl100-rsm0-rcm100-esm100-rsr0-rcr2-esr310.npz,,,,,0,61,61,533,,left,green,1.17,310.3845288753509,310.84046697616577,,,1,,7,3,lightness,readingArea,realistic,75,2023-03-25_12h00.29.698,tripletExp_regina_11082022,2022.2.4,119.8639696846726,
4,12,7,0,0.694444444444444,0.298245614035088,0,0.027777777777778,3.10526315789474,0,0.111111111111111,1.0,ReadingArea_rsl0-rcl69-esl29-rsm0-rcm2-esm310-rsr0-rcr11-esr100,exr/ReadingArea_rsl0-rcl69-esl29-rsm0-rcm2-esm310-rsr0-rcr11-esr100.exr,ReadingArea_rsl0-rcl69-esl29-rsm0-rcm2-esm310-rsr0-rcr11-esr100.npz,,,,,0,62,62,112,,right,red,2.11,314.3068618774414,314.94535088539124,,,1,,7,3,lightness,readingArea,realistic,75,2023-03-25_12h00.29.698,tripletExp_regina_11082022,2022.2.4,119.8639696846726,
14,7,0,0,0.25,3.10526315789474,0,0.111111111111111,1.0,0,0.027777777777778,0.298245614035088,ReadingArea_rsl0-rcl25-esl310-rsm0-rcm11-esm100-rsr0-rcr2-esr29,exr/ReadingArea_rsl0-rcl25-esl310-rsm0-rcm11-esm100-rsr0-rcr2-esr29.exr,ReadingArea_rsl0-rcl25-esl310-rsm0-rcm11-esm100-rsr0-rcr2-esr29.npz,,,,,0,63,63,412,,right,red,2.3,318.4052848815918,,,,1,,7,3,lightness,readingArea,realistic,75,2023-03-25_12h00.29.698,tripletExp_regina_11082022,2022.2.4,119.8639696846726,
13,1,4,0,0.111111111111111,3.10526315789474,0,0.111111111111111,0.298245614035088,0,0.694444444444444,0.298245614035088,ReadingArea_rsl0-rcl11-esl310-rsm0-rcm11-esm29-rsr0-rcr69-esr29,exr/ReadingArea_rsl0-rcl11-esl310-rsm0-rcm11-esm29-rsr0-rcr69-esr29.exr,ReadingArea_rsl0-rcl11-esl310-rsm0-rcm11-esm29-rsr0-rcr69-esr29.npz,,,,,0,64,64,396,,right,red,2.46,322.38418793678284,322.87715792655945,,,1,,7,3,lightness,readingArea,realistic,75,2023-03-25_12h00.29.698,tripletExp_regina_11082022,2022.2.4,119.8639696846726,
5,9,10,0,1.0,0.298245614035088,0,0.444444444444444,1.0,0,0.694444444444444,1.0,ReadingArea_rsl0-rcl100-esl29-rsm0-rcm44-esm100-rsr0-rcr69-esr100,exr/ReadingArea_rsl0-rcl100-esl29-rsm0-rcm44-esm100-rsr0-rcr69-esr100.exr,ReadingArea_rsl0-rcl100-esl29-rsm0-rcm44-esm100-rsr0-rcr69-esr100.npz,,,,,0,65,65,322,,left,green,2.09,326.3588478565216,326.8375380039215,,,1,,7,3,lightness,readingArea,realistic,75,2023-03-25_12h00.29.698,tripletExp_regina_11082022,2022.2.4,119.8639696846726,
9,11,13,0,0.444444444444444,1.0,0,1.0,1.0,0,0.111111111111111,3.10526315789474,ReadingArea_rsl0-rcl44-esl100-rsm0-rcm100-esm100-rsr0-rcr11-esr310,exr/ReadingArea_rsl0-rcl44-esl100-rsm0-rcm100-esm100-rsr0-rcr11-esr310.exr,ReadingArea_rsl0-rcl44-esl100-rsm0-rcm100-esm100-rsr0-rcr11-esr310.npz,,,,,0,66,66,254,,left,green,1.05,328.55945086479187,329.0386188030243,,,1,,7,3,lightness,readingArea,realistic,75,2023-03-25_12h00.29.698,tripletExp_regina_11082022,2022.2.4,119.8639696846726,
12,3,11,0,0.027777777777778,3.10526315789474,0,0.444444444444444,0.298245614035088,0,1.0,1.0,ReadingArea_rsl0-rcl2-esl310-rsm0-rcm44-esm29-rsr0-rcr100-esr100,exr/ReadingArea_rsl0-rcl2-esl310-rsm0-rcm44-esm29-rsr0-rcr100-esr100.exr,ReadingArea_rsl0-rcl2-esl310-rsm0-rcm44-esm29-rsr0-rcr100-esr100.npz,,,,,0,67,67,83,,left,green,0.84,330.7277958393097,331.18406796455383,,,1,,7,3,lightness,readingArea,realistic,75,2023-03-25_12h00.29.698,tripletExp_regina_11082022,2022.2.4,119.8639696846726,
9,0,3,0,0.444444444444444,1.0,0,0.027777777777778,0.298245614035088,0,0.444444444444444,0.298245614035088,ReadingArea_rsl0-rcl44-esl100-rsm0-rcm2-esm29-rsr0-rcr44-esr29,exr/ReadingArea_rsl0-rcl44-esl100-rsm0-rcm2-esm29-rsr0-rcr44-esr29.exr,ReadingArea_rsl0-rcl44-esl100-rsm0-rcm2-esm29-rsr0-rcr44-esr29.npz,,,,,0,68,68,2,,right,red,0.93,332.87680888175964,333.36240792274475,,,1,,7,3,lightness,readingArea,realistic,75,2023-03-25_12h00.29.698,tripletExp_regina_11082022,2022.2.4,119.8639696846726,
3,9,0,0,0.444444444444444,0.298245614035088,0,0.444444444444444,1.0,0,0.027777777777778,0.298245614035088,ReadingArea_rsl0-rcl44-esl29-rsm0-rcm44-esm100-rsr0-rcr2-esr29,exr/ReadingArea_rsl0-rcl44-esl29-rsm0-rcm44-esm100-rsr0-rcr2-esr29.exr,ReadingArea_rsl0-rcl44-esl29-rsm0-rcm44-esm100-rsr0-rcr2-esr29.npz,,,,,0,69,69,551,,left,green,1.0,335.0786578655243,335.60735297203064,,,1,,7,3,lightness,readingArea,realistic,75,2023-03-25_12h00.29.698,tripletExp_regina_11082022,2022.2.4,119.8639696846726,
14,7,8,0,0.25,3.10526315789474,0,0.111111111111111,1.0,0,0.25,1.0,ReadingArea_rsl0-rcl25-esl310-rsm0-rcm11-esm100-rsr0-rcr25-esr100,exr/ReadingArea_rsl0-rcl25-esl310-rsm0-rcm11-esm100-rsr0-rcr25-esr100.exr,ReadingArea_rsl0-rcl25-esl310-rsm0-rcm11-esm100-rsr0-rcr25-esr100.npz,,,,,0,70,70,326,,right,red,1.15,337.3269648551941,337.8001809120178,,,1,,7,3,lightness,readingArea,realistic,75,2023-03-25_12h00.29.698,tripletExp_regina_11082022,2022.2.4,119.8639696846726,
8,10,6,0,0.25,1.0,0,0.694444444444444,1.0,0,0.027777777777778,1.0,ReadingArea_rsl0-rcl25-esl100-rsm0-rcm69-esm100-rsr0-rcr2-esr100,exr/ReadingArea_rsl0-rcl25-esl100-rsm0-rcm69-esm100-rsr0-rcr2-esr100.exr,ReadingArea_rsl0-rcl25-esl100-rsm0-rcm69-esm100-rsr0-rcr2-esr100.npz,,,,,0,71,71,129,,left,green,0.99,339.49946188926697,339.97312593460083,,,1,,7,3,lightness,readingArea,realistic,75,2023-03-25_12h00.29.698,tripletExp_regina_11082022,2022.2.4,119.8639696846726,
8,1,14,0,0.25,1.0,0,0.111111111111111,0.298245614035088,0,0.25,3.10526315789474,ReadingArea_rsl0-rcl25-esl100-rsm0-rcm11-esm29-rsr0-rcr25-esr310,exr/ReadingArea_rsl0-rcl25-esl100-rsm0-rcm11-esm29-rsr0-rcr25-esr310.exr,ReadingArea_rsl0-rcl25-esl100-rsm0-rcm11-esm29-rsr0-rcr25-esr310.npz,,,,,0,72,72,500,,left,green,1.01,341.6626739501953,342.1368029117584,,,1,,7,3,lightness,readingArea,realistic,75,2023-03-25_12h00.29.698,tripletExp_regina_11082022,2022.2.4,119.8639696846726,
5,14,11,0,1.0,0.298245614035088,0,0.25,3.10526315789474,0,1.0,1.0,ReadingArea_rsl0-rcl100-esl29-rsm0-rcm25-esm310-rsr0-rcr100-esr100,exr/ReadingArea_rsl0-rcl100-esl29-rsm0-rcm25-esm310-rsr0-rcr100-esr100.exr,ReadingArea_rsl0-rcl100-esl29-rsm0-rcm25-esm310-rsr0-rcr100-esr100.npz,,,,,0,73,73,98,,left,green,1.23,343.8583219051361,344.43044781684875,,,1,,7,3,lightness,readingArea,realistic,75,2023-03-25_12h00.29.698,tripletExp_regina_11082022,2022.2.4,119.8639696846726,
4,5,8,0,0.694444444444444,0.298245614035088,0,1.0,0.298245614035088,0,0.25,1.0,ReadingArea_rsl0-rcl69-esl29-rsm0-rcm100-esm29-rsr0-rcr25-esr100,exr/ReadingArea_rsl0-rcl69-esl29-rsm0-rcm100-esm29-rsr0-rcr25-esr100.exr,ReadingArea_rsl0-rcl69-esl29-rsm0-rcm100-esm29-rsr0-rcr25-esr100.npz,,,,,0,74,74,54,,left,green,4.45,349.67859983444214,349.884183883667,,,1,,7,3,lightness,readingArea,realistic,75,2023-03-25_12h00.29.698,tripletExp_regina_11082022,2022.2.4,119.8639696846726,
14,5,11,0,0.25,3.10526315789474,0,1.0,0.298245614035088,0,1.0,1.0,ReadingArea_rsl0-rcl25-esl310-rsm0-rcm100-esm29-rsr0-rcr100-esr100,exr/ReadingArea_rsl0-rcl25-esl310-rsm0-rcm100-esm29-rsr0-rcr100-esr100.exr,ReadingArea_rsl0-rcl25-esl310-rsm0-rcm100-esm29-rsr0-rcr100-esr100.npz,,,,,0,75,75,161,,left,green,1.39,406.8335959911346,407.304780960083,,,2,,7,3,lightness,readingArea,realistic,75,2023-03-25_12h00.29.698,tripletExp_regina_11082022,2022.2.4,119.8639696846726,
8,12,13,0,0.25,1.0,0,0.027777777777778,3.10526315789474,0,0.111111111111111,3.10526315789474,ReadingArea_rsl0-rcl25-esl100-rsm0-rcm2-esm310-rsr0-rcr11-esr310,exr/ReadingArea_rsl0-rcl25-esl100-rsm0-rcm2-esm310-rsr0-rcr11-esr310.exr,ReadingArea_rsl0-rcl25-esl100-rsm0-rcm2-esm310-rsr0-rcr11-esr310.npz,,,,,0,76,76,275,,left,green,1.32,409.0221939086914,409.5240578651428,,,2,,7,3,lightness,readingArea,realistic,75,2023-03-25_12h00.29.698,tripletExp_regina_11082022,2022.2.4,119.8639696846726,
13,10,3,0,0.111111111111111,3.10526315789474,0,0.694444444444444,1.0,0,0.444444444444444,0.298245614035088,ReadingArea_rsl0-rcl11-esl310-rsm0-rcm69-esm100-rsr0-rcr44-esr29,exr/ReadingArea_rsl0-rcl11-esl310-rsm0-rcm69-esm100-rsr0-rcr44-esr29.exr,ReadingArea_rsl0-rcl11-esl310-rsm0-rcm69-esm100-rsr0-rcr44-esr29.npz,,,,,0,77,77,224,,left,green,2.26,412.9849557876587,413.4682388305664,,,2,,7,3,lightness,readingArea,realistic,75,2023-03-25_12h00.29.698,tripletExp_regina_11082022,2022.2.4,119.8639696846726,
12,11,6,0,0.027777777777778,3.10526315789474,0,1.0,1.0,0,0.027777777777778,1.0,ReadingArea_rsl0-rcl2-esl310-rsm0-rcm100-esm100-rsr0-rcr2-esr100,exr/ReadingArea_rsl0-rcl2-esl310-rsm0-rcm100-esm100-rsr0-rcr2-esr100.exr,ReadingArea_rsl0-rcl2-esl310-rsm0-rcm100-esm100-rsr0-rcr2-esr100.npz,,,,,0,78,78,163,,left,green,1.12,415.1891248226166,415.733069896698,,,2,,7,3,lightness,readingArea,realistic,75,2023-03-25_12h00.29.698,tripletExp_regina_11082022,2022.2.4,119.8639696846726,
5,9,12,0,1.0,0.298245614035088,0,0.444444444444444,1.0,0,0.027777777777778,3.10526315789474,ReadingArea_rsl0-rcl100-esl29-rsm0-rcm44-esm100-rsr0-rcr2-esr310,exr/ReadingArea_rsl0-rcl100-esl29-rsm0-rcm44-esm100-rsr0-rcr2-esr310.exr,ReadingArea_rsl0-rcl100-esl29-rsm0-rcm44-esm100-rsr0-rcr2-esr310.npz,,,,,0,79,79,539,,left,green,1.01,417.418016910553,417.8561599254608,,,2,,7,3,lightness,readingArea,realistic,75,2023-03-25_12h00.29.698,tripletExp_regina_11082022,2022.2.4,119.8639696846726,
2,12,6,0,0.25,0.298245614035088,0,0.027777777777778,3.10526315789474,0,0.027777777777778,1.0,ReadingArea_rsl0-rcl25-esl29-rsm0-rcm2-esm310-rsr0-rcr2-esr100,exr/ReadingArea_rsl0-rcl25-esl29-rsm0-rcm2-esm310-rsr0-rcr2-esr100.exr,ReadingArea_rsl0-rcl25-esl29-rsm0-rcm2-esm310-rsr0-rcr2-esr100.npz,,,,,0,80,80,400,,right,red,2.58,421.295450925827,421.7689919471741,,,2,,7,3,lightness,readingArea,realistic,75,2023-03-25_12h00.29.698,tripletExp_regina_11082022,2022.2.4,119.8639696846726,
9,7,2,0,0.444444444444444,1.0,0,0.111111111111111,1.0,0,0.25,0.298245614035088,ReadingArea_rsl0-rcl44-esl100-rsm0-rcm11-esm100-rsr0-rcr25-esr29,exr/ReadingArea_rsl0-rcl44-esl100-rsm0-rcm11-esm100-rsr0-rcr25-esr29.exr,ReadingArea_rsl0-rcl44-esl100-rsm0-rcm11-esm100-rsr0-rcr25-esr29.npz,,,,,0,81,81,428,,right,red,1.02,423.45751786232,424.0022749900818,,,2,,7,3,lightness,readingArea,realistic,75,2023-03-25_12h00.29.698,tripletExp_regina_11082022,2022.2.4,119.8639696846726,
1,9,8,0,0.111111111111111,0.298245614035088,0,0.444444444444444,1.0,0,0.25,1.0,ReadingArea_rsl0-rcl11-esl29-rsm0-rcm44-esm100-rsr0-rcr25-esr100,exr/ReadingArea_rsl0-rcl11-esl29-rsm0-rcm44-esm100-rsr0-rcr25-esr100.exr,ReadingArea_rsl0-rcl11-esl29-rsm0-rcm44-esm100-rsr0-rcr25-esr100.npz,,,,,0,82,82,268,,right,red,1.07,425.6995189189911,426.1820168495178,,,2,,7,3,lightness,readingArea,realistic,75,2023-03-25_12h00.29.698,tripletExp_regina_11082022,2022.2.4,119.8639696846726,
14,2,6,0,0.25,3.10526315789474,0,0.25,0.298245614035088,0,0.027777777777778,1.0,ReadingArea_rsl0-rcl25-esl310-rsm0-rcm25-esm29-rsr0-rcr2-esr100,exr/ReadingArea_rsl0-rcl25-esl310-rsm0-rcm25-esm29-rsr0-rcr2-esr100.exr,ReadingArea_rsl0-rcl25-esl310-rsm0-rcm25-esm29-rsr0-rcr2-esr100.npz,,,,,0,83,83,350,,right,red,1.01,427.8754639625549,428.5190908908844,,,2,,7,3,lightness,readingArea,realistic,75,2023-03-25_12h00.29.698,tripletExp_regina_11082022,2022.2.4,119.8639696846726,
7,14,10,0,0.111111111111111,1.0,0,0.25,3.10526315789474,0,0.694444444444444,1.0,ReadingArea_rsl0-rcl11-esl100-rsm0-rcm25-esm310-rsr0-rcr69-esr100,exr/ReadingArea_rsl0-rcl11-esl100-rsm0-rcm25-esm310-rsr0-rcr69-esr100.exr,ReadingArea_rsl0-rcl11-esl100-rsm0-rcm25-esm310-rsr0-rcr69-esr100.npz,,,,,0,84,84,472,,right,red,0.97,430.2045588493347,430.6721270084381,,,2,,7,3,lightness,readingArea,realistic,75,2023-03-25_12h00.29.698,tripletExp_regina_11082022,2022.2.4,119.8639696846726,
3,8,1,0,0.444444444444444,0.298245614035088,0,0.25,1.0,0,0.111111111111111,0.298245614035088,ReadingArea_rsl0-rcl44-esl29-rsm0-rcm25-esm100-rsr0-rcr11-esr29,exr/ReadingArea_rsl0-rcl44-esl29-rsm0-rcm25-esm100-rsr0-rcr11-esr29.exr,ReadingArea_rsl0-rcl44-esl29-rsm0-rcm25-esm100-rsr0-rcr11-esr29.npz,,,,,0,85,85,230,,left,green,0.91,432.3860728740692,432.866956949234,,,2,,7,3,lightness,readingArea,realistic,75,2023-03-25_12h00.29.698,tripletExp_regina_11082022,2022.2.4,119.8639696846726,
5,13,7,0,1.0,0.298245614035088,0,0.111111111111111,3.10526315789474,0,0.111111111111111,1.0,ReadingArea_rsl0-rcl100-esl29-rsm0-rcm11-esm310-rsr0-rcr11-esr100,exr/ReadingArea_rsl0-rcl100-esl29-rsm0-rcm11-esm310-rsr0-rcr11-esr100.exr,ReadingArea_rsl0-rcl100-esl29-rsm0-rcm11-esm310-rsr0-rcr11-esr100.npz,,,,,0,86,86,189,,right,red,0.91,434.571005821228,435.02841901779175,,,2,,7,3,lightness,readingArea,realistic,75,2023-03-25_12h00.29.698,tripletExp_regina_11082022,2022.2.4,119.8639696846726,
5,13,12,0,1.0,0.298245614035088,0,0.111111111111111,3.10526315789474,0,0.027777777777778,3.10526315789474,ReadingArea_rsl0-rcl100-esl29-rsm0-rcm11-esm310-rsr0-rcr2-esr310,exr/ReadingArea_rsl0-rcl100-esl29-rsm0-rcm11-esm310-rsr0-rcr2-esr310.exr,ReadingArea_rsl0-rcl100-esl29-rsm0-rcm11-esm310-rsr0-rcr2-esr310.npz,,,,,0,87,87,389,,left,green,1.36,436.7174038887024,437.2265210151672,,,2,,7,3,lightness,readingArea,realistic,75,2023-03-25_12h00.29.698,tripletExp_regina_11082022,2022.2.4,119.8639696846726,
5,9,0,0,1.0,0.298245614035088,0,0.444444444444444,1.0,0,0.027777777777778,0.298245614035088,ReadingArea_rsl0-rcl100-esl29-rsm0-rcm44-esm100-rsr0-rcr2-esr29,exr/ReadingArea_rsl0-rcl100-esl29-rsm0-rcm44-esm100-rsr0-rcr2-esr29.exr,ReadingArea_rsl0-rcl100-esl29-rsm0-rcm44-esm100-rsr0-rcr2-esr29.npz,,,,,0,88,88,575,,left,green,1.12,438.9132678508759,439.5063989162445,,,2,,7,3,lightness,readingArea,realistic,75,2023-03-25_12h00.29.698,tripletExp_regina_11082022,2022.2.4,119.8639696846726,
0,4,12,0,0.027777777777778,0.298245614035088,0,0.694444444444444,0.298245614035088,0,0.027777777777778,3.10526315789474,ReadingArea_rsl0-rcl2-esl29-rsm0-rcm69-esm29-rsr0-rcr2-esr310,exr/ReadingArea_rsl0-rcl2-esl29-rsm0-rcm69-esm29-rsr0-rcr2-esr310.exr,ReadingArea_rsl0-rcl2-esl29-rsm0-rcm69-esm29-rsr0-rcr2-esr310.npz,,,,,0,89,89,150,,right,red,2.27,442.95992279052734,443.4296879768372,,,2,,7,3,lightness,readingArea,realistic,75,2023-03-25_12h00.29.698,tripletExp_regina_11082022,2022.2.4,119.8639696846726,
10,4,13,0,0.694444444444444,1.0,0,0.694444444444444,0.298245614035088,0,0.111111111111111,3.10526315789474,ReadingArea_rsl0-rcl69-esl100-rsm0-rcm69-esm29-rsr0-rcr11-esr310,exr/ReadingArea_rsl0-rcl69-esl100-rsm0-rcm69-esm29-rsr0-rcr11-esr310.exr,ReadingArea_rsl0-rcl69-esl100-rsm0-rcm69-esm29-rsr0-rcr11-esr310.npz,,,,,0,90,90,24,,right,red,2.15,446.9222819805145,447.4216268062592,,,2,,7,3,lightness,readingArea,realistic,75,2023-03-25_12h00.29.698,tripletExp_regina_11082022,2022.2.4,119.8639696846726,
8,9,2,0,0.25,1.0,0,0.444444444444444,1.0,0,0.25,0.298245614035088,ReadingArea_rsl0-rcl25-esl100-rsm0-rcm44-esm100-rsr0-rcr25-esr29,exr/ReadingArea_rsl0-rcl25-esl100-rsm0-rcm44-esm100-rsr0-rcr25-esr29.exr,ReadingArea_rsl0-rcl25-esl100-rsm0-rcm44-esm100-rsr0-rcr25-esr29.npz,,,,,0,91,91,559,,left,green,2.22,450.9272940158844,451.47491788864136,,,2,,7,3,lightness,readingArea,realistic,75,2023-03-25_12h00.29.698,tripletExp_regina_11082022,2022.2.4,119.8639696846726,
11,14,2,0,1.0,1.0,0,0.25,3.10526315789474,0,0.25,0.298245614035088,ReadingArea_rsl0-rcl100-esl100-rsm0-rcm25-esm310-rsr0-rcr25-esr29,exr/ReadingArea_rsl0-rcl100-esl100-rsm0-rcm25-esm310-rsr0-rcr25-esr29.exr,ReadingArea_rsl0-rcl100-esl100-rsm0-rcm25-esm310-rsr0-rcr25-esr29.npz,,,,,0,92,92,419,,left,green,1.02,453.1546878814697,453.6444368362427,,,2,,7,3,lightness,readingArea,realistic,75,2023-03-25_12h00.29.698,tripletExp_regina_11082022,2022.2.4,119.8639696846726,
0,8,12,0,0.027777777777778,0.298245614035088,0,0.25,1.0,0,0.027777777777778,3.10526315789474,ReadingArea_rsl0-rcl2-esl29-rsm0-rcm25-esm100-rsr0-rcr2-esr310,exr/ReadingArea_rsl0-rcl2-esl29-rsm0-rcm25-esm100-rsr0-rcr2-esr310.exr,ReadingArea_rsl0-rcl2-esl29-rsm0-rcm25-esm100-rsr0-rcr2-esr310.npz,,,,,0,93,93,314,,right,red,1.11,455.34713101387024,455.8462920188904,,,2,,7,3,lightness,readingArea,realistic,75,2023-03-25_12h00.29.698,tripletExp_regina_11082022,2022.2.4,119.8639696846726,
8,6,11,0,0.25,1.0,0,0.027777777777778,1.0,0,1.0,1.0,ReadingArea_rsl0-rcl25-esl100-rsm0-rcm2-esm100-rsr0-rcr100-esr100,exr/ReadingArea_rsl0-rcl25-esl100-rsm0-rcm2-esm100-rsr0-rcr100-esr100.exr,ReadingArea_rsl0-rcl25-esl100-rsm0-rcm2-esm100-rsr0-rcr100-esr100.npz,,,,,0,94,94,236,,left,green,1.35,457.54935002326965,458.0282518863678,,,2,,7,3,lightness,readingArea,realistic,75,2023-03-25_12h00.29.698,tripletExp_regina_11082022,2022.2.4,119.8639696846726,
12,1,2,0,0.027777777777778,3.10526315789474,0,0.111111111111111,0.298245614035088,0,0.25,0.298245614035088,ReadingArea_rsl0-rcl2-esl310-rsm0-rcm11-esm29-rsr0-rcr25-esr29,exr/ReadingArea_rsl0-rcl2-esl310-rsm0-rcm11-esm29-rsr0-rcr25-esr29.exr,ReadingArea_rsl0-rcl2-esl310-rsm0-rcm11-esm29-rsr0-rcr25-esr29.npz,,,,,0,95,95,231,,left,green,2.5,461.4980409145355,462.0493459701538,,,2,,7,3,lightness,readingArea,realistic,75,2023-03-25_12h00.29.698,tripletExp_regina_11082022,2022.2.4,119.8639696846726,
1,3,12,0,0.111111111111111,0.298245614035088,0,0.444444444444444,0.298245614035088,0,0.027777777777778,3.10526315789474,ReadingArea_rsl0-rcl11-esl29-rsm0-rcm44-esm29-rsr0-rcr2-esr310,exr/ReadingArea_rsl0-rcl11-esl29-rsm0-rcm44-esm29-rsr0-rcr2-esr310.exr,ReadingArea_rsl0-rcl11-esl29-rsm0-rcm44-esm29-rsr0-rcr2-esr310.npz,,,,,0,96,96,323,,right,red,2.55,465.52490401268005,466.0171549320221,,,2,,7,3,lightness,readingArea,realistic,75,2023-03-25_12h00.29.698,tripletExp_regina_11082022,2022.2.4,119.8639696846726,
6,10,9,0,0.027777777777778,1.0,0,0.694444444444444,1.0,0,0.444444444444444,1.0,ReadingArea_rsl0-rcl2-esl100-rsm0-rcm69-esm100-rsr0-rcr44-esr100,exr/ReadingArea_rsl0-rcl2-esl100-rsm0-rcm69-esm100-rsr0-rcr44-esr100.exr,ReadingArea_rsl0-rcl2-esl100-rsm0-rcm69-esm100-rsr0-rcr44-esr100.npz,,,,,0,97,97,148,,right,red,2.27,469.4802508354187,469.9407348632813,,,2,,7,3,lightness,readingArea,realistic,75,2023-03-25_12h00.29.698,tripletExp_regina_11082022,2022.2.4,119.8639696846726,
3,0,4,0,0.444444444444444,0.298245614035088,0,0.027777777777778,0.298245614035088,0,0.694444444444444,0.298245614035088,ReadingArea_rsl0-rcl44-esl29-rsm0-rcm2-esm29-rsr0-rcr69-esr29,exr/ReadingArea_rsl0-rcl44-esl29-rsm0-rcm2-esm29-rsr0-rcr69-esr29.exr,ReadingArea_rsl0-rcl44-esl29-rsm0-rcm2-esm29-rsr0-rcr69-esr29.npz,,,,,0,98,98,111,,left,green,2.29,473.4079339504242,473.9054789543152,,,2,,7,3,lightness,readingArea,realistic,75,2023-03-25_12h00.29.698,tripletExp_regina_11082022,2022.2.4,119.8639696846726,
5,12,7,0,1.0,0.298245614035088,0,0.027777777777778,3.10526315789474,0,0.111111111111111,1.0,ReadingArea_rsl0-rcl100-esl29-rsm0-rcm2-esm310-rsr0-rcr11-esr100,exr/ReadingArea_rsl0-rcl100-esl29-rsm0-rcm2-esm310-rsr0-rcr11-esr100.exr,ReadingArea_rsl0-rcl100-esl29-rsm0-rcm2-esm310-rsr0-rcr11-esr100.npz,,,,,0,99,99,447,,right,red,2.35,477.3842239379883,477.86430191993713,,,2,,7,3,lightness,readingArea,realistic,75,2023-03-25_12h00.29.698,tripletExp_regina_11082022,2022.2.4,119.8639696846726,
6,0,1,0,0.027777777777778,1.0,0,0.027777777777778,0.298245614035088,0,0.111111111111111,0.298245614035088,ReadingArea_rsl0-rcl2-esl100-rsm0-rcm2-esm29-rsr0-rcr11-esr29,exr/ReadingArea_rsl0-rcl2-esl100-rsm0-rcm2-esm29-rsr0-rcr11-esr29.exr,ReadingArea_rsl0-rcl2-esl100-rsm0-rcm2-esm29-rsr0-rcr11-esr29.npz,,,,,0,100,100,302,,right,red,2.84,481.3150718212128,481.7801489830017,,,2,,7,3,lightness,readingArea,realistic,75,2023-03-25_12h00.29.698,tripletExp_regina_11082022,2022.2.4,119.8639696846726,
14,0,9,0,0.25,3.10526315789474,0,0.027777777777778,0.298245614035088,0,0.444444444444444,1.0,ReadingArea_rsl0-rcl25-esl310-rsm0-rcm2-esm29-rsr0-rcr44-esr100,exr/ReadingArea_rsl0-rcl25-esl310-rsm0-rcm2-esm29-rsr0-rcr44-esr100.exr,ReadingArea_rsl0-rcl25-esl310-rsm0-rcm2-esm29-rsr0-rcr44-esr100.npz,,,,,0,101,101,90,,right,red,2.21,485.2476129531861,485.6994948387146,,,2,,7,3,lightness,readingArea,realistic,75,2023-03-25_12h00.29.698,tripletExp_regina_11082022,2022.2.4,119.8639696846726,
2,13,0,0,0.25,0.298245614035088,0,0.111111111111111,3.10526315789474,0,0.027777777777778,0.298245614035088,ReadingArea_rsl0-rcl25-esl29-rsm0-rcm11-esm310-rsr0-rcr2-esr29,exr/ReadingArea_rsl0-rcl25-esl29-rsm0-rcm11-esm310-rsr0-rcr2-esr29.exr,ReadingArea_rsl0-rcl25-esl29-rsm0-rcm11-esm310-rsr0-rcr2-esr29.npz,,,,,0,102,102,454,,left,green,2.0,489.1670799255371,489.6335189342499,,,2,,7,3,lightness,readingArea,realistic,75,2023-03-25_12h00.29.698,tripletExp_regina_11082022,2022.2.4,119.8639696846726,
3,4,0,0,0.444444444444444,0.298245614035088,0,0.694444444444444,0.298245614035088,0,0.027777777777778,0.298245614035088,ReadingArea_rsl0-rcl44-esl29-rsm0-rcm69-esm29-rsr0-rcr2-esr29,exr/ReadingArea_rsl0-rcl44-esl29-rsm0-rcm69-esm29-rsr0-rcr2-esr29.exr,ReadingArea_rsl0-rcl44-esl29-rsm0-rcm69-esm29-rsr0-rcr2-esr29.npz,,,,,0,103,103,130,,left,green,2.21,493.1093719005585,493.6146597862244,,,2,,7,3,lightness,readingArea,realistic,75,2023-03-25_12h00.29.698,tripletExp_regina_11082022,2022.2.4,119.8639696846726,
0,14,10,0,0.027777777777778,0.298245614035088,0,0.25,3.10526315789474,0,0.694444444444444,1.0,ReadingArea_rsl0-rcl2-esl29-rsm0-rcm25-esm310-rsr0-rcr69-esr100,exr/ReadingArea_rsl0-rcl2-esl29-rsm0-rcm25-esm310-rsr0-rcr69-esr100.exr,ReadingArea_rsl0-rcl2-esl29-rsm0-rcm25-esm310-rsr0-rcr69-esr100.npz,,,,,0,104,104,128,,right,red,2.22,497.063010931015,497.560998916626,,,2,,7,3,lightness,readingArea,realistic,75,2023-03-25_12h00.29.698,tripletExp_regina_11082022,2022.2.4,119.8639696846726,
5,10,0,0,1.0,0.298245614035088,0,0.694444444444444,1.0,0,0.027777777777778,0.298245614035088,ReadingArea_rsl0-rcl100-esl29-rsm0-rcm69-esm100-rsr0-rcr2-esr29,exr/ReadingArea_rsl0-rcl100-esl29-rsm0-rcm69-esm100-rsr0-rcr2-esr29.exr,ReadingArea_rsl0-rcl100-esl29-rsm0-rcm69-esm100-rsr0-rcr2-esr29.npz,,,,,0,105,105,293,,left,green,2.41,501.0393719673157,501.5111229419708,,,2,,7,3,lightness,readingArea,realistic,75,2023-03-25_12h00.29.698,tripletExp_regina_11082022,2022.2.4,119.8639696846726,
2,11,14,0,0.25,0.298245614035088,0,1.0,1.0,0,0.25,3.10526315789474,ReadingArea_rsl0-rcl25-esl29-rsm0-rcm100-esm100-rsr0-rcr25-esr310,exr/ReadingArea_rsl0-rcl25-esl29-rsm0-rcm100-esm100-rsr0-rcr25-esr310.exr,ReadingArea_rsl0-rcl25-esl29-rsm0-rcm100-esm100-rsr0-rcr25-esr310.npz,,,,,0,106,106,534,,right,red,2.3,504.9944999217987,505.469094991684,,,2,,7,3,lightness,readingArea,realistic,75,2023-03-25_12h00.29.698,tripletExp_regina_11082022,2022.2.4,119.8639696846726,
11,10,0,0,1.0,1.0,0,0.694444444444444,1.0,0,0.027777777777778,0.298245614035088,ReadingArea_rsl0-rcl100-esl100-rsm0-rcm69-esm100-rsr0-rcr2-esr29,exr/ReadingArea_rsl0-rcl100-esl100-rsm0-rcm69-esm100-rsr0-rcr2-esr29.exr,ReadingArea_rsl0-rcl100-esl100-rsm0-rcm69-esm100-rsr0-rcr2-esr29.npz,,,,,0,107,107,549,,left,green,1.16,507.1694529056549,507.6369249820709,,,2,,7,3,lightness,readingArea,realistic,75,2023-03-25_12h00.29.698,tripletExp_regina_11082022,2022.2.4,119.8639696846726,
4,10,11,0,0.694444444444444,0.298245614035088,0,0.694444444444444,1.0,0,1.0,1.0,ReadingArea_rsl0-rcl69-esl29-rsm0-rcm69-esm100-rsr0-rcr100-esr100,exr/ReadingArea_rsl0-rcl69-esl29-rsm0-rcm69-esm100-rsr0-rcr100-esr100.exr,ReadingArea_rsl0-rcl69-esl29-rsm0-rcm69-esm100-rsr0-rcr100-esr100.npz,,,,,0,108,108,180,,right,red,2.47,511.1322569847107,511.6025869846344,,,2,,7,3,lightness,readingArea,realistic,75,2023-03-25_12h00.29.698,tripletExp_regina_11082022,2022.2.4,119.8639696846726,
4,7,5,0,0.694444444444444,0.298245614035088,0,0.111111111111111,1.0,0,1.0,0.298245614035088,ReadingArea_rsl0-rcl69-esl29-rsm0-rcm11-esm100-rsr0-rcr100-esr29,exr/ReadingArea_rsl0-rcl69-esl29-rsm0-rcm11-esm100-rsr0-rcr100-esr29.exr,ReadingArea_rsl0-rcl69-esl29-rsm0-rcm11-esm100-rsr0-rcr100-esr29.npz,,,,,0,109,109,195,,left,green,2.29,515.058355808258,515.5432388782501,,,2,,7,3,lightness,readingArea,realistic,75,2023-03-25_12h00.29.698,tripletExp_regina_11082022,2022.2.4,119.8639696846726,
1,13,14,0,0.111111111111111,0.298245614035088,0,0.111111111111111,3.10526315789474,0,0.25,3.10526315789474,ReadingArea_rsl0-rcl11-esl29-rsm0-rcm11-esm310-rsr0-rcr25-esr310,exr/ReadingArea_rsl0-rcl11-esl29-rsm0-rcm11-esm310-rsr0-rcr25-esr310.exr,ReadingArea_rsl0-rcl11-esl29-rsm0-rcm11-esm310-rsr0-rcr25-esr310.npz,,,,,0,110,110,183,,right,red,2.24,519.0235779285431,519.4937529563904,,,2,,7,3,lightness,readingArea,realistic,75,2023-03-25_12h00.29.698,tripletExp_regina_11082022,2022.2.4,119.8639696846726,
8,0,4,0,0.25,1.0,0,0.027777777777778,0.298245614035088,0,0.694444444444444,0.298245614035088,ReadingArea_rsl0-rcl25-esl100-rsm0-rcm2-esm29-rsr0-rcr69-esr29,exr/ReadingArea_rsl0-rcl25-esl100-rsm0-rcm2-esm29-rsr0-rcr69-esr29.exr,ReadingArea_rsl0-rcl25-esl100-rsm0-rcm2-esm29-rsr0-rcr69-esr29.npz,,,,,0,111,111,346,,right,red,2.57,522.965717792511,523.441990852356,,,2,,7,3,lightness,readingArea,realistic,75,2023-03-25_12h00.29.698,tripletExp_regina_11082022,2022.2.4,119.8639696846726,
7,6,11,0,0.111111111111111,1.0,0,0.027777777777778,1.0,0,1.0,1.0,ReadingArea_rsl0-rcl11-esl100-rsm0-rcm2-esm100-rsr0-rcr100-esr100,exr/ReadingArea_rsl0-rcl11-esl100-rsm0-rcm2-esm100-rsr0-rcr100-esr100.exr,ReadingArea_rsl0-rcl11-esl100-rsm0-rcm2-esm100-rsr0-rcr100-esr100.npz,,,,,0,112,112,84,,left,green,0.88,525.142758846283,525.6879229545593,,,2,,7,3,lightness,readingArea,realistic,75,2023-03-25_12h00.29.698,tripletExp_regina_11082022,2022.2.4,119.8639696846726,
6,11,14,0,0.027777777777778,1.0,0,1.0,1.0,0,0.25,3.10526315789474,ReadingArea_rsl0-rcl2-esl100-rsm0-rcm100-esm100-rsr0-rcr25-esr310,exr/ReadingArea_rsl0-rcl2-esl100-rsm0-rcm100-esm100-rsr0-rcr25-esr310.exr,ReadingArea_rsl0-rcl2-esl100-rsm0-rcm100-esm100-rsr0-rcr25-esr310.npz,,,,,0,113,113,262,,right,red,2.24,529.134064912796,529.5992388725281,,,2,,7,3,lightness,readingArea,realistic,75,2023-03-25_12h00.29.698,tripletExp_regina_11082022,2022.2.4,119.8639696846726,
10,7,13,0,0.694444444444444,1.0,0,0.111111111111111,1.0,0,0.111111111111111,3.10526315789474,ReadingArea_rsl0-rcl69-esl100-rsm0-rcm11-esm100-rsr0-rcr11-esr310,exr/ReadingArea_rsl0-rcl69-esl100-rsm0-rcm11-esm100-rsr0-rcr11-esr310.exr,ReadingArea_rsl0-rcl69-esl100-rsm0-rcm11-esm100-rsr0-rcr11-esr310.npz,,,,,0,114,114,379,,right,red,2.31,533.052209854126,533.5134918689728,,,2,,7,3,lightness,readingArea,realistic,75,2023-03-25_12h00.29.698,tripletExp_regina_11082022,2022.2.4,119.8639696846726,
14,6,5,0,0.25,3.10526315789474,0,0.027777777777778,1.0,0,1.0,0.298245614035088,ReadingArea_rsl0-rcl25-esl310-rsm0-rcm2-esm100-rsr0-rcr100-esr29,exr/ReadingArea_rsl0-rcl25-esl310-rsm0-rcm2-esm100-rsr0-rcr100-esr29.exr,ReadingArea_rsl0-rcl25-esl310-rsm0-rcm2-esm100-rsr0-rcr100-esr29.npz,,,,,0,115,115,297,,right,red,2.25,536.994863986969,537.4590628147125,,,2,,7,3,lightness,readingArea,realistic,75,2023-03-25_12h00.29.698,tripletExp_regina_11082022,2022.2.4,119.8639696846726,
8,0,6,0,0.25,1.0,0,0.027777777777778,0.298245614035088,0,0.027777777777778,1.0,ReadingArea_rsl0-rcl25-esl100-rsm0-rcm2-esm29-rsr0-rcr2-esr100,exr/ReadingArea_rsl0-rcl25-esl100-rsm0-rcm2-esm29-rsr0-rcr2-esr100.exr,ReadingArea_rsl0-rcl25-esl100-rsm0-rcm2-esm29-rsr0-rcr2-esr100.npz,,,,,0,116,116,401,,right,red,1.13,539.1520848274231,539.6171748638153,,,2,,7,3,lightness,readingArea,realistic,75,2023-03-25_12h00.29.698,tripletExp_regina_11082022,2022.2.4,119.8639696846726,
8,1,10,0,0.25,1.0,0,0.111111111111111,0.298245614035088,0,0.694444444444444,1.0,ReadingArea_rsl0-rcl25-esl100-rsm0-rcm11-esm29-rsr0-rcr69-esr100,exr/ReadingArea_rsl0-rcl25-esl100-rsm0-rcm11-esm29-rsr0-rcr69-esr100.exr,ReadingArea_rsl0-rcl25-esl100-rsm0-rcm11-esm29-rsr0-rcr69-esr100.npz,,,,,0,117,117,442,,left,green,2.14,543.0860738754272,543.6686699390411,,,2,,7,3,lightness,readingArea,realistic,75,2023-03-25_12h00.29.698,tripletExp_regina_11082022,2022.2.4,119.8639696846726,
14,7,13,0,0.25,3.10526315789474,0,0.111111111111111,1.0,0,0.111111111111111,3.10526315789474,ReadingArea_rsl0-rcl25-esl310-rsm0-rcm11-esm100-rsr0-rcr11-esr310,exr/ReadingArea_rsl0-rcl25-esl310-rsm0-rcm11-esm100-rsr0-rcr11-esr310.exr,ReadingArea_rsl0-rcl25-esl310-rsm0-rcm11-esm100-rsr0-rcr11-esr310.npz,,,,,0,118,118,358,,right,red,2.3,547.1646239757538,547.6674289703369,,,2,,7,3,lightness,readingArea,realistic,75,2023-03-25_12h00.29.698,tripletExp_regina_11082022,2022.2.4,119.8639696846726,
6,11,7,0,0.027777777777778,1.0,0,1.0,1.0,0,0.111111111111111,1.0,ReadingArea_rsl0-rcl2-esl100-rsm0-rcm100-esm100-rsr0-rcr11-esr100,exr/ReadingArea_rsl0-rcl2-esl100-rsm0-rcm100-esm100-rsr0-rcr11-esr100.exr,ReadingArea_rsl0-rcl2-esl100-rsm0-rcm100-esm100-rsr0-rcr11-esr100.npz,,,,,0,119,119,571,,right,red,2.19,551.1316628456116,551.632001876831,,,2,,7,3,lightness,readingArea,realistic,75,2023-03-25_12h00.29.698,tripletExp_regina_11082022,2022.2.4,119.8639696846726,
10,0,11,0,0.694444444444444,1.0,0,0.027777777777778,0.298245614035088,0,1.0,1.0,ReadingArea_rsl0-rcl69-esl100-rsm0-rcm2-esm29-rsr0-rcr100-esr100,exr/ReadingArea_rsl0-rcl69-esl100-rsm0-rcm2-esm29-rsr0-rcr100-esr100.exr,ReadingArea_rsl0-rcl69-esl100-rsm0-rcm2-esm29-rsr0-rcr100-esr100.npz,,,,,0,120,120,573,,,red,2.19,556.8854269981384,557.528904914856,,,2,556.4284795761108,7,3,lightness,readingArea,realistic,75,2023-03-25_12h00.29.698,tripletExp_regina_11082022,2022.2.4,119.8639696846726,
4,8,3,0,0.694444444444444,0.298245614035088,0,0.25,1.0,0,0.444444444444444,0.298245614035088,ReadingArea_rsl0-rcl69-esl29-rsm0-rcm25-esm100-rsr0-rcr44-esr29,exr/ReadingArea_rsl0-rcl69-esl29-rsm0-rcm25-esm100-rsr0-rcr44-esr29.exr,ReadingArea_rsl0-rcl69-esl29-rsm0-rcm25-esm100-rsr0-rcr44-esr29.npz,,,,,0,121,121,292,,right,red,2.34,561.003625869751,561.4903998374939,,,2,,7,3,lightness,readingArea,realistic,75,2023-03-25_12h00.29.698,tripletExp_regina_11082022,2022.2.4,119.8639696846726,
11,4,0,0,1.0,1.0,0,0.694444444444444,0.298245614035088,0,0.027777777777778,0.298245614035088,ReadingArea_rsl0-rcl100-esl100-rsm0-rcm69-esm29-rsr0-rcr2-esr29,exr/ReadingArea_rsl0-rcl100-esl100-rsm0-rcm69-esm29-rsr0-rcr2-esr29.exr,ReadingArea_rsl0-rcl100-esl100-rsm0-rcm69-esm29-rsr0-rcr2-esr29.npz,,,,,0,122,122,219,,left,green,1.41,563.1819188594818,563.6713290214539,,,2,,7,3,lightness,readingArea,realistic,75,2023-03-25_12h00.29.698,tripletExp_regina_11082022,2022.2.4,119.8639696846726,
12,13,14,0,0.027777777777778,3.10526315789474,0,0.111111111111111,3.10526315789474,0,0.25,3.10526315789474,ReadingArea_rsl0-rcl2-esl310-rsm0-rcm11-esm310-rsr0-rcr25-esr310,exr/ReadingArea_rsl0-rcl2-esl310-rsm0-rcm11-esm310-rsr0-rcr25-esr310.exr,ReadingArea_rsl0-rcl2-esl310-rsm0-rcm11-esm310-rsr0-rcr25-esr310.npz,,,,,0,123,123,208,,right,red,2.35,567.1361060142517,,,,2,,7,3,lightness,readingArea,realistic,75,2023-03-25_12h00.29.698,tripletExp_regina_11082022,2022.2.4,119.8639696846726,
3,6,5,0,0.444444444444444,0.298245614035088,0,0.027777777777778,1.0,0,1.0,0.298245614035088,ReadingArea_rsl0-rcl44-esl29-rsm0-rcm2-esm100-rsr0-rcr100-esr29,exr/ReadingArea_rsl0-rcl44-esl29-rsm0-rcm2-esm100-rsr0-rcr100-esr29.exr,ReadingArea_rsl0-rcl44-esl29-rsm0-rcm2-esm100-rsr0-rcr100-esr29.npz,,,,,0,124,124,274,,left,green,2.33,571.0728468894958,571.5852489471436,,,2,,7,3,lightness,readingArea,realistic,75,2023-03-25_12h00.29.698,tripletExp_regina_11082022,2022.2.4,119.8639696846726,
4,7,1,0,0.694444444444444,0.298245614035088,0,0.111111111111111,1.0,0,0.111111111111111,0.298245614035088,ReadingArea_rsl0-rcl69-esl29-rsm0-rcm11-esm100-rsr0-rcr11-esr29,exr/ReadingArea_rsl0-rcl69-esl29-rsm0-rcm11-esm100-rsr0-rcr11-esr29.exr,ReadingArea_rsl0-rcl69-esl29-rsm0-rcm11-esm100-rsr0-rcr11-esr29.npz,,,,,0,125,125,33,,right,red,2.15,575.0697908401489,575.5360488891602,,,2,,7,3,lightness,readingArea,realistic,75,2023-03-25_12h00.29.698,tripletExp_regina_11082022,2022.2.4,119.8639696846726,
10,0,14,0,0.694444444444444,1.0,0,0.027777777777778,0.298245614035088,0,0.25,3.10526315789474,ReadingArea_rsl0-rcl69-esl100-rsm0-rcm2-esm29-rsr0-rcr25-esr310,exr/ReadingArea_rsl0-rcl69-esl100-rsm0-rcm2-esm29-rsr0-rcr25-esr310.exr,ReadingArea_rsl0-rcl69-esl100-rsm0-rcm2-esm29-rsr0-rcr25-esr310.npz,,,,,0,126,126,95,,right,red,2.2,579.0405938625336,579.5147747993469,,,2,,7,3,lightness,readingArea,realistic,75,2023-03-25_12h00.29.698,tripletExp_regina_11082022,2022.2.4,119.8639696846726,
2,4,6,0,0.25,0.298245614035088,0,0.694444444444444,0.298245614035088,0,0.027777777777778,1.0,ReadingArea_rsl0-rcl25-esl29-rsm0-rcm69-esm29-rsr0-rcr2-esr100,exr/ReadingArea_rsl0-rcl25-esl29-rsm0-rcm69-esm29-rsr0-rcr2-esr100.exr,ReadingArea_rsl0-rcl25-esl29-rsm0-rcm69-esm29-rsr0-rcr2-esr100.npz,,,,,0,127,127,563,,left,green,2.04,583.0262157917023,583.4943590164185,,,2,,7,3,lightness,readingArea,realistic,75,2023-03-25_12h00.29.698,tripletExp_regina_11082022,2022.2.4,119.8639696846726,
4,13,1,0,0.694444444444444,0.298245614035088,0,0.111111111111111,3.10526315789474,0,0.111111111111111,0.298245614035088,ReadingArea_rsl0-rcl69-esl29-rsm0-rcm11-esm310-rsr0-rcr11-esr29,exr/ReadingArea_rsl0-rcl69-esl29-rsm0-rcm11-esm310-rsr0-rcr11-esr29.exr,ReadingArea_rsl0-rcl69-esl29-rsm0-rcm11-esm310-rsr0-rcr11-esr29.npz,,,,,0,128,128,192,,left,green,2.15,586.9899349212646,587.5027678012848,,,2,,7,3,lightness,readingArea,realistic,75,2023-03-25_12h00.29.698,tripletExp_regina_11082022,2022.2.4,119.8639696846726,
6,5,11,0,0.027777777777778,1.0,0,1.0,0.298245614035088,0,1.0,1.0,ReadingArea_rsl0-rcl2-esl100-rsm0-rcm100-esm29-rsr0-rcr100-esr100,exr/ReadingArea_rsl0-rcl2-esl100-rsm0-rcm100-esm29-rsr0-rcr100-esr100.exr,ReadingArea_rsl0-rcl2-esl100-rsm0-rcm100-esm29-rsr0-rcr100-esr100.npz,,,,,0,129,129,289,,right,red,2.24,590.9642808437347,591.430172920227,,,2,,7,3,lightness,readingArea,realistic,75,2023-03-25_12h00.29.698,tripletExp_regina_11082022,2022.2.4,119.8639696846726,
3,14,4,0,0.444444444444444,0.298245614035088,0,0.25,3.10526315789474,0,0.694444444444444,0.298245614035088,ReadingArea_rsl0-rcl44-esl29-rsm0-rcm25-esm310-rsr0-rcr69-esr29,exr/ReadingArea_rsl0-rcl44-esl29-rsm0-rcm25-esm310-rsr0-rcr69-esr29.exr,ReadingArea_rsl0-rcl44-esl29-rsm0-rcm25-esm310-rsr0-rcr69-esr29.npz,,,,,0,130,130,537,,right,red,2.87,594.8896420001984,595.3676538467407,,,2,,7,3,lightness,readingArea,realistic,75,2023-03-25_12h00.29.698,tripletExp_regina_11082022,2022.2.4,119.8639696846726,
6,12,8,0,0.027777777777778,1.0,0,0.027777777777778,3.10526315789474,0,0.25,1.0,ReadingArea_rsl0-rcl2-esl100-rsm0-rcm2-esm310-rsr0-rcr25-esr100,exr/ReadingArea_rsl0-rcl2-esl100-rsm0-rcm2-esm310-rsr0-rcr25-esr100.exr,ReadingArea_rsl0-rcl2-esl100-rsm0-rcm2-esm310-rsr0-rcr25-esr100.npz,,,,,0,131,131,186,,right,red,2.26,598.8473780155182,599.3101940155029,,,2,,7,3,lightness,readingArea,realistic,75,2023-03-25_12h00.29.698,tripletExp_regina_11082022,2022.2.4,119.8639696846726,
14,0,5,0,0.25,3.10526315789474,0,0.027777777777778,0.298245614035088,0,1.0,0.298245614035088,ReadingArea_rsl0-rcl25-esl310-rsm0-rcm2-esm29-rsr0-rcr100-esr29,exr/ReadingArea_rsl0-rcl25-esl310-rsm0-rcm2-esm29-rsr0-rcr100-esr29.exr,ReadingArea_rsl0-rcl25-esl310-rsm0-rcm2-esm29-rsr0-rcr100-esr29.npz,,,,,0,132,132,418,,right,red,2.01,602.793084859848,603.2998919487,,,2,,7,3,lightness,readingArea,realistic,75,2023-03-25_12h00.29.698,tripletExp_regina_11082022,2022.2.4,119.8639696846726,
13,0,9,0,0.111111111111111,3.10526315789474,0,0.027777777777778,0.298245614035088,0,0.444444444444444,1.0,ReadingArea_rsl0-rcl11-esl310-rsm0-rcm2-esm29-rsr0-rcr44-esr100,exr/ReadingArea_rsl0-rcl11-esl310-rsm0-rcm2-esm29-rsr0-rcr44-esr100.exr,ReadingArea_rsl0-rcl11-esl310-rsm0-rcm2-esm29-rsr0-rcr44-esr100.npz,,,,,0,133,133,373,,left,green,2.14,606.7845149040222,607.2756958007812,,,2,,7,3,lightness,readingArea,realistic,75,2023-03-25_12h00.29.698,tripletExp_regina_11082022,2022.2.4,119.8639696846726,
6,12,0,0,0.027777777777778,1.0,0,0.027777777777778,3.10526315789474,0,0.027777777777778,0.298245614035088,ReadingArea_rsl0-rcl2-esl100-rsm0-rcm2-esm310-rsr0-rcr2-esr29,exr/ReadingArea_rsl0-rcl2-esl100-rsm0-rcm2-esm310-rsr0-rcr2-esr29.exr,ReadingArea_rsl0-rcl2-esl100-rsm0-rcm2-esm310-rsr0-rcr2-esr29.npz,,,,,0,134,134,23,,left,green,2.15,610.7599439620972,,,,2,,7,3,lightness,readingArea,realistic,75,2023-03-25_12h00.29.698,tripletExp_regina_11082022,2022.2.4,119.8639696846726,
9,11,3,0,0.444444444444444,1.0,0,1.0,1.0,0,0.444444444444444,0.298245614035088,ReadingArea_rsl0-rcl44-esl100-rsm0-rcm100-esm100-rsr0-rcr44-esr29,exr/ReadingArea_rsl0-rcl44-esl100-rsm0-rcm100-esm100-rsr0-rcr44-esr29.exr,ReadingArea_rsl0-rcl44-esl100-rsm0-rcm100-esm100-rsr0-rcr44-esr29.npz,,,,,0,135,135,348,,left,green,1.14,613.0041379928589,613.6250238418579,,,2,,7,3,lightness,readingArea,realistic,75,2023-03-25_12h00.29.698,tripletExp_regina_11082022,2022.2.4,119.8639696846726,
2,6,0,0,0.25,0.298245614035088,0,0.027777777777778,1.0,0,0.027777777777778,0.298245614035088,ReadingArea_rsl0-rcl25-esl29-rsm0-rcm2-esm100-rsr0-rcr2-esr29,exr/ReadingArea_rsl0-rcl25-esl29-rsm0-rcm2-esm100-rsr0-rcr2-esr29.exr,ReadingArea_rsl0-rcl25-esl29-rsm0-rcm2-esm100-rsr0-rcr2-esr29.npz,,,,,0,136,136,525,,right,red,1.15,615.3236877918243,615.8004698753357,,,2,,7,3,lightness,readingArea,realistic,75,2023-03-25_12h00.29.698,tripletExp_regina_11082022,2022.2.4,119.8639696846726,
11,0,12,0,1.0,1.0,0,0.027777777777778,0.298245614035088,0,0.027777777777778,3.10526315789474,ReadingArea_rsl0-rcl100-esl100-rsm0-rcm2-esm29-rsr0-rcr2-esr310,exr/ReadingArea_rsl0-rcl100-esl100-rsm0-rcm2-esm29-rsr0-rcr2-esr310.exr,ReadingArea_rsl0-rcl100-esl100-rsm0-rcm2-esm29-rsr0-rcr2-esr310.npz,,,,,0,137,137,166,,right,red,1.3,617.498538017273,617.973210811615,,,2,,7,3,lightness,readingArea,realistic,75,2023-03-25_12h00.29.698,tripletExp_regina_11082022,2022.2.4,119.8639696846726,
12,9,2,0,0.027777777777778,3.10526315789474,0,0.444444444444444,1.0,0,0.25,0.298245614035088,ReadingArea_rsl0-rcl2-esl310-rsm0-rcm44-esm100-rsr0-rcr25-esr29,exr/ReadingArea_rsl0-rcl2-esl310-rsm0-rcm44-esm100-rsr0-rcr25-esr29.exr,ReadingArea_rsl0-rcl2-esl310-rsm0-rcm44-esm100-rsr0-rcr25-esr29.npz,,,,,0,138,138,226,,left,green,1.26,619.6872549057007,620.1727669239044,,,2,,7,3,lightness,readingArea,realistic,75,2023-03-25_12h00.29.698,tripletExp_regina_11082022,2022.2.4,119.8639696846726,
10,12,9,0,0.694444444444444,1.0,0,0.027777777777778,3.10526315789474,0,0.444444444444444,1.0,ReadingArea_rsl0-rcl69-esl100-rsm0-rcm2-esm310-rsr0-rcr44-esr100,exr/ReadingArea_rsl0-rcl69-esl100-rsm0-rcm2-esm310-rsr0-rcr44-esr100.exr,ReadingArea_rsl0-rcl69-esl100-rsm0-rcm2-esm310-rsr0-rcr44-esr100.npz,,,,,0,139,139,405,,right,red,3.49,623.6456339359283,624.1805698871613,,,2,,7,3,lightness,readingArea,realistic,75,2023-03-25_12h00.29.698,tripletExp_regina_11082022,2022.2.4,119.8639696846726,
6,10,8,0,0.027777777777778,1.0,0,0.694444444444444,1.0,0,0.25,1.0,ReadingArea_rsl0-rcl2-esl100-rsm0-rcm69-esm100-rsr0-rcr25-esr100,exr/ReadingArea_rsl0-rcl2-esl100-rsm0-rcm69-esm100-rsr0-rcr25-esr100.exr,ReadingArea_rsl0-rcl2-esl100-rsm0-rcm69-esm100-rsr0-rcr25-esr100.npz,,,,,0,140,140,167,,right,red,1.51,625.873284816742,626.5115358829498,,,2,,7,3,lightness,readingArea,realistic,75,2023-03-25_12h00.29.698,tripletExp_regina_11082022,2022.2.4,119.8639696846726,
1,5,8,0,0.111111111111111,0.298245614035088,0,1.0,0.298245614035088,0,0.25,1.0,ReadingArea_rsl0-rcl11-esl29-rsm0-rcm100-esm29-rsr0-rcr25-esr100,exr/ReadingArea_rsl0-rcl11-esl29-rsm0-rcm100-esm29-rsr0-rcr25-esr100.exr,ReadingArea_rsl0-rcl11-esl29-rsm0-rcm100-esm29-rsr0-rcr25-esr100.npz,,,,,0,141,141,238,,right,red,1.23,628.2208259105682,,,,2,,7,3,lightness,readingArea,realistic,75,2023-03-25_12h00.29.698,tripletExp_regina_11082022,2022.2.4,119.8639696846726,
10,7,8,0,0.694444444444444,1.0,0,0.111111111111111,1.0,0,0.25,1.0,ReadingArea_rsl0-rcl69-esl100-rsm0-rcm11-esm100-rsr0-rcr25-esr100,exr/ReadingArea_rsl0-rcl69-esl100-rsm0-rcm11-esm100-rsr0-rcr25-esr100.exr,ReadingArea_rsl0-rcl69-esl100-rsm0-rcm11-esm100-rsr0-rcr25-esr100.npz,,,,,0,142,142,57,,right,red,1.25,630.3935739994049,630.8711948394775,,,2,,7,3,lightness,readingArea,realistic,75,2023-03-25_12h00.29.698,tripletExp_regina_11082022,2022.2.4,119.8639696846726,
4,8,0,0,0.694444444444444,0.298245614035088,0,0.25,1.0,0,0.027777777777778,0.298245614035088,ReadingArea_rsl0-rcl69-esl29-rsm0-rcm25-esm100-rsr0-rcr2-esr29,exr/ReadingArea_rsl0-rcl69-esl29-rsm0-rcm25-esm100-rsr0-rcr2-esr29.exr,ReadingArea_rsl0-rcl69-esl29-rsm0-rcm25-esm100-rsr0-rcr2-esr29.npz,,,,,0,143,143,137,,left,green,0.96,632.5735819339752,633.0529839992523,,,2,,7,3,lightness,readingArea,realistic,75,2023-03-25_12h00.29.698,tripletExp_regina_11082022,2022.2.4,119.8639696846726,
5,8,2,0,1.0,0.298245614035088,0,0.25,1.0,0,0.25,0.298245614035088,ReadingArea_rsl0-rcl100-esl29-rsm0-rcm25-esm100-rsr0-rcr25-esr29,exr/ReadingArea_rsl0-rcl100-esl29-rsm0-rcm25-esm100-rsr0-rcr25-esr29.exr,ReadingArea_rsl0-rcl100-esl29-rsm0-rcm25-esm100-rsr0-rcr25-esr29.npz,,,,,0,144,144,65,,right,red,1.13,634.7540559768677,635.2208089828491,,,2,,7,3,lightness,readingArea,realistic,75,2023-03-25_12h00.29.698,tripletExp_regina_11082022,2022.2.4,119.8639696846726,
3,1,0,0,0.444444444444444,0.298245614035088,0,0.111111111111111,0.298245614035088,0,0.027777777777778,0.298245614035088,ReadingArea_rsl0-rcl44-esl29-rsm0-rcm11-esm29-rsr0-rcr2-esr29,exr/ReadingArea_rsl0-rcl44-esl29-rsm0-rcm11-esm29-rsr0-rcr2-esr29.exr,ReadingArea_rsl0-rcl44-esl29-rsm0-rcm11-esm29-rsr0-rcr2-esr29.npz,,,,,0,145,145,343,,right,red,0.94,636.9290838241577,637.4091877937317,,,2,,7,3,lightness,readingArea,realistic,75,2023-03-25_12h00.29.698,tripletExp_regina_11082022,2022.2.4,119.8639696846726,
14,12,5,0,0.25,3.10526315789474,0,0.027777777777778,3.10526315789474,0,1.0,0.298245614035088,ReadingArea_rsl0-rcl25-esl310-rsm0-rcm2-esm310-rsr0-rcr100-esr29,exr/ReadingArea_rsl0-rcl25-esl310-rsm0-rcm2-esm310-rsr0-rcr100-esr29.exr,ReadingArea_rsl0-rcl25-esl310-rsm0-rcm2-esm310-rsr0-rcr100-esr29.npz,,,,,0,146,146,335,,right,red,2.26,640.903107881546,641.3734660148621,,,2,,7,3,lightness,readingArea,realistic,75,2023-03-25_12h00.29.698,tripletExp_regina_11082022,2022.2.4,119.8639696846726,
2,8,3,0,0.25,0.298245614035088,0,0.25,1.0,0,0.444444444444444,0.298245614035088,ReadingArea_rsl0-rcl25-esl29-rsm0-rcm25-esm100-rsr0-rcr44-esr29,exr/ReadingArea_rsl0-rcl25-esl29-rsm0-rcm25-esm100-rsr0-rcr44-esr29.exr,ReadingArea_rsl0-rcl25-esl29-rsm0-rcm25-esm100-rsr0-rcr44-esr29.npz,,,,,0,147,147,568,,right,red,2.15,644.8566207885742,,,,2,,7,3,lightness,readingArea,realistic,75,2023-03-25_12h00.29.698,tripletExp_regina_11082022,2022.2.4,119.8639696846726,
3,13,1,0,0.444444444444444,0.298245614035088,0,0.111111111111111,3.10526315789474,0,0.111111111111111,0.298245614035088,ReadingArea_rsl0-rcl44-esl29-rsm0-rcm11-esm310-rsr0-rcr11-esr29,exr/ReadingArea_rsl0-rcl44-esl29-rsm0-rcm11-esm310-rsr0-rcr11-esr29.exr,ReadingArea_rsl0-rcl44-esl29-rsm0-rcm11-esm310-rsr0-rcr11-esr29.npz,,,,,0,148,148,421,,left,green,1.03,647.0401158332825,,,,2,,7,3,lightness,readingArea,realistic,75,2023-03-25_12h00.29.698,tripletExp_regina_11082022,2022.2.4,119.8639696846726,
13,6,4,0,0.111111111111111,3.10526315789474,0,0.027777777777778,1.0,0,0.694444444444444,0.298245614035088,ReadingArea_rsl0-rcl11-esl310-rsm0-rcm2-esm100-rsr0-rcr69-esr29,exr/ReadingArea_rsl0-rcl11-esl310-rsm0-rcm2-esm100-rsr0-rcr69-esr29.exr,ReadingArea_rsl0-rcl11-esl310-rsm0-rcm2-esm100-rsr0-rcr69-esr29.npz,,,,,0,149,149,328,,left,green,2.23,651.0453929901123,651.2481479644775,,,2,,7,3,lightness,readingArea,realistic,75,2023-03-25_12h00.29.698,tripletExp_regina_11082022,2022.2.4,119.8639696846726,
1,0,4,0,0.111111111111111,0.298245614035088,0,0.027777777777778,0.298245614035088,0,0.694444444444444,0.298245614035088,ReadingArea_rsl0-rcl11-esl29-rsm0-rcm2-esm29-rsr0-rcr69-esr29,exr/ReadingArea_rsl0-rcl11-esl29-rsm0-rcm2-esm29-rsr0-rcr69-esr29.exr,ReadingArea_rsl0-rcl11-esl29-rsm0-rcm2-esm29-rsr0-rcr69-esr29.npz,,,,,0,150,150,494,,left,green,1.34,689.4835348129272,690.0558898448944,,,3,,7,3,lightness,readingArea,realistic,75,2023-03-25_12h00.29.698,tripletExp_regina_11082022,2022.2.4,119.8639696846726,
6,14,10,0,0.027777777777778,1.0,0,0.25,3.10526315789474,0,0.694444444444444,1.0,ReadingArea_rsl0-rcl2-esl100-rsm0-rcm25-esm310-rsr0-rcr69-esr100,exr/ReadingArea_rsl0-rcl2-esl100-rsm0-rcm25-esm310-rsr0-rcr69-esr100.exr,ReadingArea_rsl0-rcl2-esl100-rsm0-rcm25-esm310-rsr0-rcr69-esr100.npz,,,,,0,151,151,413,,right,red,1.1,691.7561099529266,,,,3,,7,3,lightness,readingArea,realistic,75,2023-03-25_12h00.29.698,tripletExp_regina_11082022,2022.2.4,119.8639696846726,
14,8,2,0,0.25,3.10526315789474,0,0.25,1.0,0,0.25,0.298245614035088,ReadingArea_rsl0-rcl25-esl310-rsm0-rcm25-esm100-rsr0-rcr25-esr29,exr/ReadingArea_rsl0-rcl25-esl310-rsm0-rcm25-esm100-rsr0-rcr25-esr29.exr,ReadingArea_rsl0-rcl25-esl310-rsm0-rcm25-esm100-rsr0-rcr25-esr29.npz,,,,,0,152,152,251,,right,red,1.03,693.9119589328766,694.4078438282013,,,3,,7,3,lightness,readingArea,realistic,75,2023-03-25_12h00.29.698,tripletExp_regina_11082022,2022.2.4,119.8639696846726,
0,14,11,0,0.027777777777778,0.298245614035088,0,0.25,3.10526315789474,0,1.0,1.0,ReadingArea_rsl0-rcl2-esl29-rsm0-rcm25-esm310-rsr0-rcr100-esr100,exr/ReadingArea_rsl0-rcl2-esl29-rsm0-rcm25-esm310-rsr0-rcr100-esr100.exr,ReadingArea_rsl0-rcl2-esl29-rsm0-rcm25-esm310-rsr0-rcr100-esr100.npz,,,,,0,153,153,557,,right,red,1.09,696.1117248535156,696.5936839580536,,,3,,7,3,lightness,readingArea,realistic,75,2023-03-25_12h00.29.698,tripletExp_regina_11082022,2022.2.4,119.8639696846726,
5,2,14,0,1.0,0.298245614035088,0,0.25,0.298245614035088,0,0.25,3.10526315789474,ReadingArea_rsl0-rcl100-esl29-rsm0-rcm25-esm29-rsr0-rcr25-esr310,exr/ReadingArea_rsl0-rcl100-esl29-rsm0-rcm25-esm29-rsr0-rcr25-esr310.exr,ReadingArea_rsl0-rcl100-esl29-rsm0-rcm25-esm29-rsr0-rcr25-esr310.npz,,,,,0,154,154,462,,left,green,2.42,700.0814390182495,700.5698277950287,,,3,,7,3,lightness,readingArea,realistic,75,2023-03-25_12h00.29.698,tripletExp_regina_11082022,2022.2.4,119.8639696846726,
1,12,0,0,0.111111111111111,0.298245614035088,0,0.027777777777778,3.10526315789474,0,0.027777777777778,0.298245614035088,ReadingArea_rsl0-rcl11-esl29-rsm0-rcm2-esm310-rsr0-rcr2-esr29,exr/ReadingArea_rsl0-rcl11-esl29-rsm0-rcm2-esm310-rsr0-rcr2-esr29.exr,ReadingArea_rsl0-rcl11-esl29-rsm0-rcm2-esm310-rsr0-rcr2-esr29.npz,,,,,0,155,155,113,,left,green,2.29,704.0208950042725,704.5060639381409,,,3,,7,3,lightness,readingArea,realistic,75,2023-03-25_12h00.29.698,tripletExp_regina_11082022,2022.2.4,119.8639696846726,
6,12,7,0,0.027777777777778,1.0,0,0.027777777777778,3.10526315789474,0,0.111111111111111,1.0,ReadingArea_rsl0-rcl2-esl100-rsm0-rcm2-esm310-rsr0-rcr11-esr100,exr/ReadingArea_rsl0-rcl2-esl100-rsm0-rcm2-esm310-rsr0-rcr11-esr100.exr,ReadingArea_rsl0-rcl2-esl100-rsm0-rcm2-esm310-rsr0-rcr11-esr100.npz,,,,,0,156,156,157,,right,red,2.17,707.9637157917023,708.4327728748322,,,3,,7,3,lightness,readingArea,realistic,75,2023-03-25_12h00.29.698,tripletExp_regina_11082022,2022.2.4,119.8639696846726,
4,3,1,0,0.694444444444444,0.298245614035088,0,0.444444444444444,0.298245614035088,0,0.111111111111111,0.298245614035088,ReadingArea_rsl0-rcl69-esl29-rsm0-rcm44-esm29-rsr0-rcr11-esr29,exr/ReadingArea_rsl0-rcl69-esl29-rsm0-rcm44-esm29-rsr0-rcr11-esr29.exr,ReadingArea_rsl0-rcl69-esl29-rsm0-rcm44-esm29-rsr0-rcr11-esr29.npz,,,,,0,157,157,60,,left,green,0.89,710.1280047893524,710.6084158420563,,,3,,7,3,lightness,readingArea,realistic,75,2023-03-25_12h00.29.698,tripletExp_regina_11082022,2022.2.4,119.8639696846726,
8,6,13,0,0.25,1.0,0,0.027777777777778,1.0,0,0.111111111111111,3.10526315789474,ReadingArea_rsl0-rcl25-esl100-rsm0-rcm2-esm100-rsr0-rcr11-esr310,exr/ReadingArea_rsl0-rcl25-esl100-rsm0-rcm2-esm100-rsr0-rcr11-esr310.exr,ReadingArea_rsl0-rcl25-esl100-rsm0-rcm2-esm100-rsr0-rcr11-esr310.npz,,,,,0,158,158,440,,right,red,2.08,714.0965819358826,714.5753610134125,,,3,,7,3,lightness,readingArea,realistic,75,2023-03-25_12h00.29.698,tripletExp_regina_11082022,2022.2.4,119.8639696846726,
14,5,10,0,0.25,3.10526315789474,0,1.0,0.298245614035088,0,0.694444444444444,1.0,ReadingArea_rsl0-rcl25-esl310-rsm0-rcm100-esm29-rsr0-rcr69-esr100,exr/ReadingArea_rsl0-rcl25-esl310-rsm0-rcm100-esm29-rsr0-rcr69-esr100.exr,ReadingArea_rsl0-rcl25-esl310-rsm0-rcm100-esm29-rsr0-rcr69-esr100.npz,,,,,0,159,159,170,,left,green,2.23,718.073175907135,718.5998888015747,,,3,,7,3,lightness,readingArea,realistic,75,2023-03-25_12h00.29.698,tripletExp_regina_11082022,2022.2.4,119.8639696846726,
0,1,6,0,0.027777777777778,0.298245614035088,0,0.111111111111111,0.298245614035088,0,0.027777777777778,1.0,ReadingArea_rsl0-rcl2-esl29-rsm0-rcm11-esm29-rsr0-rcr2-esr100,exr/ReadingArea_rsl0-rcl2-esl29-rsm0-rcm11-esm29-rsr0-rcr2-esr100.exr,ReadingArea_rsl0-rcl2-esl29-rsm0-rcm11-esm29-rsr0-rcr2-esr100.npz,,,,,0,160,160,375,,right,red,1.31,720.3125278949738,720.8002579212189,,,3,,7,3,lightness,readingArea,realistic,75,2023-03-25_12h00.29.698,tripletExp_regina_11082022,2022.2.4,119.8639696846726,
11,2,4,0,1.0,1.0,0,0.25,0.298245614035088,0,0.694444444444444,0.298245614035088,ReadingArea_rsl0-rcl100-esl100-rsm0-rcm25-esm29-rsr0-rcr69-esr29,exr/ReadingArea_rsl0-rcl100-esl100-rsm0-rcm25-esm29-rsr0-rcr69-esr29.exr,ReadingArea_rsl0-rcl100-esl100-rsm0-rcm25-esm29-rsr0-rcr69-esr29.npz,,,,,0,161,161,359,,right,red,0.93,722.4902658462524,722.9801750183105,,,3,,7,3,lightness,readingArea,realistic,75,2023-03-25_12h00.29.698,tripletExp_regina_11082022,2022.2.4,119.8639696846726,
2,11,7,0,0.25,0.298245614035088,0,1.0,1.0,0,0.111111111111111,1.0,ReadingArea_rsl0-rcl25-esl29-rsm0-rcm100-esm100-rsr0-rcr11-esr100,exr/ReadingArea_rsl0-rcl25-esl29-rsm0-rcm100-esm100-rsr0-rcr11-esr100.exr,ReadingArea_rsl0-rcl25-esl29-rsm0-rcm100-esm100-rsr0-rcr11-esr100.npz,,,,,0,162,162,576,,right,red,2.21,726.453596830368,726.9584817886353,,,3,,7,3,lightness,readingArea,realistic,75,2023-03-25_12h00.29.698,tripletExp_regina_11082022,2022.2.4,119.8639696846726,
5,3,0,0,1.0,0.298245614035088,0,0.444444444444444,0.298245614035088,0,0.027777777777778,0.298245614035088,ReadingArea_rsl0-rcl100-esl29-rsm0-rcm44-esm29-rsr0-rcr2-esr29,exr/ReadingArea_rsl0-rcl100-esl29-rsm0-rcm44-esm29-rsr0-rcr2-esr29.exr,ReadingArea_rsl0-rcl100-esl29-rsm0-rcm44-esm29-rsr0-rcr2-esr29.npz,,,,,0,163,163,303,,left,green,0.9,728.6550679206848,729.1293778419495,,,3,,7,3,lightness,readingArea,realistic,75,2023-03-25_12h00.29.698,tripletExp_regina_11082022,2022.2.4,119.8639696846726,
14,3,2,0,0.25,3.10526315789474,0,0.444444444444444,0.298245614035088,0,0.25,0.298245614035088,ReadingArea_rsl0-rcl25-esl310-rsm0-rcm44-esm29-rsr0-rcr25-esr29,exr/ReadingArea_rsl0-rcl25-esl310-rsm0-rcm44-esm29-rsr0-rcr25-esr29.exr,ReadingArea_rsl0-rcl25-esl310-rsm0-rcm44-esm29-rsr0-rcr25-esr29.npz,,,,,0,164,164,52,,right,red,1.18,730.8321948051453,731.3223268985748,,,3,,7,3,lightness,readingArea,realistic,75,2023-03-25_12h00.29.698,tripletExp_regina_11082022,2022.2.4,119.8639696846726,
12,3,10,0,0.027777777777778,3.10526315789474,0,0.444444444444444,0.298245614035088,0,0.694444444444444,1.0,ReadingArea_rsl0-rcl2-esl310-rsm0-rcm44-esm29-rsr0-rcr69-esr100,exr/ReadingArea_rsl0-rcl2-esl310-rsm0-rcm44-esm29-rsr0-rcr69-esr100.exr,ReadingArea_rsl0-rcl2-esl310-rsm0-rcm44-esm29-rsr0-rcr69-esr100.npz,,,,,0,165,165,437,,left,green,0.98,733.0164029598236,733.5186159610748,,,3,,7,3,lightness,readingArea,realistic,75,2023-03-25_12h00.29.698,tripletExp_regina_11082022,2022.2.4,119.8639696846726,
6,0,10,0,0.027777777777778,1.0,0,0.027777777777778,0.298245614035088,0,0.694444444444444,1.0,ReadingArea_rsl0-rcl2-esl100-rsm0-rcm2-esm29-rsr0-rcr69-esr100,exr/ReadingArea_rsl0-rcl2-esl100-rsm0-rcm2-esm29-rsr0-rcr69-esr100.exr,ReadingArea_rsl0-rcl2-esl100-rsm0-rcm2-esm29-rsr0-rcr69-esr100.npz,,,,,0,166,166,532,,left,green,0.85,735.2231748104095,735.724967956543,,,3,,7,3,lightness,readingArea,realistic,75,2023-03-25_12h00.29.698,tripletExp_regina_11082022,2022.2.4,119.8639696846726,
0,11,9,0,0.027777777777778,0.298245614035088,0,1.0,1.0,0,0.444444444444444,1.0,ReadingArea_rsl0-rcl2-esl29-rsm0-rcm100-esm100-rsr0-rcr44-esr100,exr/ReadingArea_rsl0-rcl2-esl29-rsm0-rcm100-esm100-rsr0-rcr44-esr100.exr,ReadingArea_rsl0-rcl2-esl29-rsm0-rcm100-esm100-rsr0-rcr44-esr100.npz,,,,,0,167,167,32,,right,red,0.98,737.4233849048615,737.9551358222961,,,3,,7,3,lightness,readingArea,realistic,75,2023-03-25_12h00.29.698,tripletExp_regina_11082022,2022.2.4,119.8639696846726,
10,7,3,0,0.694444444444444,1.0,0,0.111111111111111,1.0,0,0.444444444444444,0.298245614035088,ReadingArea_rsl0-rcl69-esl100-rsm0-rcm11-esm100-rsr0-rcr44-esr29,exr/ReadingArea_rsl0-rcl69-esl100-rsm0-rcm11-esm100-rsr0-rcr44-esr29.exr,ReadingArea_rsl0-rcl69-esl100-rsm0-rcm11-esm100-rsr0-rcr44-esr29.npz,,,,,0,168,168,582,,right,red,0.91,739.6490788459778,740.1610429286957,,,3,,7,3,lightness,readingArea,realistic,75,2023-03-25_12h00.29.698,tripletExp_regina_11082022,2022.2.4,119.8639696846726,
0,1,7,0,0.027777777777778,0.298245614035088,0,0.111111111111111,0.298245614035088,0,0.111111111111111,1.0,ReadingArea_rsl0-rcl2-esl29-rsm0-rcm11-esm29-rsr0-rcr11-esr100,exr/ReadingArea_rsl0-rcl2-esl29-rsm0-rcm11-esm29-rsr0-rcr11-esr100.exr,ReadingArea_rsl0-rcl2-esl29-rsm0-rcm11-esm29-rsr0-rcr11-esr100.npz,,,,,0,169,169,243,,right,red,0.98,741.8473010063171,742.413468837738,,,3,,7,3,lightness,readingArea,realistic,75,2023-03-25_12h00.29.698,tripletExp_regina_11082022,2022.2.4,119.8639696846726,
10,14,4,0,0.694444444444444,1.0,0,0.25,3.10526315789474,0,0.694444444444444,0.298245614035088,ReadingArea_rsl0-rcl69-esl100-rsm0-rcm25-esm310-rsr0-rcr69-esr29,exr/ReadingArea_rsl0-rcl69-esl100-rsm0-rcm25-esm310-rsr0-rcr69-esr29.exr,ReadingArea_rsl0-rcl69-esl100-rsm0-rcm25-esm310-rsr0-rcr69-esr29.npz,,,,,0,170,170,267,,left,green,1.13,744.1312739849091,744.6209578514099,,,3,,7,3,lightness,readingArea,realistic,75,2023-03-25_12h00.29.698,tripletExp_regina_11082022,2022.2.4,119.8639696846726,
13,10,9,0,0.111111111111111,3.10526315789474,0,0.694444444444444,1.0,0,0.444444444444444,1.0,ReadingArea_rsl0-rcl11-esl310-rsm0-rcm69-esm100-rsr0-rcr44-esr100,exr/ReadingArea_rsl0-rcl11-esl310-rsm0-rcm69-esm100-rsr0-rcr44-esr100.exr,ReadingArea_rsl0-rcl11-esl310-rsm0-rcm69-esm100-rsr0-rcr44-esr100.npz,,,,,0,171,171,330,,right,red,1.13,746.340735912323,746.7964367866516,,,3,,7,3,lightness,readingArea,realistic,75,2023-03-25_12h00.29.698,tripletExp_regina_11082022,2022.2.4,119.8639696846726,
10,6,13,0,0.694444444444444,1.0,0,0.027777777777778,1.0,0,0.111111111111111,3.10526315789474,ReadingArea_rsl0-rcl69-esl100-rsm0-rcm2-esm100-rsr0-rcr11-esr310,exr/ReadingArea_rsl0-rcl69-esl100-rsm0-rcm2-esm100-rsr0-rcr11-esr310.exr,ReadingArea_rsl0-rcl69-esl100-rsm0-rcm2-esm100-rsr0-rcr11-esr310.npz,,,,,0,172,172,41,,right,red,2.26,750.2771790027618,750.764328956604,,,3,,7,3,lightness,readingArea,realistic,75,2023-03-25_12h00.29.698,tripletExp_regina_11082022,2022.2.4,119.8639696846726,
7,8,6,0,0.111111111111111,1.0,0,0.25,1.0,0,0.027777777777778,1.0,ReadingArea_rsl0-rcl11-esl100-rsm0-rcm25-esm100-rsr0-rcr2-esr100,exr/ReadingArea_rsl0-rcl11-esl100-rsm0-rcm25-esm100-rsr0-rcr2-esr100.exr,ReadingArea_rsl0-rcl11-esl100-rsm0-rcm25-esm100-rsr0-rcr2-esr100.npz,,,,,0,173,173,387,,left,green,0.89,752.4723949432373,752.980880022049,,,3,,7,3,lightness,readingArea,realistic,75,2023-03-25_12h00.29.698,tripletExp_regina_11082022,2022.2.4,119.8639696846726,
1,14,0,0,0.111111111111111,0.298245614035088,0,0.25,3.10526315789474,0,0.027777777777778,0.298245614035088,ReadingArea_rsl0-rcl11-esl29-rsm0-rcm25-esm310-rsr0-rcr2-esr29,exr/ReadingArea_rsl0-rcl11-esl29-rsm0-rcm25-esm310-rsr0-rcr2-esr29.exr,ReadingArea_rsl0-rcl11-esl29-rsm0-rcm25-esm310-rsr0-rcr2-esr29.npz,,,,,0,174,174,394,,left,green,2.69,756.4642720222473,756.9251170158386,,,3,,7,3,lightness,readingArea,realistic,75,2023-03-25_12h00.29.698,tripletExp_regina_11082022,2022.2.4,119.8639696846726,
10,4,8,0,0.694444444444444,1.0,0,0.694444444444444,0.298245614035088,0,0.25,1.0,ReadingArea_rsl0-rcl69-esl100-rsm0-rcm69-esm29-rsr0-rcr25-esr100,exr/ReadingArea_rsl0-rcl69-esl100-rsm0-rcm69-esm29-rsr0-rcr25-esr100.exr,ReadingArea_rsl0-rcl69-esl100-rsm0-rcm69-esm29-rsr0-rcr25-esr100.npz,,,,,0,175,175,562,,right,red,0.75,758.6401498317719,759.0942130088806,,,3,,7,3,lightness,readingArea,realistic,75,2023-03-25_12h00.29.698,tripletExp_regina_11082022,2022.2.4,119.8639696846726,
9,3,0,0,0.444444444444444,1.0,0,0.444444444444444,0.298245614035088,0,0.027777777777778,0.298245614035088,ReadingArea_rsl0-rcl44-esl100-rsm0-rcm44-esm29-rsr0-rcr2-esr29,exr/ReadingArea_rsl0-rcl44-esl100-rsm0-rcm44-esm29-rsr0-rcr2-esr29.exr,ReadingArea_rsl0-rcl44-esl100-rsm0-rcm44-esm29-rsr0-rcr2-esr29.npz,,,,,0,176,176,120,,left,green,0.9,760.7979869842529,761.2445888519287,,,3,,7,3,lightness,readingArea,realistic,75,2023-03-25_12h00.29.698,tripletExp_regina_11082022,2022.2.4,119.8639696846726,
3,14,12,0,0.444444444444444,0.298245614035088,0,0.25,3.10526315789474,0,0.027777777777778,3.10526315789474,ReadingArea_rsl0-rcl44-esl29-rsm0-rcm25-esm310-rsr0-rcr2-esr310,exr/ReadingArea_rsl0-rcl44-esl29-rsm0-rcm25-esm310-rsr0-rcr2-esr310.exr,ReadingArea_rsl0-rcl44-esl29-rsm0-rcm25-esm310-rsr0-rcr2-esr310.npz,,,,,0,177,177,336,,left,green,0.99,762.9481999874115,763.4183769226074,,,3,,7,3,lightness,readingArea,realistic,75,2023-03-25_12h00.29.698,tripletExp_regina_11082022,2022.2.4,119.8639696846726,
4,1,13,0,0.694444444444444,0.298245614035088,0,0.111111111111111,0.298245614035088,0,0.111111111111111,3.10526315789474,ReadingArea_rsl0-rcl69-esl29-rsm0-rcm11-esm29-rsr0-rcr11-esr310,exr/ReadingArea_rsl0-rcl69-esl29-rsm0-rcm11-esm29-rsr0-rcr11-esr310.exr,ReadingArea_rsl0-rcl69-esl29-rsm0-rcm11-esm29-rsr0-rcr11-esr310.npz,,,,,0,178,178,565,,left,green,2.51,766.918949842453,767.3970248699188,,,3,,7,3,lightness,readingArea,realistic,75,2023-03-25_12h00.29.698,tripletExp_regina_11082022,2022.2.4,119.8639696846726,
11,7,9,0,1.0,1.0,0,0.111111111111111,1.0,0,0.444444444444444,1.0,ReadingArea_rsl0-rcl100-esl100-rsm0-rcm11-esm100-rsr0-rcr44-esr100,exr/ReadingArea_rsl0-rcl100-esl100-rsm0-rcm11-esm100-rsr0-rcr44-esr100.exr,ReadingArea_rsl0-rcl100-esl100-rsm0-rcm11-esm100-rsr0-rcr44-esr100.npz,,,,,0,179,179,521,,right,red,2.51,770.8737609386444,771.3861119747162,,,3,,7,3,lightness,readingArea,realistic,75,2023-03-25_12h00.29.698,tripletExp_regina_11082022,2022.2.4,119.8639696846726,
6,12,3,0,0.027777777777778,1.0,0,0.027777777777778,3.10526315789474,0,0.444444444444444,0.298245614035088,ReadingArea_rsl0-rcl2-esl100-rsm0-rcm2-esm310-rsr0-rcr44-esr29,exr/ReadingArea_rsl0-rcl2-esl100-rsm0-rcm2-esm310-rsr0-rcr44-esr29.exr,ReadingArea_rsl0-rcl2-esl100-rsm0-rcm2-esm310-rsr0-rcr44-esr29.npz,,,,,0,180,180,284,,right,red,2.24,774.8677318096161,775.4009900093079,,,3,,7,3,lightness,readingArea,realistic,75,2023-03-25_12h00.29.698,tripletExp_regina_11082022,2022.2.4,119.8639696846726,
6,9,5,0,0.027777777777778,1.0,0,0.444444444444444,1.0,0,1.0,0.298245614035088,ReadingArea_rsl0-rcl2-esl100-rsm0-rcm44-esm100-rsr0-rcr100-esr29,exr/ReadingArea_rsl0-rcl2-esl100-rsm0-rcm44-esm100-rsr0-rcr100-esr29.exr,ReadingArea_rsl0-rcl2-esl100-rsm0-rcm44-esm100-rsr0-rcr100-esr29.npz,,,,,0,181,181,29,,right,red,2.51,778.887298822403,779.3657419681549,,,3,,7,3,lightness,readingArea,realistic,75,2023-03-25_12h00.29.698,tripletExp_regina_11082022,2022.2.4,119.8639696846726,
14,12,10,0,0.25,3.10526315789474,0,0.027777777777778,3.10526315789474,0,0.694444444444444,1.0,ReadingArea_rsl0-rcl25-esl310-rsm0-rcm2-esm310-rsr0-rcr69-esr100,exr/ReadingArea_rsl0-rcl25-esl310-rsm0-rcm2-esm310-rsr0-rcr69-esr100.exr,ReadingArea_rsl0-rcl25-esl310-rsm0-rcm2-esm310-rsr0-rcr69-esr100.npz,,,,,0,182,182,331,,left,green,2.36,782.8251979351044,783.2982637882233,,,3,,7,3,lightness,readingArea,realistic,75,2023-03-25_12h00.29.698,tripletExp_regina_11082022,2022.2.4,119.8639696846726,
14,7,1,0,0.25,3.10526315789474,0,0.111111111111111,1.0,0,0.111111111111111,0.298245614035088,ReadingArea_rsl0-rcl25-esl310-rsm0-rcm11-esm100-rsr0-rcr11-esr29,exr/ReadingArea_rsl0-rcl25-esl310-rsm0-rcm11-esm100-rsr0-rcr11-esr29.exr,ReadingArea_rsl0-rcl25-esl310-rsm0-rcm11-esm100-rsr0-rcr11-esr29.npz,,,,,0,183,183,298,,right,red,0.96,784.9872648715973,,,,3,,7,3,lightness,readingArea,realistic,75,2023-03-25_12h00.29.698,tripletExp_regina_11082022,2022.2.4,119.8639696846726,
5,10,12,0,1.0,0.298245614035088,0,0.694444444444444,1.0,0,0.027777777777778,3.10526315789474,ReadingArea_rsl0-rcl100-esl29-rsm0-rcm69-esm100-rsr0-rcr2-esr310,exr/ReadingArea_rsl0-rcl100-esl29-rsm0-rcm69-esm100-rsr0-rcr2-esr310.exr,ReadingArea_rsl0-rcl100-esl29-rsm0-rcm69-esm100-rsr0-rcr2-esr310.npz,,,,,0,184,184,587,,left,green,1.34,787.3270938396454,787.8040208816528,,,3,,7,3,lightness,readingArea,realistic,75,2023-03-25_12h00.29.698,tripletExp_regina_11082022,2022.2.4,119.8639696846726,
14,2,0,0,0.25,3.10526315789474,0,0.25,0.298245614035088,0,0.027777777777778,0.298245614035088,ReadingArea_rsl0-rcl25-esl310-rsm0-rcm25-esm29-rsr0-rcr2-esr29,exr/ReadingArea_rsl0-rcl25-esl310-rsm0-rcm25-esm29-rsr0-rcr2-esr29.exr,ReadingArea_rsl0-rcl25-esl310-rsm0-rcm25-esm29-rsr0-rcr2-esr29.npz,,,,,0,185,185,460,,right,red,1.17,789.5277049541473,790.0415890216827,,,3,,7,3,lightness,readingArea,realistic,75,2023-03-25_12h00.29.698,tripletExp_regina_11082022,2022.2.4,119.8639696846726,
6,1,9,0,0.027777777777778,1.0,0,0.111111111111111,0.298245614035088,0,0.444444444444444,1.0,ReadingArea_rsl0-rcl2-esl100-rsm0-rcm11-esm29-rsr0-rcr44-esr100,exr/ReadingArea_rsl0-rcl2-esl100-rsm0-rcm11-esm29-rsr0-rcr44-esr100.exr,ReadingArea_rsl0-rcl2-esl100-rsm0-rcm11-esm29-rsr0-rcr44-esr100.npz,,,,,0,186,186,74,,left,green,0.89,791.7363848686218,792.3684298992157,,,3,,7,3,lightness,readingArea,realistic,75,2023-03-25_12h00.29.698,tripletExp_regina_11082022,2022.2.4,119.8639696846726,
5,2,10,0,1.0,0.298245614035088,0,0.25,0.298245614035088,0,0.694444444444444,1.0,ReadingArea_rsl0-rcl100-esl29-rsm0-rcm25-esm29-rsr0-rcr69-esr100,exr/ReadingArea_rsl0-rcl100-esl29-rsm0-rcm25-esm29-rsr0-rcr69-esr100.exr,ReadingArea_rsl0-rcl100-esl29-rsm0-rcm25-esm29-rsr0-rcr69-esr100.npz,,,,,0,187,187,595,,right,red,1.36,794.080727815628,794.5479218959808,,,3,,7,3,lightness,readingArea,realistic,75,2023-03-25_12h00.29.698,tripletExp_regina_11082022,2022.2.4,119.8639696846726,
4,3,9,0,0.694444444444444,0.298245614035088,0,0.444444444444444,0.298245614035088,0,0.444444444444444,1.0,ReadingArea_rsl0-rcl69-esl29-rsm0-rcm44-esm29-rsr0-rcr44-esr100,exr/ReadingArea_rsl0-rcl69-esl29-rsm0-rcm44-esm29-rsr0-rcr44-esr100.exr,ReadingArea_rsl0-rcl69-esl29-rsm0-rcm44-esm29-rsr0-rcr44-esr100.npz,,,,,0,188,188,451,,left,green,2.22,798.0191948413849,798.6179709434509,,,3,,7,3,lightness,readingArea,realistic,75,2023-03-25_12h00.29.698,tripletExp_regina_11082022,2022.2.4,119.8639696846726,
2,9,11,0,0.25,0.298245614035088,0,0.444444444444444,1.0,0,1.0,1.0,ReadingArea_rsl0-rcl25-esl29-rsm0-rcm44-esm100-rsr0-rcr100-esr100,exr/ReadingArea_rsl0-rcl25-esl29-rsm0-rcm44-esm100-rsr0-rcr100-esr100.exr,ReadingArea_rsl0-rcl25-esl29-rsm0-rcm44-esm100-rsr0-rcr100-esr100.npz,,,,,0,189,189,164,,left,green,0.88,800.3246369361877,800.8027009963989,,,3,,7,3,lightness,readingArea,realistic,75,2023-03-25_12h00.29.698,tripletExp_regina_11082022,2022.2.4,119.8639696846726,
4,11,14,0,0.694444444444444,0.298245614035088,0,1.0,1.0,0,0.25,3.10526315789474,ReadingArea_rsl0-rcl69-esl29-rsm0-rcm100-esm100-rsr0-rcr25-esr310,exr/ReadingArea_rsl0-rcl69-esl29-rsm0-rcm100-esm100-rsr0-rcr25-esr310.exr,ReadingArea_rsl0-rcl69-esl29-rsm0-rcm100-esm100-rsr0-rcr25-esr310.npz,,,,,0,190,190,165,,right,red,2.18,804.2898409366608,,,,3,,7,3,lightness,readingArea,realistic,75,2023-03-25_12h00.29.698,tripletExp_regina_11082022,2022.2.4,119.8639696846726,
10,1,6,0,0.694444444444444,1.0,0,0.111111111111111,0.298245614035088,0,0.027777777777778,1.0,ReadingArea_rsl0-rcl69-esl100-rsm0-rcm11-esm29-rsr0-rcr2-esr100,exr/ReadingArea_rsl0-rcl69-esl100-rsm0-rcm11-esm29-rsr0-rcr2-esr100.exr,ReadingArea_rsl0-rcl69-esl100-rsm0-rcm11-esm29-rsr0-rcr2-esr100.npz,,,,,0,191,191,160,,right,red,0.8,806.4759559631348,806.9333748817444,,,3,,7,3,lightness,readingArea,realistic,75,2023-03-25_12h00.29.698,tripletExp_regina_11082022,2022.2.4,119.8639696846726,
9,11,2,0,0.444444444444444,1.0,0,1.0,1.0,0,0.25,0.298245614035088,ReadingArea_rsl0-rcl44-esl100-rsm0-rcm100-esm100-rsr0-rcr25-esr29,exr/ReadingArea_rsl0-rcl44-esl100-rsm0-rcm100-esm100-rsr0-rcr25-esr29.exr,ReadingArea_rsl0-rcl44-esl100-rsm0-rcm100-esm100-rsr0-rcr25-esr29.npz,,,,,0,192,192,329,,left,green,1.13,808.6471610069275,809.1335959434509,,,3,,7,3,lightness,readingArea,realistic,75,2023-03-25_12h00.29.698,tripletExp_regina_11082022,2022.2.4,119.8639696846726,
11,14,9,0,1.0,1.0,0,0.25,3.10526315789474,0,0.444444444444444,1.0,ReadingArea_rsl0-rcl100-esl100-rsm0-rcm25-esm310-rsr0-rcr44-esr100,exr/ReadingArea_rsl0-rcl100-esl100-rsm0-rcm25-esm310-rsr0-rcr44-esr100.exr,ReadingArea_rsl0-rcl100-esl100-rsm0-rcm25-esm310-rsr0-rcr44-esr100.npz,,,,,0,193,193,43,,left,green,2.2,812.6297569274902,813.1094868183136,,,3,,7,3,lightness,readingArea,realistic,75,2023-03-25_12h00.29.698,tripletExp_regina_11082022,2022.2.4,119.8639696846726,
10,9,6,0,0.694444444444444,1.0,0,0.444444444444444,1.0,0,0.027777777777778,1.0,ReadingArea_rsl0-rcl69-esl100-rsm0-rcm44-esm100-rsr0-rcr2-esr100,exr/ReadingArea_rsl0-rcl69-esl100-rsm0-rcm44-esm100-rsr0-rcr2-esr100.exr,ReadingArea_rsl0-rcl69-esl100-rsm0-rcm44-esm100-rsr0-rcr2-esr100.npz,,,,,0,194,194,35,,left,green,1.15,814.7992038726807,815.282191991806,,,3,,7,3,lightness,readingArea,realistic,75,2023-03-25_12h00.29.698,tripletExp_regina_11082022,2022.2.4,119.8639696846726,
11,2,8,0,1.0,1.0,0,0.25,0.298245614035088,0,0.25,1.0,ReadingArea_rsl0-rcl100-esl100-rsm0-rcm25-esm29-rsr0-rcr25-esr100,exr/ReadingArea_rsl0-rcl100-esl100-rsm0-rcm25-esm29-rsr0-rcr25-esr100.exr,ReadingArea_rsl0-rcl100-esl100-rsm0-rcm25-esm29-rsr0-rcr25-esr100.npz,,,,,0,195,195,214,,right,red,0.96,816.983048915863,817.466906785965,,,3,,7,3,lightness,readingArea,realistic,75,2023-03-25_12h00.29.698,tripletExp_regina_11082022,2022.2.4,119.8639696846726,
10,13,1,0,0.694444444444444,1.0,0,0.111111111111111,3.10526315789474,0,0.111111111111111,0.298245614035088,ReadingArea_rsl0-rcl69-esl100-rsm0-rcm11-esm310-rsr0-rcr11-esr29,exr/ReadingArea_rsl0-rcl69-esl100-rsm0-rcm11-esm310-rsr0-rcr11-esr29.exr,ReadingArea_rsl0-rcl69-esl100-rsm0-rcm11-esm310-rsr0-rcr11-esr29.npz,,,,,0,196,196,149,,right,red,1.11,819.1731069087982,819.8513839244843,,,3,,7,3,lightness,readingArea,realistic,75,2023-03-25_12h00.29.698,tripletExp_regina_11082022,2022.2.4,119.8639696846726,
1,11,14,0,0.111111111111111,0.298245614035088,0,1.0,1.0,0,0.25,3.10526315789474,ReadingArea_rsl0-rcl11-esl29-rsm0-rcm100-esm100-rsr0-rcr25-esr310,exr/ReadingArea_rsl0-rcl11-esl29-rsm0-rcm100-esm100-rsr0-rcr25-esr310.exr,ReadingArea_rsl0-rcl11-esl29-rsm0-rcm100-esm100-rsr0-rcr25-esr310.npz,,,,,0,197,197,399,,right,red,1.14,821.5350568294525,822.01060795784,,,3,,7,3,lightness,readingArea,realistic,75,2023-03-25_12h00.29.698,tripletExp_regina_11082022,2022.2.4,119.8639696846726,
3,4,13,0,0.444444444444444,0.298245614035088,0,0.694444444444444,0.298245614035088,0,0.111111111111111,3.10526315789474,ReadingArea_rsl0-rcl44-esl29-rsm0-rcm69-esm29-rsr0-rcr11-esr310,exr/ReadingArea_rsl0-rcl44-esl29-rsm0-rcm69-esm29-rsr0-rcr11-esr310.exr,ReadingArea_rsl0-rcl44-esl29-rsm0-rcm69-esm29-rsr0-rcr11-esr310.npz,,,,,0,198,198,63,,left,green,3.98,827.2431190013885,827.7157499790192,,,3,,7,3,lightness,readingArea,realistic,75,2023-03-25_12h00.29.698,tripletExp_regina_11082022,2022.2.4,119.8639696846726,
12,14,4,0,0.027777777777778,3.10526315789474,0,0.25,3.10526315789474,0,0.694444444444444,0.298245614035088,ReadingArea_rsl0-rcl2-esl310-rsm0-rcm25-esm310-rsr0-rcr69-esr29,exr/ReadingArea_rsl0-rcl2-esl310-rsm0-rcm25-esm310-rsr0-rcr69-esr29.exr,ReadingArea_rsl0-rcl2-esl310-rsm0-rcm25-esm310-rsr0-rcr69-esr29.npz,,,,,0,199,199,315,,right,red,2.08,831.1914169788361,831.6670808792114,,,3,,7,3,lightness,readingArea,realistic,75,2023-03-25_12h00.29.698,tripletExp_regina_11082022,2022.2.4,119.8639696846726,
14,10,9,0,0.25,3.10526315789474,0,0.694444444444444,1.0,0,0.444444444444444,1.0,ReadingArea_rsl0-rcl25-esl310-rsm0-rcm69-esm100-rsr0-rcr44-esr100,exr/ReadingArea_rsl0-rcl25-esl310-rsm0-rcm69-esm100-rsr0-rcr44-esr100.exr,ReadingArea_rsl0-rcl25-esl310-rsm0-rcm69-esm100-rsr0-rcr44-esr100.npz,,,,,0,200,200,402,,left,green,2.02,835.1490938663483,835.6185038089752,,,3,,7,3,lightness,readingArea,realistic,75,2023-03-25_12h00.29.698,tripletExp_regina_11082022,2022.2.4,119.8639696846726,
14,0,6,0,0.25,3.10526315789474,0,0.027777777777778,0.298245614035088,0,0.027777777777778,1.0,ReadingArea_rsl0-rcl25-esl310-rsm0-rcm2-esm29-rsr0-rcr2-esr100,exr/ReadingArea_rsl0-rcl25-esl310-rsm0-rcm2-esm29-rsr0-rcr2-esr100.exr,ReadingArea_rsl0-rcl25-esl310-rsm0-rcm2-esm29-rsr0-rcr2-esr100.npz,,,,,0,201,201,496,,right,red,0.97,837.3259418010712,837.8469178676605,,,3,,7,3,lightness,readingArea,realistic,75,2023-03-25_12h00.29.698,tripletExp_regina_11082022,2022.2.4,119.8639696846726,
5,3,10,0,1.0,0.298245614035088,0,0.444444444444444,0.298245614035088,0,0.694444444444444,1.0,ReadingArea_rsl0-rcl100-esl29-rsm0-rcm44-esm29-rsr0-rcr69-esr100,exr/ReadingArea_rsl0-rcl100-esl29-rsm0-rcm44-esm29-rsr0-rcr69-esr100.exr,ReadingArea_rsl0-rcl100-esl29-rsm0-rcm44-esm29-rsr0-rcr69-esr100.npz,,,,,0,202,202,546,,left,green,2.24,841.319177865982,841.8297460079193,,,3,,7,3,lightness,readingArea,realistic,75,2023-03-25_12h00.29.698,tripletExp_regina_11082022,2022.2.4,119.8639696846726,
