index_left,index_middle,index_right,reflectance_surround_left,reflectance_center_left,emission_spot_left,reflectance_surround_middle,reflectance_center_middle,emission_spot_middle,reflectance_surround_right,reflectance_center_right,emission_spot_right,ImageName,ImageExr,ImageNpy,trials_2.thisRepN,trials_2.thisTrialN,trials_2.thisN,trials_2.thisIndex,trials.thisRepN,trials.thisTrialN,trials.thisN,trials.thisIndex,sound_1.started,BB_Trial.resp,BB_Trial.color,BB_Trial.rt,text.started,text.stopped,sound_2.started,sound_1.stopped,block,participant,session,L/B,scene,condition,nTrialsPerBlock,date,expName,psychopyVersion,frameRate,Unnamed: 42
3,6,13,0,0.444444444444444,0.298245614035088,0,0.027777777777778,1.0,0,0.111111111111111,3.10526315789474,ReadingArea_rsl0-rcl44-esl29-rsm0-rcm2-esm100-rsr0-rcr11-esr310,exr/ReadingArea_rsl0-rcl44-esl29-rsm0-rcm2-esm100-rsr0-rcr11-esr310.exr,ReadingArea_rsl0-rcl44-esl29-rsm0-rcm2-esm100-rsr0-rcr11-esr310.npz,,,,,0,0,0,449,190.88449337482453,right,red,4.14,204.5686240196228,205.0878629684448,161.7006864786148,180.41444897651672,1,5,3,lightness,readingArea,gauss,75,2023-03-14_09h24.39.869,tripletExp_regina_11082022,2022.2.4,120.1665133895445,
5,3,2,0,1.0,0.298245614035088,0,0.444444444444444,0.298245614035088,0,0.25,0.298245614035088,ReadingArea_rsl0-rcl100-esl29-rsm0-rcm44-esm29-rsr0-rcr25-esr29,exr/ReadingArea_rsl0-rcl100-esl29-rsm0-rcm44-esm29-rsr0-rcr25-esr29.exr,ReadingArea_rsl0-rcl100-esl29-rsm0-rcm44-esm29-rsr0-rcr25-esr29.npz,,,,,0,1,1,143,,right,red,0.91,206.8195960521698,208.1094629764557,,,1,5,3,lightness,readingArea,gauss,75,2023-03-14_09h24.39.869,tripletExp_regina_11082022,2022.2.4,120.1665133895445,
13,1,4,0,0.111111111111111,3.10526315789474,0,0.111111111111111,0.298245614035088,0,0.694444444444444,0.298245614035088,ReadingArea_rsl0-rcl11-esl310-rsm0-rcm11-esm29-rsr0-rcr69-esr29,exr/ReadingArea_rsl0-rcl11-esl310-rsm0-rcm11-esm29-rsr0-rcr69-esr29.exr,ReadingArea_rsl0-rcl11-esl310-rsm0-rcm11-esm29-rsr0-rcr69-esr29.npz,,,,,0,2,2,396,,right,red,3.23,211.5755610466004,212.0111050605774,,,1,5,3,lightness,readingArea,gauss,75,2023-03-14_09h24.39.869,tripletExp_regina_11082022,2022.2.4,120.1665133895445,
1,2,12,0,0.111111111111111,0.298245614035088,0,0.25,0.298245614035088,0,0.027777777777778,3.10526315789474,ReadingArea_rsl0-rcl11-esl29-rsm0-rcm25-esm29-rsr0-rcr2-esr310,exr/ReadingArea_rsl0-rcl11-esl29-rsm0-rcm25-esm29-rsr0-rcr2-esr310.exr,ReadingArea_rsl0-rcl11-esl29-rsm0-rcm25-esm29-rsr0-rcr2-esr310.npz,,,,,0,3,3,229,,right,red,1.25,213.7116620540619,214.13513493537903,,,1,5,3,lightness,readingArea,gauss,75,2023-03-14_09h24.39.869,tripletExp_regina_11082022,2022.2.4,120.1665133895445,
3,10,4,0,0.444444444444444,0.298245614035088,0,0.694444444444444,1.0,0,0.694444444444444,0.298245614035088,ReadingArea_rsl0-rcl44-esl29-rsm0-rcm69-esm100-rsr0-rcr69-esr29,exr/ReadingArea_rsl0-rcl44-esl29-rsm0-rcm69-esm100-rsr0-rcr69-esr29.exr,ReadingArea_rsl0-rcl44-esl29-rsm0-rcm69-esm100-rsr0-rcr69-esr29.npz,,,,,0,4,4,435,,left,green,3.22,217.59960103034973,218.0654509067536,,,1,5,3,lightness,readingArea,gauss,75,2023-03-14_09h24.39.869,tripletExp_regina_11082022,2022.2.4,120.1665133895445,
12,3,0,0,0.027777777777778,3.10526315789474,0,0.444444444444444,0.298245614035088,0,0.027777777777778,0.298245614035088,ReadingArea_rsl0-rcl2-esl310-rsm0-rcm44-esm29-rsr0-rcr2-esr29,exr/ReadingArea_rsl0-rcl2-esl310-rsm0-rcm44-esm29-rsr0-rcr2-esr29.exr,ReadingArea_rsl0-rcl2-esl310-rsm0-rcm44-esm29-rsr0-rcr2-esr29.npz,,,,,0,5,5,502,,left,green,1.06,219.78056406974792,220.21259212493896,,,1,5,3,lightness,readingArea,gauss,75,2023-03-14_09h24.39.869,tripletExp_regina_11082022,2022.2.4,120.1665133895445,
10,5,1,0,0.694444444444444,1.0,0,1.0,0.298245614035088,0,0.111111111111111,0.298245614035088,ReadingArea_rsl0-rcl69-esl100-rsm0-rcm100-esm29-rsr0-rcr11-esr29,exr/ReadingArea_rsl0-rcl69-esl100-rsm0-rcm100-esm29-rsr0-rcr11-esr29.exr,ReadingArea_rsl0-rcl69-esl100-rsm0-rcm100-esm29-rsr0-rcr11-esr29.npz,,,,,0,6,6,152,,left,green,1.21,221.898677110672,222.3400740623474,,,1,5,3,lightness,readingArea,gauss,75,2023-03-14_09h24.39.869,tripletExp_regina_11082022,2022.2.4,120.1665133895445,
4,5,1,0,0.694444444444444,0.298245614035088,0,1.0,0.298245614035088,0,0.111111111111111,0.298245614035088,ReadingArea_rsl0-rcl69-esl29-rsm0-rcm100-esm29-rsr0-rcr11-esr29,exr/ReadingArea_rsl0-rcl69-esl29-rsm0-rcm100-esm29-rsr0-rcr11-esr29.exr,ReadingArea_rsl0-rcl69-esl29-rsm0-rcm100-esm29-rsr0-rcr11-esr29.npz,,,,,0,7,7,240,,left,green,0.99,224.0370271205902,224.4391360282898,,,1,5,3,lightness,readingArea,gauss,75,2023-03-14_09h24.39.869,tripletExp_regina_11082022,2022.2.4,120.1665133895445,
3,8,7,0,0.444444444444444,0.298245614035088,0,0.25,1.0,0,0.111111111111111,1.0,ReadingArea_rsl0-rcl44-esl29-rsm0-rcm25-esm100-rsr0-rcr11-esr100,exr/ReadingArea_rsl0-rcl44-esl29-rsm0-rcm25-esm100-rsr0-rcr11-esr100.exr,ReadingArea_rsl0-rcl44-esl29-rsm0-rcm25-esm100-rsr0-rcr11-esr100.npz,,,,,0,8,8,484,,left,green,1.22,226.1599440574646,226.6128211021424,,,1,5,3,lightness,readingArea,gauss,75,2023-03-14_09h24.39.869,tripletExp_regina_11082022,2022.2.4,120.1665133895445,
6,1,10,0,0.027777777777778,1.0,0,0.111111111111111,0.298245614035088,0,0.694444444444444,1.0,ReadingArea_rsl0-rcl2-esl100-rsm0-rcm11-esm29-rsr0-rcr69-esr100,exr/ReadingArea_rsl0-rcl2-esl100-rsm0-rcm11-esm29-rsr0-rcr69-esr100.exr,ReadingArea_rsl0-rcl2-esl100-rsm0-rcm11-esm29-rsr0-rcr69-esr100.npz,,,,,0,9,9,561,,left,green,1.3,228.30669593811035,228.74573802948,,,1,5,3,lightness,readingArea,gauss,75,2023-03-14_09h24.39.869,tripletExp_regina_11082022,2022.2.4,120.1665133895445,
1,13,8,0,0.111111111111111,0.298245614035088,0,0.111111111111111,3.10526315789474,0,0.25,1.0,ReadingArea_rsl0-rcl11-esl29-rsm0-rcm11-esm310-rsr0-rcr25-esr100,exr/ReadingArea_rsl0-rcl11-esl29-rsm0-rcm11-esm310-rsr0-rcr25-esr100.exr,ReadingArea_rsl0-rcl11-esl29-rsm0-rcm11-esm310-rsr0-rcr25-esr100.npz,,,,,0,10,10,64,,right,red,1.29,230.4326949119568,230.87435603141785,,,1,5,3,lightness,readingArea,gauss,75,2023-03-14_09h24.39.869,tripletExp_regina_11082022,2022.2.4,120.1665133895445,
12,7,9,0,0.027777777777778,3.10526315789474,0,0.111111111111111,1.0,0,0.444444444444444,1.0,ReadingArea_rsl0-rcl2-esl310-rsm0-rcm11-esm100-rsr0-rcr44-esr100,exr/ReadingArea_rsl0-rcl2-esl310-rsm0-rcm11-esm100-rsr0-rcr44-esr100.exr,ReadingArea_rsl0-rcl2-esl310-rsm0-rcm11-esm100-rsr0-rcr44-esr100.npz,,,,,0,11,11,124,,left,green,1.43,232.56629300117493,233.1347060203552,,,1,5,3,lightness,readingArea,gauss,75,2023-03-14_09h24.39.869,tripletExp_regina_11082022,2022.2.4,120.1665133895445,
4,8,10,0,0.694444444444444,0.298245614035088,0,0.25,1.0,0,0.694444444444444,1.0,ReadingArea_rsl0-rcl69-esl29-rsm0-rcm25-esm100-rsr0-rcr69-esr100,exr/ReadingArea_rsl0-rcl69-esl29-rsm0-rcm25-esm100-rsr0-rcr69-esr100.exr,ReadingArea_rsl0-rcl69-esl29-rsm0-rcm25-esm100-rsr0-rcr69-esr100.npz,,,,,0,12,12,221,,left,green,1.38,234.84112191200256,235.2863910198212,,,1,5,3,lightness,readingArea,gauss,75,2023-03-14_09h24.39.869,tripletExp_regina_11082022,2022.2.4,120.1665133895445,
13,8,0,0,0.111111111111111,3.10526315789474,0,0.25,1.0,0,0.027777777777778,0.298245614035088,ReadingArea_rsl0-rcl11-esl310-rsm0-rcm25-esm100-rsr0-rcr2-esr29,exr/ReadingArea_rsl0-rcl11-esl310-rsm0-rcm25-esm100-rsr0-rcr2-esr29.exr,ReadingArea_rsl0-rcl11-esl310-rsm0-rcm25-esm100-rsr0-rcr2-esr29.npz,,,,,0,13,13,429,,left,green,1.02,236.9833469390869,237.41746592521667,,,1,5,3,lightness,readingArea,gauss,75,2023-03-14_09h24.39.869,tripletExp_regina_11082022,2022.2.4,120.1665133895445,
9,12,11,0,0.444444444444444,1.0,0,0.027777777777778,3.10526315789474,0,1.0,1.0,ReadingArea_rsl0-rcl44-esl100-rsm0-rcm2-esm310-rsr0-rcr100-esr100,exr/ReadingArea_rsl0-rcl44-esl100-rsm0-rcm2-esm310-rsr0-rcr100-esr100.exr,ReadingArea_rsl0-rcl44-esl100-rsm0-rcm2-esm310-rsr0-rcr100-esr100.npz,,,,,0,14,14,144,,left,green,1.57,239.1399121284485,239.5966100692749,,,1,5,3,lightness,readingArea,gauss,75,2023-03-14_09h24.39.869,tripletExp_regina_11082022,2022.2.4,120.1665133895445,
4,12,7,0,0.694444444444444,0.298245614035088,0,0.027777777777778,3.10526315789474,0,0.111111111111111,1.0,ReadingArea_rsl0-rcl69-esl29-rsm0-rcm2-esm310-rsr0-rcr11-esr100,exr/ReadingArea_rsl0-rcl69-esl29-rsm0-rcm2-esm310-rsr0-rcr11-esr100.exr,ReadingArea_rsl0-rcl69-esl29-rsm0-rcm2-esm310-rsr0-rcr11-esr100.npz,,,,,0,15,15,112,,right,red,2.48,243.0578761100769,243.60528707504272,,,1,5,3,lightness,readingArea,gauss,75,2023-03-14_09h24.39.869,tripletExp_regina_11082022,2022.2.4,120.1665133895445,
9,12,0,0,0.444444444444444,1.0,0,0.027777777777778,3.10526315789474,0,0.027777777777778,0.298245614035088,ReadingArea_rsl0-rcl44-esl100-rsm0-rcm2-esm310-rsr0-rcr2-esr29,exr/ReadingArea_rsl0-rcl44-esl100-rsm0-rcm2-esm310-rsr0-rcr2-esr29.exr,ReadingArea_rsl0-rcl44-esl100-rsm0-rcm2-esm310-rsr0-rcr2-esr29.npz,,,,,0,16,16,175,,right,red,1.35,245.31885600090027,245.7988839149475,,,1,5,3,lightness,readingArea,gauss,75,2023-03-14_09h24.39.869,tripletExp_regina_11082022,2022.2.4,120.1665133895445,
2,8,11,0,0.25,0.298245614035088,0,0.25,1.0,0,1.0,1.0,ReadingArea_rsl0-rcl25-esl29-rsm0-rcm25-esm100-rsr0-rcr100-esr100,exr/ReadingArea_rsl0-rcl25-esl29-rsm0-rcm25-esm100-rsr0-rcr100-esr100.exr,ReadingArea_rsl0-rcl25-esl29-rsm0-rcm25-esm100-rsr0-rcr100-esr100.npz,,,,,0,17,17,225,,left,green,1.13,247.49408602714536,247.92450404167167,,,1,5,3,lightness,readingArea,gauss,75,2023-03-14_09h24.39.869,tripletExp_regina_11082022,2022.2.4,120.1665133895445,
2,1,10,0,0.25,0.298245614035088,0,0.111111111111111,0.298245614035088,0,0.694444444444444,1.0,ReadingArea_rsl0-rcl25-esl29-rsm0-rcm11-esm29-rsr0-rcr69-esr100,exr/ReadingArea_rsl0-rcl25-esl29-rsm0-rcm11-esm29-rsr0-rcr69-esr100.exr,ReadingArea_rsl0-rcl25-esl29-rsm0-rcm11-esm29-rsr0-rcr69-esr100.npz,,,,,0,18,18,585,,left,green,0.82,249.6465580463409,250.07934093475345,,,1,5,3,lightness,readingArea,gauss,75,2023-03-14_09h24.39.869,tripletExp_regina_11082022,2022.2.4,120.1665133895445,
14,7,13,0,0.25,3.10526315789474,0,0.111111111111111,1.0,0,0.111111111111111,3.10526315789474,ReadingArea_rsl0-rcl25-esl310-rsm0-rcm11-esm100-rsr0-rcr11-esr310,exr/ReadingArea_rsl0-rcl25-esl310-rsm0-rcm11-esm100-rsr0-rcr11-esr310.exr,ReadingArea_rsl0-rcl25-esl310-rsm0-rcm11-esm100-rsr0-rcr11-esr310.npz,,,,,0,19,19,358,,right,red,1.18,251.7660388946533,,,,1,5,3,lightness,readingArea,gauss,75,2023-03-14_09h24.39.869,tripletExp_regina_11082022,2022.2.4,120.1665133895445,
1,13,2,0,0.111111111111111,0.298245614035088,0,0.111111111111111,3.10526315789474,0,0.25,0.298245614035088,ReadingArea_rsl0-rcl11-esl29-rsm0-rcm11-esm310-rsr0-rcr25-esr29,exr/ReadingArea_rsl0-rcl11-esl29-rsm0-rcm11-esm310-rsr0-rcr25-esr29.exr,ReadingArea_rsl0-rcl11-esl29-rsm0-rcm11-esm310-rsr0-rcr25-esr29.npz,,,,,0,20,20,118,,right,red,1.19,254.0252840518952,254.4737129211425,,,1,5,3,lightness,readingArea,gauss,75,2023-03-14_09h24.39.869,tripletExp_regina_11082022,2022.2.4,120.1665133895445,
10,4,13,0,0.694444444444444,1.0,0,0.694444444444444,0.298245614035088,0,0.111111111111111,3.10526315789474,ReadingArea_rsl0-rcl69-esl100-rsm0-rcm69-esm29-rsr0-rcr11-esr310,exr/ReadingArea_rsl0-rcl69-esl100-rsm0-rcm69-esm29-rsr0-rcr11-esr310.exr,ReadingArea_rsl0-rcl69-esl100-rsm0-rcm69-esm29-rsr0-rcr11-esr310.npz,,,,,0,21,21,24,,right,red,0.97,256.168240070343,256.6394131183624,,,1,5,3,lightness,readingArea,gauss,75,2023-03-14_09h24.39.869,tripletExp_regina_11082022,2022.2.4,120.1665133895445,
1,7,8,0,0.111111111111111,0.298245614035088,0,0.111111111111111,1.0,0,0.25,1.0,ReadingArea_rsl0-rcl11-esl29-rsm0-rcm11-esm100-rsr0-rcr25-esr100,exr/ReadingArea_rsl0-rcl11-esl29-rsm0-rcm11-esm100-rsr0-rcr25-esr100.exr,ReadingArea_rsl0-rcl11-esl29-rsm0-rcm11-esm100-rsr0-rcr25-esr100.npz,,,,,0,22,22,260,,left,green,1.34,258.32509207725525,,,,1,5,3,lightness,readingArea,gauss,75,2023-03-14_09h24.39.869,tripletExp_regina_11082022,2022.2.4,120.1665133895445,
5,7,14,0,1.0,0.298245614035088,0,0.111111111111111,1.0,0,0.25,3.10526315789474,ReadingArea_rsl0-rcl100-esl29-rsm0-rcm11-esm100-rsr0-rcr25-esr310,exr/ReadingArea_rsl0-rcl100-esl29-rsm0-rcm11-esm100-rsr0-rcr25-esr310.exr,ReadingArea_rsl0-rcl100-esl29-rsm0-rcm11-esm100-rsr0-rcr25-esr310.npz,,,,,0,23,23,210,,right,red,2.38,262.2196569442749,262.73747992515564,,,1,5,3,lightness,readingArea,gauss,75,2023-03-14_09h24.39.869,tripletExp_regina_11082022,2022.2.4,120.1665133895445,
2,14,1,0,0.25,0.298245614035088,0,0.25,3.10526315789474,0,0.111111111111111,0.298245614035088,ReadingArea_rsl0-rcl25-esl29-rsm0-rcm25-esm310-rsr0-rcr11-esr29,exr/ReadingArea_rsl0-rcl25-esl29-rsm0-rcm25-esm310-rsr0-rcr11-esr29.exr,ReadingArea_rsl0-rcl25-esl29-rsm0-rcm25-esm310-rsr0-rcr11-esr29.npz,,,,,0,24,24,579,,left,green,2.99,266.18071389198303,266.6455409526825,,,1,5,3,lightness,readingArea,gauss,75,2023-03-14_09h24.39.869,tripletExp_regina_11082022,2022.2.4,120.1665133895445,
2,9,10,0,0.25,0.298245614035088,0,0.444444444444444,1.0,0,0.694444444444444,1.0,ReadingArea_rsl0-rcl25-esl29-rsm0-rcm44-esm100-rsr0-rcr69-esr100,exr/ReadingArea_rsl0-rcl25-esl29-rsm0-rcm44-esm100-rsr0-rcr69-esr100.exr,ReadingArea_rsl0-rcl25-esl29-rsm0-rcm44-esm100-rsr0-rcr69-esr100.npz,,,,,0,25,25,117,,left,green,3.01,270.0986840724945,270.5368149280548,,,1,5,3,lightness,readingArea,gauss,75,2023-03-14_09h24.39.869,tripletExp_regina_11082022,2022.2.4,120.1665133895445,
12,10,5,0,0.027777777777778,3.10526315789474,0,0.694444444444444,1.0,0,1.0,0.298245614035088,ReadingArea_rsl0-rcl2-esl310-rsm0-rcm69-esm100-rsr0-rcr100-esr29,exr/ReadingArea_rsl0-rcl2-esl310-rsm0-rcm69-esm100-rsr0-rcr100-esr29.exr,ReadingArea_rsl0-rcl2-esl310-rsm0-rcm69-esm100-rsr0-rcr100-esr29.npz,,,,,0,26,26,470,,right,red,2.24,274.0051500797272,274.45421409606934,,,1,5,3,lightness,readingArea,gauss,75,2023-03-14_09h24.39.869,tripletExp_regina_11082022,2022.2.4,120.1665133895445,
12,9,13,0,0.027777777777778,3.10526315789474,0,0.444444444444444,1.0,0,0.111111111111111,3.10526315789474,ReadingArea_rsl0-rcl2-esl310-rsm0-rcm44-esm100-rsr0-rcr11-esr310,exr/ReadingArea_rsl0-rcl2-esl310-rsm0-rcm44-esm100-rsr0-rcr11-esr310.exr,ReadingArea_rsl0-rcl2-esl310-rsm0-rcm44-esm100-rsr0-rcr11-esr310.npz,,,,,0,27,27,529,,right,red,3.26,277.92648792266846,278.3712270259857,,,1,5,3,lightness,readingArea,gauss,75,2023-03-14_09h24.39.869,tripletExp_regina_11082022,2022.2.4,120.1665133895445,
10,1,13,0,0.694444444444444,1.0,0,0.111111111111111,0.298245614035088,0,0.111111111111111,3.10526315789474,ReadingArea_rsl0-rcl69-esl100-rsm0-rcm11-esm29-rsr0-rcr11-esr310,exr/ReadingArea_rsl0-rcl69-esl100-rsm0-rcm11-esm29-rsr0-rcr11-esr310.exr,ReadingArea_rsl0-rcl69-esl100-rsm0-rcm11-esm29-rsr0-rcr11-esr310.npz,,,,,0,28,28,45,,right,red,2.93,281.854768037796,282.3440029621124,,,1,5,3,lightness,readingArea,gauss,75,2023-03-14_09h24.39.869,tripletExp_regina_11082022,2022.2.4,120.1665133895445,
5,3,4,0,1.0,0.298245614035088,0,0.444444444444444,0.298245614035088,0,0.694444444444444,0.298245614035088,ReadingArea_rsl0-rcl100-esl29-rsm0-rcm44-esm29-rsr0-rcr69-esr29,exr/ReadingArea_rsl0-rcl100-esl29-rsm0-rcm44-esm29-rsr0-rcr69-esr29.exr,ReadingArea_rsl0-rcl100-esl29-rsm0-rcm44-esm29-rsr0-rcr69-esr29.npz,,,,,0,29,29,201,,right,red,1.52,284.038654088974,284.4768259525299,,,1,5,3,lightness,readingArea,gauss,75,2023-03-14_09h24.39.869,tripletExp_regina_11082022,2022.2.4,120.1665133895445,
5,6,0,0,1.0,0.298245614035088,0,0.027777777777778,1.0,0,0.027777777777778,0.298245614035088,ReadingArea_rsl0-rcl100-esl29-rsm0-rcm2-esm100-rsr0-rcr2-esr29,exr/ReadingArea_rsl0-rcl100-esl29-rsm0-rcm2-esm100-rsr0-rcr2-esr29.exr,ReadingArea_rsl0-rcl100-esl29-rsm0-rcm2-esm100-rsr0-rcr2-esr29.npz,,,,,0,30,30,511,,right,red,1.01,286.16539001464844,286.5691599845886,,,1,5,3,lightness,readingArea,gauss,75,2023-03-14_09h24.39.869,tripletExp_regina_11082022,2022.2.4,120.1665133895445,
11,8,10,0,1.0,1.0,0,0.25,1.0,0,0.694444444444444,1.0,ReadingArea_rsl0-rcl100-esl100-rsm0-rcm25-esm100-rsr0-rcr69-esr100,exr/ReadingArea_rsl0-rcl100-esl100-rsm0-rcm25-esm100-rsr0-rcr69-esr100.exr,ReadingArea_rsl0-rcl100-esl100-rsm0-rcm25-esm100-rsr0-rcr69-esr100.npz,,,,,0,31,31,67,,right,red,4.85,291.81281900405884,292.2612450122833,,,1,5,3,lightness,readingArea,gauss,75,2023-03-14_09h24.39.869,tripletExp_regina_11082022,2022.2.4,120.1665133895445,
0,13,12,0,0.027777777777778,0.298245614035088,0,0.111111111111111,3.10526315789474,0,0.027777777777778,3.10526315789474,ReadingArea_rsl0-rcl2-esl29-rsm0-rcm11-esm310-rsr0-rcr2-esr310,exr/ReadingArea_rsl0-rcl2-esl29-rsm0-rcm11-esm310-rsr0-rcr2-esr310.exr,ReadingArea_rsl0-rcl2-esl29-rsm0-rcm11-esm310-rsr0-rcr2-esr310.npz,,,,,0,32,32,501,,right,red,1.1,293.9721529483795,,,,1,5,3,lightness,readingArea,gauss,75,2023-03-14_09h24.39.869,tripletExp_regina_11082022,2022.2.4,120.1665133895445,
14,1,13,0,0.25,3.10526315789474,0,0.111111111111111,0.298245614035088,0,0.111111111111111,3.10526315789474,ReadingArea_rsl0-rcl25-esl310-rsm0-rcm11-esm29-rsr0-rcr11-esr310,exr/ReadingArea_rsl0-rcl25-esl310-rsm0-rcm11-esm29-rsr0-rcr11-esr310.exr,ReadingArea_rsl0-rcl25-esl310-rsm0-rcm11-esm29-rsr0-rcr11-esr310.npz,,,,,0,33,33,265,,right,red,3.02,297.874440908432,298.4343149662018,,,1,5,3,lightness,readingArea,gauss,75,2023-03-14_09h24.39.869,tripletExp_regina_11082022,2022.2.4,120.1665133895445,
12,2,9,0,0.027777777777778,3.10526315789474,0,0.25,0.298245614035088,0,0.444444444444444,1.0,ReadingArea_rsl0-rcl2-esl310-rsm0-rcm25-esm29-rsr0-rcr44-esr100,exr/ReadingArea_rsl0-rcl2-esl310-rsm0-rcm25-esm29-rsr0-rcr44-esr100.exr,ReadingArea_rsl0-rcl2-esl310-rsm0-rcm25-esm29-rsr0-rcr44-esr100.npz,,,,,0,34,34,495,,left,green,1.41,300.13640999794006,300.53634905815125,,,1,5,3,lightness,readingArea,gauss,75,2023-03-14_09h24.39.869,tripletExp_regina_11082022,2022.2.4,120.1665133895445,
12,5,10,0,0.027777777777778,3.10526315789474,0,1.0,0.298245614035088,0,0.694444444444444,1.0,ReadingArea_rsl0-rcl2-esl310-rsm0-rcm100-esm29-rsr0-rcr69-esr100,exr/ReadingArea_rsl0-rcl2-esl310-rsm0-rcm100-esm29-rsr0-rcr69-esr100.exr,ReadingArea_rsl0-rcl2-esl310-rsm0-rcm100-esm29-rsr0-rcr69-esr100.npz,,,,,0,35,35,493,,right,red,4.66,305.79061794281006,306.2161319255829,,,1,5,3,lightness,readingArea,gauss,75,2023-03-14_09h24.39.869,tripletExp_regina_11082022,2022.2.4,120.1665133895445,
2,0,3,0,0.25,0.298245614035088,0,0.027777777777778,0.298245614035088,0,0.444444444444444,0.298245614035088,ReadingArea_rsl0-rcl25-esl29-rsm0-rcm2-esm29-rsr0-rcr44-esr29,exr/ReadingArea_rsl0-rcl25-esl29-rsm0-rcm2-esm29-rsr0-rcr44-esr29.exr,ReadingArea_rsl0-rcl25-esl29-rsm0-rcm2-esm29-rsr0-rcr44-esr29.npz,,,,,0,36,36,338,,left,green,2.55,309.69145107269287,,,,1,5,3,lightness,readingArea,gauss,75,2023-03-14_09h24.39.869,tripletExp_regina_11082022,2022.2.4,120.1665133895445,
14,6,13,0,0.25,3.10526315789474,0,0.027777777777778,1.0,0,0.111111111111111,3.10526315789474,ReadingArea_rsl0-rcl25-esl310-rsm0-rcm2-esm100-rsr0-rcr11-esr310,exr/ReadingArea_rsl0-rcl25-esl310-rsm0-rcm2-esm100-rsr0-rcr11-esr310.exr,ReadingArea_rsl0-rcl25-esl310-rsm0-rcm2-esm100-rsr0-rcr11-esr310.npz,,,,,0,37,37,91,,right,red,1.48,311.8488850593567,312.3152151107788,,,1,5,3,lightness,readingArea,gauss,75,2023-03-14_09h24.39.869,tripletExp_regina_11082022,2022.2.4,120.1665133895445,
11,5,3,0,1.0,1.0,0,1.0,0.298245614035088,0,0.444444444444444,0.298245614035088,ReadingArea_rsl0-rcl100-esl100-rsm0-rcm100-esm29-rsr0-rcr44-esr29,exr/ReadingArea_rsl0-rcl100-esl100-rsm0-rcm100-esm29-rsr0-rcr44-esr29.exr,ReadingArea_rsl0-rcl100-esl100-rsm0-rcm100-esm29-rsr0-rcr44-esr29.npz,,,,,0,38,38,172,,right,red,3.16,315.7709081172943,316.2176659107208,,,1,5,3,lightness,readingArea,gauss,75,2023-03-14_09h24.39.869,tripletExp_regina_11082022,2022.2.4,120.1665133895445,
14,7,0,0,0.25,3.10526315789474,0,0.111111111111111,1.0,0,0.027777777777778,0.298245614035088,ReadingArea_rsl0-rcl25-esl310-rsm0-rcm11-esm100-rsr0-rcr2-esr29,exr/ReadingArea_rsl0-rcl25-esl310-rsm0-rcm11-esm100-rsr0-rcr2-esr29.exr,ReadingArea_rsl0-rcl25-esl310-rsm0-rcm11-esm100-rsr0-rcr2-esr29.npz,,,,,0,39,39,412,,right,red,1.36,317.9233560562134,318.3440890312195,,,1,5,3,lightness,readingArea,gauss,75,2023-03-14_09h24.39.869,tripletExp_regina_11082022,2022.2.4,120.1665133895445,
11,14,9,0,1.0,1.0,0,0.25,3.10526315789474,0,0.444444444444444,1.0,ReadingArea_rsl0-rcl100-esl100-rsm0-rcm25-esm310-rsr0-rcr44-esr100,exr/ReadingArea_rsl0-rcl100-esl100-rsm0-rcm25-esm310-rsr0-rcr44-esr100.exr,ReadingArea_rsl0-rcl100-esl100-rsm0-rcm25-esm310-rsr0-rcr44-esr100.npz,,,,,0,40,40,43,,right,red,2.16,321.83848905563354,322.2918701171875,,,1,5,3,lightness,readingArea,gauss,75,2023-03-14_09h24.39.869,tripletExp_regina_11082022,2022.2.4,120.1665133895445,
1,7,2,0,0.111111111111111,0.298245614035088,0,0.111111111111111,1.0,0,0.25,0.298245614035088,ReadingArea_rsl0-rcl11-esl29-rsm0-rcm11-esm100-rsr0-rcr25-esr29,exr/ReadingArea_rsl0-rcl11-esl29-rsm0-rcm11-esm100-rsr0-rcr25-esr29.exr,ReadingArea_rsl0-rcl11-esl29-rsm0-rcm11-esm100-rsr0-rcr25-esr29.npz,,,,,0,41,41,162,,right,red,1.26,324.00075793266296,324.439877986908,,,1,5,3,lightness,readingArea,gauss,75,2023-03-14_09h24.39.869,tripletExp_regina_11082022,2022.2.4,120.1665133895445,
14,6,7,0,0.25,3.10526315789474,0,0.027777777777778,1.0,0,0.111111111111111,1.0,ReadingArea_rsl0-rcl25-esl310-rsm0-rcm2-esm100-rsr0-rcr11-esr100,exr/ReadingArea_rsl0-rcl25-esl310-rsm0-rcm2-esm100-rsr0-rcr11-esr100.exr,ReadingArea_rsl0-rcl25-esl310-rsm0-rcm2-esm100-rsr0-rcr11-esr100.npz,,,,,0,42,42,306,,right,red,1.26,326.14868807792664,326.6004309654236,,,1,5,3,lightness,readingArea,gauss,75,2023-03-14_09h24.39.869,tripletExp_regina_11082022,2022.2.4,120.1665133895445,
13,8,14,0,0.111111111111111,3.10526315789474,0,0.25,1.0,0,0.25,3.10526315789474,ReadingArea_rsl0-rcl11-esl310-rsm0-rcm25-esm100-rsr0-rcr25-esr310,exr/ReadingArea_rsl0-rcl11-esl310-rsm0-rcm25-esm100-rsr0-rcr25-esr310.exr,ReadingArea_rsl0-rcl11-esl310-rsm0-rcm25-esm100-rsr0-rcr25-esr310.npz,,,,,0,43,43,345,,left,green,0.93,328.3027300834656,,,,1,5,3,lightness,readingArea,gauss,75,2023-03-14_09h24.39.869,tripletExp_regina_11082022,2022.2.4,120.1665133895445,
13,0,9,0,0.111111111111111,3.10526315789474,0,0.027777777777778,0.298245614035088,0,0.444444444444444,1.0,ReadingArea_rsl0-rcl11-esl310-rsm0-rcm2-esm29-rsr0-rcr44-esr100,exr/ReadingArea_rsl0-rcl11-esl310-rsm0-rcm2-esm29-rsr0-rcr44-esr100.exr,ReadingArea_rsl0-rcl11-esl310-rsm0-rcm2-esm29-rsr0-rcr44-esr100.npz,,,,,0,44,44,373,,left,green,2.31,332.22801208496094,332.63948011398315,,,1,5,3,lightness,readingArea,gauss,75,2023-03-14_09h24.39.869,tripletExp_regina_11082022,2022.2.4,120.1665133895445,
9,6,13,0,0.444444444444444,1.0,0,0.027777777777778,1.0,0,0.111111111111111,3.10526315789474,ReadingArea_rsl0-rcl44-esl100-rsm0-rcm2-esm100-rsr0-rcr11-esr310,exr/ReadingArea_rsl0-rcl44-esl100-rsm0-rcm2-esm100-rsr0-rcr11-esr310.exr,ReadingArea_rsl0-rcl44-esl100-rsm0-rcm2-esm100-rsr0-rcr11-esr310.npz,,,,,0,45,45,285,,right,red,2.26,336.1140010356903,336.62038111686707,,,1,5,3,lightness,readingArea,gauss,75,2023-03-14_09h24.39.869,tripletExp_regina_11082022,2022.2.4,120.1665133895445,
9,6,1,0,0.444444444444444,1.0,0,0.027777777777778,1.0,0,0.111111111111111,0.298245614035088,ReadingArea_rsl0-rcl44-esl100-rsm0-rcm2-esm100-rsr0-rcr11-esr29,exr/ReadingArea_rsl0-rcl44-esl100-rsm0-rcm2-esm100-rsr0-rcr11-esr29.exr,ReadingArea_rsl0-rcl44-esl100-rsm0-rcm2-esm100-rsr0-rcr11-esr29.npz,,,,,0,46,46,526,,right,red,0.91,338.3136839866638,338.75970792770386,,,1,5,3,lightness,readingArea,gauss,75,2023-03-14_09h24.39.869,tripletExp_regina_11082022,2022.2.4,120.1665133895445,
5,14,11,0,1.0,0.298245614035088,0,0.25,3.10526315789474,0,1.0,1.0,ReadingArea_rsl0-rcl100-esl29-rsm0-rcm25-esm310-rsr0-rcr100-esr100,exr/ReadingArea_rsl0-rcl100-esl29-rsm0-rcm25-esm310-rsr0-rcr100-esr100.exr,ReadingArea_rsl0-rcl100-esl29-rsm0-rcm25-esm310-rsr0-rcr100-esr100.npz,,,,,0,47,47,98,,left,green,1.15,340.4544010162353,340.8824460506439,,,1,5,3,lightness,readingArea,gauss,75,2023-03-14_09h24.39.869,tripletExp_regina_11082022,2022.2.4,120.1665133895445,
1,14,6,0,0.111111111111111,0.298245614035088,0,0.25,3.10526315789474,0,0.027777777777778,1.0,ReadingArea_rsl0-rcl11-esl29-rsm0-rcm25-esm310-rsr0-rcr2-esr100,exr/ReadingArea_rsl0-rcl11-esl29-rsm0-rcm25-esm310-rsr0-rcr2-esr100.exr,ReadingArea_rsl0-rcl11-esl29-rsm0-rcm25-esm310-rsr0-rcr2-esr100.npz,,,,,0,48,48,475,,left,green,2.31,344.3506169319153,344.79155707359314,,,1,5,3,lightness,readingArea,gauss,75,2023-03-14_09h24.39.869,tripletExp_regina_11082022,2022.2.4,120.1665133895445,
7,0,2,0,0.111111111111111,1.0,0,0.027777777777778,0.298245614035088,0,0.25,0.298245614035088,ReadingArea_rsl0-rcl11-esl100-rsm0-rcm2-esm29-rsr0-rcr25-esr29,exr/ReadingArea_rsl0-rcl11-esl100-rsm0-rcm2-esm29-rsr0-rcr25-esr29.exr,ReadingArea_rsl0-rcl11-esl100-rsm0-rcm2-esm29-rsr0-rcr25-esr29.npz,,,,,0,49,49,347,,right,red,2.99,348.2889289855957,348.7681450843811,,,1,5,3,lightness,readingArea,gauss,75,2023-03-14_09h24.39.869,tripletExp_regina_11082022,2022.2.4,120.1665133895445,
8,7,12,0,0.25,1.0,0,0.111111111111111,1.0,0,0.027777777777778,3.10526315789474,ReadingArea_rsl0-rcl25-esl100-rsm0-rcm11-esm100-rsr0-rcr2-esr310,exr/ReadingArea_rsl0-rcl25-esl100-rsm0-rcm11-esm100-rsr0-rcr2-esr310.exr,ReadingArea_rsl0-rcl25-esl100-rsm0-rcm11-esm100-rsr0-rcr2-esr310.npz,,,,,0,50,50,471,,right,red,1.23,350.4807949066162,350.92802906036377,,,1,5,3,lightness,readingArea,gauss,75,2023-03-14_09h24.39.869,tripletExp_regina_11082022,2022.2.4,120.1665133895445,
8,9,2,0,0.25,1.0,0,0.444444444444444,1.0,0,0.25,0.298245614035088,ReadingArea_rsl0-rcl25-esl100-rsm0-rcm44-esm100-rsr0-rcr25-esr29,exr/ReadingArea_rsl0-rcl25-esl100-rsm0-rcm44-esm100-rsr0-rcr25-esr29.exr,ReadingArea_rsl0-rcl25-esl100-rsm0-rcm44-esm100-rsr0-rcr25-esr29.npz,,,,,0,51,51,559,,left,green,1.46,352.6395421028137,353.05986189842224,,,1,5,3,lightness,readingArea,gauss,75,2023-03-14_09h24.39.869,tripletExp_regina_11082022,2022.2.4,120.1665133895445,
4,11,12,0,0.694444444444444,0.298245614035088,0,1.0,1.0,0,0.027777777777778,3.10526315789474,ReadingArea_rsl0-rcl69-esl29-rsm0-rcm100-esm100-rsr0-rcr2-esr310,exr/ReadingArea_rsl0-rcl69-esl29-rsm0-rcm100-esm100-rsr0-rcr2-esr310.exr,ReadingArea_rsl0-rcl69-esl29-rsm0-rcm100-esm100-rsr0-rcr2-esr310.npz,,,,,0,52,52,109,,left,green,1.04,354.75961208343506,355.16707396507263,,,1,5,3,lightness,readingArea,gauss,75,2023-03-14_09h24.39.869,tripletExp_regina_11082022,2022.2.4,120.1665133895445,
10,6,8,0,0.694444444444444,1.0,0,0.027777777777778,1.0,0,0.25,1.0,ReadingArea_rsl0-rcl69-esl100-rsm0-rcm2-esm100-rsr0-rcr25-esr100,exr/ReadingArea_rsl0-rcl69-esl100-rsm0-rcm2-esm100-rsr0-rcr25-esr100.exr,ReadingArea_rsl0-rcl69-esl100-rsm0-rcm2-esm100-rsr0-rcr25-esr100.npz,,,,,0,53,53,145,,right,red,1.19,356.858913898468,357.32372307777405,,,1,5,3,lightness,readingArea,gauss,75,2023-03-14_09h24.39.869,tripletExp_regina_11082022,2022.2.4,120.1665133895445,
6,4,13,0,0.027777777777778,1.0,0,0.694444444444444,0.298245614035088,0,0.111111111111111,3.10526315789474,ReadingArea_rsl0-rcl2-esl100-rsm0-rcm69-esm29-rsr0-rcr11-esr310,exr/ReadingArea_rsl0-rcl2-esl100-rsm0-rcm69-esm29-rsr0-rcr11-esr310.exr,ReadingArea_rsl0-rcl2-esl100-rsm0-rcm69-esm29-rsr0-rcr11-esr310.npz,,,,,0,54,54,202,,right,red,1.16,359.04517912864685,359.4714300632477,,,1,5,3,lightness,readingArea,gauss,75,2023-03-14_09h24.39.869,tripletExp_regina_11082022,2022.2.4,120.1665133895445,
3,0,4,0,0.444444444444444,0.298245614035088,0,0.027777777777778,0.298245614035088,0,0.694444444444444,0.298245614035088,ReadingArea_rsl0-rcl44-esl29-rsm0-rcm2-esm29-rsr0-rcr69-esr29,exr/ReadingArea_rsl0-rcl44-esl29-rsm0-rcm2-esm29-rsr0-rcr69-esr29.exr,ReadingArea_rsl0-rcl44-esl29-rsm0-rcm2-esm29-rsr0-rcr69-esr29.npz,,,,,0,55,55,111,,left,green,1.2,361.1600489616394,361.59488105773926,,,1,5,3,lightness,readingArea,gauss,75,2023-03-14_09h24.39.869,tripletExp_regina_11082022,2022.2.4,120.1665133895445,
9,13,0,0,0.444444444444444,1.0,0,0.111111111111111,3.10526315789474,0,0.027777777777778,0.298245614035088,ReadingArea_rsl0-rcl44-esl100-rsm0-rcm11-esm310-rsr0-rcr2-esr29,exr/ReadingArea_rsl0-rcl44-esl100-rsm0-rcm11-esm310-rsr0-rcr2-esr29.exr,ReadingArea_rsl0-rcl44-esl100-rsm0-rcm11-esm310-rsr0-rcr2-esr29.npz,,,,,0,56,56,205,,left,green,1.14,363.2986240386963,363.7570669651032,,,1,5,3,lightness,readingArea,gauss,75,2023-03-14_09h24.39.869,tripletExp_regina_11082022,2022.2.4,120.1665133895445,
13,1,3,0,0.111111111111111,3.10526315789474,0,0.111111111111111,0.298245614035088,0,0.444444444444444,0.298245614035088,ReadingArea_rsl0-rcl11-esl310-rsm0-rcm11-esm29-rsr0-rcr44-esr29,exr/ReadingArea_rsl0-rcl11-esl310-rsm0-rcm11-esm29-rsr0-rcr44-esr29.exr,ReadingArea_rsl0-rcl11-esl310-rsm0-rcm11-esm29-rsr0-rcr44-esr29.npz,,,,,0,57,57,588,,left,green,1.43,365.4751009941101,,,,1,5,3,lightness,readingArea,gauss,75,2023-03-14_09h24.39.869,tripletExp_regina_11082022,2022.2.4,120.1665133895445,
10,6,3,0,0.694444444444444,1.0,0,0.027777777777778,1.0,0,0.444444444444444,0.298245614035088,ReadingArea_rsl0-rcl69-esl100-rsm0-rcm2-esm100-rsr0-rcr44-esr29,exr/ReadingArea_rsl0-rcl69-esl100-rsm0-rcm2-esm100-rsr0-rcr44-esr29.exr,ReadingArea_rsl0-rcl69-esl100-rsm0-rcm2-esm100-rsr0-rcr44-esr29.npz,,,,,0,58,58,0,,right,red,2.26,369.3592789173126,,,,1,5,3,lightness,readingArea,gauss,75,2023-03-14_09h24.39.869,tripletExp_regina_11082022,2022.2.4,120.1665133895445,
3,1,6,0,0.444444444444444,0.298245614035088,0,0.111111111111111,0.298245614035088,0,0.027777777777778,1.0,ReadingArea_rsl0-rcl44-esl29-rsm0-rcm11-esm29-rsr0-rcr2-esr100,exr/ReadingArea_rsl0-rcl44-esl29-rsm0-rcm11-esm29-rsr0-rcr2-esr100.exr,ReadingArea_rsl0-rcl44-esl29-rsm0-rcm11-esm29-rsr0-rcr2-esr100.npz,,,,,0,59,59,464,,right,red,0.8,371.5030241012573,371.9759011268616,,,1,5,3,lightness,readingArea,gauss,75,2023-03-14_09h24.39.869,tripletExp_regina_11082022,2022.2.4,120.1665133895445,
6,11,8,0,0.027777777777778,1.0,0,1.0,1.0,0,0.25,1.0,ReadingArea_rsl0-rcl2-esl100-rsm0-rcm100-esm100-rsr0-rcr25-esr100,exr/ReadingArea_rsl0-rcl2-esl100-rsm0-rcm100-esm100-rsr0-rcr25-esr100.exr,ReadingArea_rsl0-rcl2-esl100-rsm0-rcm100-esm100-rsr0-rcr25-esr100.npz,,,,,0,60,60,176,,right,red,1.53,373.6742660999298,374.1143460273743,,,1,5,3,lightness,readingArea,gauss,75,2023-03-14_09h24.39.869,tripletExp_regina_11082022,2022.2.4,120.1665133895445,
3,14,12,0,0.444444444444444,0.298245614035088,0,0.25,3.10526315789474,0,0.027777777777778,3.10526315789474,ReadingArea_rsl0-rcl44-esl29-rsm0-rcm25-esm310-rsr0-rcr2-esr310,exr/ReadingArea_rsl0-rcl44-esl29-rsm0-rcm25-esm310-rsr0-rcr2-esr310.exr,ReadingArea_rsl0-rcl44-esl29-rsm0-rcm25-esm310-rsr0-rcr2-esr310.npz,,,,,0,61,61,336,,left,green,3.25,377.5818340778351,378.0101320743561,,,1,5,3,lightness,readingArea,gauss,75,2023-03-14_09h24.39.869,tripletExp_regina_11082022,2022.2.4,120.1665133895445,
1,3,4,0,0.111111111111111,0.298245614035088,0,0.444444444444444,0.298245614035088,0,0.694444444444444,0.298245614035088,ReadingArea_rsl0-rcl11-esl29-rsm0-rcm44-esm29-rsr0-rcr69-esr29,exr/ReadingArea_rsl0-rcl11-esl29-rsm0-rcm44-esm29-rsr0-rcr69-esr29.exr,ReadingArea_rsl0-rcl11-esl29-rsm0-rcm44-esm29-rsr0-rcr69-esr29.npz,,,,,0,62,62,153,,right,red,2.34,381.4589250087738,381.8955829143524,,,1,5,3,lightness,readingArea,gauss,75,2023-03-14_09h24.39.869,tripletExp_regina_11082022,2022.2.4,120.1665133895445,
10,3,1,0,0.694444444444444,1.0,0,0.444444444444444,0.298245614035088,0,0.111111111111111,0.298245614035088,ReadingArea_rsl0-rcl69-esl100-rsm0-rcm44-esm29-rsr0-rcr11-esr29,exr/ReadingArea_rsl0-rcl69-esl100-rsm0-rcm44-esm29-rsr0-rcr11-esr29.exr,ReadingArea_rsl0-rcl69-esl100-rsm0-rcm44-esm29-rsr0-rcr11-esr29.npz,,,,,0,63,63,420,,right,red,1.5,383.60589599609375,384.0181510448456,,,1,5,3,lightness,readingArea,gauss,75,2023-03-14_09h24.39.869,tripletExp_regina_11082022,2022.2.4,120.1665133895445,
9,11,13,0,0.444444444444444,1.0,0,1.0,1.0,0,0.111111111111111,3.10526315789474,ReadingArea_rsl0-rcl44-esl100-rsm0-rcm100-esm100-rsr0-rcr11-esr310,exr/ReadingArea_rsl0-rcl44-esl100-rsm0-rcm100-esm100-rsr0-rcr11-esr310.exr,ReadingArea_rsl0-rcl44-esl100-rsm0-rcm100-esm100-rsr0-rcr11-esr310.npz,,,,,0,64,64,254,,left,green,2.96,387.5180559158325,387.93393898010254,,,1,5,3,lightness,readingArea,gauss,75,2023-03-14_09h24.39.869,tripletExp_regina_11082022,2022.2.4,120.1665133895445,
4,3,1,0,0.694444444444444,0.298245614035088,0,0.444444444444444,0.298245614035088,0,0.111111111111111,0.298245614035088,ReadingArea_rsl0-rcl69-esl29-rsm0-rcm44-esm29-rsr0-rcr11-esr29,exr/ReadingArea_rsl0-rcl69-esl29-rsm0-rcm44-esm29-rsr0-rcr11-esr29.exr,ReadingArea_rsl0-rcl69-esl29-rsm0-rcm44-esm29-rsr0-rcr11-esr29.npz,,,,,0,65,65,60,,left,green,2.46,391.44243001937866,391.86563301086426,,,1,5,3,lightness,readingArea,gauss,75,2023-03-14_09h24.39.869,tripletExp_regina_11082022,2022.2.4,120.1665133895445,
11,1,12,0,1.0,1.0,0,0.111111111111111,0.298245614035088,0,0.027777777777778,3.10526315789474,ReadingArea_rsl0-rcl100-esl100-rsm0-rcm11-esm29-rsr0-rcr2-esr310,exr/ReadingArea_rsl0-rcl100-esl100-rsm0-rcm11-esm29-rsr0-rcr2-esr310.exr,ReadingArea_rsl0-rcl100-esl100-rsm0-rcm11-esm29-rsr0-rcr2-esr310.npz,,,,,0,66,66,339,,right,red,1.15,393.55688405036926,393.99465894699097,,,1,5,3,lightness,readingArea,gauss,75,2023-03-14_09h24.39.869,tripletExp_regina_11082022,2022.2.4,120.1665133895445,
12,14,8,0,0.027777777777778,3.10526315789474,0,0.25,3.10526315789474,0,0.25,1.0,ReadingArea_rsl0-rcl2-esl310-rsm0-rcm25-esm310-rsr0-rcr25-esr100,exr/ReadingArea_rsl0-rcl2-esl310-rsm0-rcm25-esm310-rsr0-rcr25-esr100.exr,ReadingArea_rsl0-rcl2-esl310-rsm0-rcm25-esm310-rsr0-rcr25-esr100.npz,,,,,0,67,67,466,,right,red,2.69,397.46722292900085,397.95031690597534,,,1,5,3,lightness,readingArea,gauss,75,2023-03-14_09h24.39.869,tripletExp_regina_11082022,2022.2.4,120.1665133895445,
5,9,0,0,1.0,0.298245614035088,0,0.444444444444444,1.0,0,0.027777777777778,0.298245614035088,ReadingArea_rsl0-rcl100-esl29-rsm0-rcm44-esm100-rsr0-rcr2-esr29,exr/ReadingArea_rsl0-rcl100-esl29-rsm0-rcm44-esm100-rsr0-rcr2-esr29.exr,ReadingArea_rsl0-rcl100-esl29-rsm0-rcm44-esm100-rsr0-rcr2-esr29.npz,,,,,0,68,68,575,,left,green,1.5,399.6465539932251,400.08055210113525,,,1,5,3,lightness,readingArea,gauss,75,2023-03-14_09h24.39.869,tripletExp_regina_11082022,2022.2.4,120.1665133895445,
8,6,13,0,0.25,1.0,0,0.027777777777778,1.0,0,0.111111111111111,3.10526315789474,ReadingArea_rsl0-rcl25-esl100-rsm0-rcm2-esm100-rsr0-rcr11-esr310,exr/ReadingArea_rsl0-rcl25-esl100-rsm0-rcm2-esm100-rsr0-rcr11-esr310.exr,ReadingArea_rsl0-rcl25-esl100-rsm0-rcm2-esm100-rsr0-rcr11-esr310.npz,,,,,0,69,69,440,,right,red,3.42,403.5636339187622,404.0092530250549,,,1,5,3,lightness,readingArea,gauss,75,2023-03-14_09h24.39.869,tripletExp_regina_11082022,2022.2.4,120.1665133895445,
5,10,2,0,1.0,0.298245614035088,0,0.694444444444444,1.0,0,0.25,0.298245614035088,ReadingArea_rsl0-rcl100-esl29-rsm0-rcm69-esm100-rsr0-rcr25-esr29,exr/ReadingArea_rsl0-rcl100-esl29-rsm0-rcm69-esm100-rsr0-rcr25-esr29.exr,ReadingArea_rsl0-rcl100-esl29-rsm0-rcm69-esm100-rsr0-rcr25-esr29.npz,,,,,0,70,70,489,,left,green,1.29,405.70736503601074,406.13873195648193,,,1,5,3,lightness,readingArea,gauss,75,2023-03-14_09h24.39.869,tripletExp_regina_11082022,2022.2.4,120.1665133895445,
5,0,11,0,1.0,0.298245614035088,0,0.027777777777778,0.298245614035088,0,1.0,1.0,ReadingArea_rsl0-rcl100-esl29-rsm0-rcm2-esm29-rsr0-rcr100-esr100,exr/ReadingArea_rsl0-rcl100-esl29-rsm0-rcm2-esm29-rsr0-rcr100-esr100.exr,ReadingArea_rsl0-rcl100-esl29-rsm0-rcm2-esm29-rsr0-rcr100-esr100.npz,,,,,0,71,71,547,,left,green,2.68,409.6117269992829,410.0942149162293,,,1,5,3,lightness,readingArea,gauss,75,2023-03-14_09h24.39.869,tripletExp_regina_11082022,2022.2.4,120.1665133895445,
0,11,9,0,0.027777777777778,0.298245614035088,0,1.0,1.0,0,0.444444444444444,1.0,ReadingArea_rsl0-rcl2-esl29-rsm0-rcm100-esm100-rsr0-rcr44-esr100,exr/ReadingArea_rsl0-rcl2-esl29-rsm0-rcm100-esm100-rsr0-rcr44-esr100.exr,ReadingArea_rsl0-rcl2-esl29-rsm0-rcm100-esm100-rsr0-rcr44-esr100.npz,,,,,0,72,72,32,,right,red,1.49,411.7929129600525,412.2380321025848,,,1,5,3,lightness,readingArea,gauss,75,2023-03-14_09h24.39.869,tripletExp_regina_11082022,2022.2.4,120.1665133895445,
14,7,8,0,0.25,3.10526315789474,0,0.111111111111111,1.0,0,0.25,1.0,ReadingArea_rsl0-rcl25-esl310-rsm0-rcm11-esm100-rsr0-rcr25-esr100,exr/ReadingArea_rsl0-rcl25-esl310-rsm0-rcm11-esm100-rsr0-rcr25-esr100.exr,ReadingArea_rsl0-rcl25-esl310-rsm0-rcm11-esm100-rsr0-rcr25-esr100.npz,,,,,0,73,73,326,,right,red,1.64,413.9270520210266,414.47750306129456,,,1,5,3,lightness,readingArea,gauss,75,2023-03-14_09h24.39.869,tripletExp_regina_11082022,2022.2.4,120.1665133895445,
4,12,2,0,0.694444444444444,0.298245614035088,0,0.027777777777778,3.10526315789474,0,0.25,0.298245614035088,ReadingArea_rsl0-rcl69-esl29-rsm0-rcm2-esm310-rsr0-rcr25-esr29,exr/ReadingArea_rsl0-rcl69-esl29-rsm0-rcm2-esm310-rsr0-rcr25-esr29.exr,ReadingArea_rsl0-rcl69-esl29-rsm0-rcm2-esm310-rsr0-rcr25-esr29.npz,,,,,0,74,74,543,,right,red,2.74,417.9533779621124,418.1574349403381,,,1,5,3,lightness,readingArea,gauss,75,2023-03-14_09h24.39.869,tripletExp_regina_11082022,2022.2.4,120.1665133895445,
3,7,9,0,0.444444444444444,0.298245614035088,0,0.111111111111111,1.0,0,0.444444444444444,1.0,ReadingArea_rsl0-rcl44-esl29-rsm0-rcm11-esm100-rsr0-rcr44-esr100,exr/ReadingArea_rsl0-rcl44-esl29-rsm0-rcm11-esm100-rsr0-rcr44-esr100.exr,ReadingArea_rsl0-rcl44-esl29-rsm0-rcm11-esm100-rsr0-rcr44-esr100.npz,,,,,0,75,75,382,,left,green,1.5,423.90752601623535,424.3492140769959,,,2,5,3,lightness,readingArea,gauss,75,2023-03-14_09h24.39.869,tripletExp_regina_11082022,2022.2.4,120.1665133895445,
4,5,8,0,0.694444444444444,0.298245614035088,0,1.0,0.298245614035088,0,0.25,1.0,ReadingArea_rsl0-rcl69-esl29-rsm0-rcm100-esm29-rsr0-rcr25-esr100,exr/ReadingArea_rsl0-rcl69-esl29-rsm0-rcm100-esm29-rsr0-rcr25-esr100.exr,ReadingArea_rsl0-rcl69-esl29-rsm0-rcm100-esm29-rsr0-rcr25-esr100.npz,,,,,0,76,76,54,,right,red,1.61,426.0477459430695,426.4623069763184,,,2,5,3,lightness,readingArea,gauss,75,2023-03-14_09h24.39.869,tripletExp_regina_11082022,2022.2.4,120.1665133895445,
2,1,8,0,0.25,0.298245614035088,0,0.111111111111111,0.298245614035088,0,0.25,1.0,ReadingArea_rsl0-rcl25-esl29-rsm0-rcm11-esm29-rsr0-rcr25-esr100,exr/ReadingArea_rsl0-rcl25-esl29-rsm0-rcm11-esm29-rsr0-rcr25-esr100.exr,ReadingArea_rsl0-rcl25-esl29-rsm0-rcm11-esm29-rsr0-rcr25-esr100.npz,,,,,0,77,77,125,,left,green,2.53,429.9091730117798,430.3380689620972,,,2,5,3,lightness,readingArea,gauss,75,2023-03-14_09h24.39.869,tripletExp_regina_11082022,2022.2.4,120.1665133895445,
14,0,9,0,0.25,3.10526315789474,0,0.027777777777778,0.298245614035088,0,0.444444444444444,1.0,ReadingArea_rsl0-rcl25-esl310-rsm0-rcm2-esm29-rsr0-rcr44-esr100,exr/ReadingArea_rsl0-rcl25-esl310-rsm0-rcm2-esm29-rsr0-rcr44-esr100.exr,ReadingArea_rsl0-rcl25-esl310-rsm0-rcm2-esm29-rsr0-rcr44-esr100.npz,,,,,0,78,78,90,,right,red,2.31,433.8195080757141,,,,2,5,3,lightness,readingArea,gauss,75,2023-03-14_09h24.39.869,tripletExp_regina_11082022,2022.2.4,120.1665133895445,
5,1,4,0,1.0,0.298245614035088,0,0.111111111111111,0.298245614035088,0,0.694444444444444,0.298245614035088,ReadingArea_rsl0-rcl100-esl29-rsm0-rcm11-esm29-rsr0-rcr69-esr29,exr/ReadingArea_rsl0-rcl100-esl29-rsm0-rcm11-esm29-rsr0-rcr69-esr29.exr,ReadingArea_rsl0-rcl100-esl29-rsm0-rcm11-esm29-rsr0-rcr69-esr29.npz,,,,,0,79,79,287,,right,red,2.5,437.8671250343323,438.3087480068207,,,2,5,3,lightness,readingArea,gauss,75,2023-03-14_09h24.39.869,tripletExp_regina_11082022,2022.2.4,120.1665133895445,
6,12,8,0,0.027777777777778,1.0,0,0.027777777777778,3.10526315789474,0,0.25,1.0,ReadingArea_rsl0-rcl2-esl100-rsm0-rcm2-esm310-rsr0-rcr25-esr100,exr/ReadingArea_rsl0-rcl2-esl100-rsm0-rcm2-esm310-rsr0-rcr25-esr100.exr,ReadingArea_rsl0-rcl2-esl100-rsm0-rcm2-esm310-rsr0-rcr25-esr100.npz,,,,,0,80,80,186,,left,green,0.96,440.0090839862824,440.5665330886841,,,2,5,3,lightness,readingArea,gauss,75,2023-03-14_09h24.39.869,tripletExp_regina_11082022,2022.2.4,120.1665133895445,
0,7,13,0,0.027777777777778,0.298245614035088,0,0.111111111111111,1.0,0,0.111111111111111,3.10526315789474,ReadingArea_rsl0-rcl2-esl29-rsm0-rcm11-esm100-rsr0-rcr11-esr310,exr/ReadingArea_rsl0-rcl2-esl29-rsm0-rcm11-esm100-rsr0-rcr11-esr310.exr,ReadingArea_rsl0-rcl2-esl29-rsm0-rcm11-esm100-rsr0-rcr11-esr310.npz,,,,,0,81,81,159,,right,red,1.49,442.2606129646301,442.6877748966217,,,2,5,3,lightness,readingArea,gauss,75,2023-03-14_09h24.39.869,tripletExp_regina_11082022,2022.2.4,120.1665133895445,
2,14,8,0,0.25,0.298245614035088,0,0.25,3.10526315789474,0,0.25,1.0,ReadingArea_rsl0-rcl25-esl29-rsm0-rcm25-esm310-rsr0-rcr25-esr100,exr/ReadingArea_rsl0-rcl25-esl29-rsm0-rcm25-esm310-rsr0-rcr25-esr100.exr,ReadingArea_rsl0-rcl25-esl29-rsm0-rcm25-esm310-rsr0-rcr25-esr100.npz,,,,,0,82,82,255,,right,red,4.54,447.9500699043274,448.4116609096527,,,2,5,3,lightness,readingArea,gauss,75,2023-03-14_09h24.39.869,tripletExp_regina_11082022,2022.2.4,120.1665133895445,
8,13,2,0,0.25,1.0,0,0.111111111111111,3.10526315789474,0,0.25,0.298245614035088,ReadingArea_rsl0-rcl25-esl100-rsm0-rcm11-esm310-rsr0-rcr25-esr29,exr/ReadingArea_rsl0-rcl25-esl100-rsm0-rcm11-esm310-rsr0-rcr25-esr29.exr,ReadingArea_rsl0-rcl25-esl100-rsm0-rcm11-esm310-rsr0-rcr25-esr29.npz,,,,,0,83,83,376,,left,green,2.75,451.8636240959168,,,,2,5,3,lightness,readingArea,gauss,75,2023-03-14_09h24.39.869,tripletExp_regina_11082022,2022.2.4,120.1665133895445,
12,10,9,0,0.027777777777778,3.10526315789474,0,0.694444444444444,1.0,0,0.444444444444444,1.0,ReadingArea_rsl0-rcl2-esl310-rsm0-rcm69-esm100-rsr0-rcr44-esr100,exr/ReadingArea_rsl0-rcl2-esl310-rsm0-rcm69-esm100-rsr0-rcr44-esr100.exr,ReadingArea_rsl0-rcl2-esl310-rsm0-rcm69-esm100-rsr0-rcr44-esr100.npz,,,,,0,84,84,126,,right,red,3.1,455.9313669204712,,,,2,5,3,lightness,readingArea,gauss,75,2023-03-14_09h24.39.869,tripletExp_regina_11082022,2022.2.4,120.1665133895445,
7,4,6,0,0.111111111111111,1.0,0,0.694444444444444,0.298245614035088,0,0.027777777777778,1.0,ReadingArea_rsl0-rcl11-esl100-rsm0-rcm69-esm29-rsr0-rcr2-esr100,exr/ReadingArea_rsl0-rcl11-esl100-rsm0-rcm69-esm29-rsr0-rcr2-esr100.exr,ReadingArea_rsl0-rcl11-esl100-rsm0-rcm69-esm29-rsr0-rcr2-esr100.npz,,,,,0,85,85,528,,left,green,1.32,458.0788700580597,458.5534551143646,,,2,5,3,lightness,readingArea,gauss,75,2023-03-14_09h24.39.869,tripletExp_regina_11082022,2022.2.4,120.1665133895445,
6,7,3,0,0.027777777777778,1.0,0,0.111111111111111,1.0,0,0.444444444444444,0.298245614035088,ReadingArea_rsl0-rcl2-esl100-rsm0-rcm11-esm100-rsr0-rcr44-esr29,exr/ReadingArea_rsl0-rcl2-esl100-rsm0-rcm11-esm100-rsr0-rcr44-esr29.exr,ReadingArea_rsl0-rcl2-esl100-rsm0-rcm11-esm100-rsr0-rcr44-esr29.npz,,,,,0,86,86,47,,left,green,1.22,460.2525360584259,460.7097210884094,,,2,5,3,lightness,readingArea,gauss,75,2023-03-14_09h24.39.869,tripletExp_regina_11082022,2022.2.4,120.1665133895445,
3,2,11,0,0.444444444444444,0.298245614035088,0,0.25,0.298245614035088,0,1.0,1.0,ReadingArea_rsl0-rcl44-esl29-rsm0-rcm25-esm29-rsr0-rcr100-esr100,exr/ReadingArea_rsl0-rcl44-esl29-rsm0-rcm25-esm29-rsr0-rcr100-esr100.exr,ReadingArea_rsl0-rcl44-esl29-rsm0-rcm25-esm29-rsr0-rcr100-esr100.npz,,,,,0,87,87,257,,left,green,1.42,462.4184880256653,462.857980966568,,,2,5,3,lightness,readingArea,gauss,75,2023-03-14_09h24.39.869,tripletExp_regina_11082022,2022.2.4,120.1665133895445,
1,12,11,0,0.111111111111111,0.298245614035088,0,0.027777777777778,3.10526315789474,0,1.0,1.0,ReadingArea_rsl0-rcl11-esl29-rsm0-rcm2-esm310-rsr0-rcr100-esr100,exr/ReadingArea_rsl0-rcl11-esl29-rsm0-rcm2-esm310-rsr0-rcr100-esr100.exr,ReadingArea_rsl0-rcl11-esl29-rsm0-rcm2-esm310-rsr0-rcr100-esr100.npz,,,,,0,88,88,178,,left,green,0.82,464.5768990516663,465.0095970630646,,,2,5,3,lightness,readingArea,gauss,75,2023-03-14_09h24.39.869,tripletExp_regina_11082022,2022.2.4,120.1665133895445,
9,3,14,0,0.444444444444444,1.0,0,0.444444444444444,0.298245614035088,0,0.25,3.10526315789474,ReadingArea_rsl0-rcl44-esl100-rsm0-rcm44-esm29-rsr0-rcr25-esr310,exr/ReadingArea_rsl0-rcl44-esl100-rsm0-rcm44-esm29-rsr0-rcr25-esr310.exr,ReadingArea_rsl0-rcl44-esl100-rsm0-rcm44-esm29-rsr0-rcr25-esr310.npz,,,,,0,89,89,17,,left,green,2.73,468.50527906417847,468.9661240577698,,,2,5,3,lightness,readingArea,gauss,75,2023-03-14_09h24.39.869,tripletExp_regina_11082022,2022.2.4,120.1665133895445,
13,2,4,0,0.111111111111111,3.10526315789474,0,0.25,0.298245614035088,0,0.694444444444444,0.298245614035088,ReadingArea_rsl0-rcl11-esl310-rsm0-rcm25-esm29-rsr0-rcr69-esr29,exr/ReadingArea_rsl0-rcl11-esl310-rsm0-rcm25-esm29-rsr0-rcr69-esr29.exr,ReadingArea_rsl0-rcl11-esl310-rsm0-rcm25-esm29-rsr0-rcr69-esr29.npz,,,,,0,90,90,307,,left,green,0.79,470.6531500816345,471.1359989643097,,,2,5,3,lightness,readingArea,gauss,75,2023-03-14_09h24.39.869,tripletExp_regina_11082022,2022.2.4,120.1665133895445,
6,13,0,0,0.027777777777778,1.0,0,0.111111111111111,3.10526315789474,0,0.027777777777778,0.298245614035088,ReadingArea_rsl0-rcl2-esl100-rsm0-rcm11-esm310-rsr0-rcr2-esr29,exr/ReadingArea_rsl0-rcl2-esl100-rsm0-rcm11-esm310-rsr0-rcr2-esr29.exr,ReadingArea_rsl0-rcl2-esl100-rsm0-rcm11-esm310-rsr0-rcr2-esr29.npz,,,,,0,91,91,580,,left,green,2.77,474.57570791244507,,,,2,5,3,lightness,readingArea,gauss,75,2023-03-14_09h24.39.869,tripletExp_regina_11082022,2022.2.4,120.1665133895445,
13,7,11,0,0.111111111111111,3.10526315789474,0,0.111111111111111,1.0,0,1.0,1.0,ReadingArea_rsl0-rcl11-esl310-rsm0-rcm11-esm100-rsr0-rcr100-esr100,exr/ReadingArea_rsl0-rcl11-esl310-rsm0-rcm11-esm100-rsr0-rcr100-esr100.exr,ReadingArea_rsl0-rcl11-esl310-rsm0-rcm11-esm100-rsr0-rcr100-esr100.npz,,,,,0,92,92,121,,left,green,1.5,476.76659989357,477.3766539096832,,,2,5,3,lightness,readingArea,gauss,75,2023-03-14_09h24.39.869,tripletExp_regina_11082022,2022.2.4,120.1665133895445,
14,10,9,0,0.25,3.10526315789474,0,0.694444444444444,1.0,0,0.444444444444444,1.0,ReadingArea_rsl0-rcl25-esl310-rsm0-rcm69-esm100-rsr0-rcr44-esr100,exr/ReadingArea_rsl0-rcl25-esl310-rsm0-rcm69-esm100-rsr0-rcr44-esr100.exr,ReadingArea_rsl0-rcl25-esl310-rsm0-rcm69-esm100-rsr0-rcr44-esr100.npz,,,,,0,93,93,402,,left,green,2.96,480.8290150165558,481.2700409889221,,,2,5,3,lightness,readingArea,gauss,75,2023-03-14_09h24.39.869,tripletExp_regina_11082022,2022.2.4,120.1665133895445,
14,7,1,0,0.25,3.10526315789474,0,0.111111111111111,1.0,0,0.111111111111111,0.298245614035088,ReadingArea_rsl0-rcl25-esl310-rsm0-rcm11-esm100-rsr0-rcr11-esr29,exr/ReadingArea_rsl0-rcl25-esl310-rsm0-rcm11-esm100-rsr0-rcr11-esr29.exr,ReadingArea_rsl0-rcl25-esl310-rsm0-rcm11-esm100-rsr0-rcr11-esr29.npz,,,,,0,94,94,298,,right,red,1.99,484.7268159389496,485.1821360588074,,,2,5,3,lightness,readingArea,gauss,75,2023-03-14_09h24.39.869,tripletExp_regina_11082022,2022.2.4,120.1665133895445,
2,14,9,0,0.25,0.298245614035088,0,0.25,3.10526315789474,0,0.444444444444444,1.0,ReadingArea_rsl0-rcl25-esl29-rsm0-rcm25-esm310-rsr0-rcr44-esr100,exr/ReadingArea_rsl0-rcl25-esl29-rsm0-rcm25-esm310-rsr0-rcr44-esr100.exr,ReadingArea_rsl0-rcl25-esl29-rsm0-rcm25-esm310-rsr0-rcr44-esr100.npz,,,,,0,95,95,51,,right,red,1.08,486.8937270641327,487.2988910675049,,,2,5,3,lightness,readingArea,gauss,75,2023-03-14_09h24.39.869,tripletExp_regina_11082022,2022.2.4,120.1665133895445,
2,10,6,0,0.25,0.298245614035088,0,0.694444444444444,1.0,0,0.027777777777778,1.0,ReadingArea_rsl0-rcl25-esl29-rsm0-rcm69-esm100-rsr0-rcr2-esr100,exr/ReadingArea_rsl0-rcl25-esl29-rsm0-rcm69-esm100-rsr0-rcr2-esr100.exr,ReadingArea_rsl0-rcl25-esl29-rsm0-rcm69-esm100-rsr0-rcr2-esr100.npz,,,,,0,96,96,4,,left,green,2.2,490.7465159893036,491.2360861301422,,,2,5,3,lightness,readingArea,gauss,75,2023-03-14_09h24.39.869,tripletExp_regina_11082022,2022.2.4,120.1665133895445,
13,12,11,0,0.111111111111111,3.10526315789474,0,0.027777777777778,3.10526315789474,0,1.0,1.0,ReadingArea_rsl0-rcl11-esl310-rsm0-rcm2-esm310-rsr0-rcr100-esr100,exr/ReadingArea_rsl0-rcl11-esl310-rsm0-rcm2-esm310-rsr0-rcr100-esr100.exr,ReadingArea_rsl0-rcl11-esl310-rsm0-rcm2-esm310-rsr0-rcr100-esr100.npz,,,,,0,97,97,441,,left,green,1.65,492.9246671199799,493.360209941864,,,2,5,3,lightness,readingArea,gauss,75,2023-03-14_09h24.39.869,tripletExp_regina_11082022,2022.2.4,120.1665133895445,
5,13,7,0,1.0,0.298245614035088,0,0.111111111111111,3.10526315789474,0,0.111111111111111,1.0,ReadingArea_rsl0-rcl100-esl29-rsm0-rcm11-esm310-rsr0-rcr11-esr100,exr/ReadingArea_rsl0-rcl100-esl29-rsm0-rcm11-esm310-rsr0-rcr11-esr100.exr,ReadingArea_rsl0-rcl100-esl29-rsm0-rcm11-esm310-rsr0-rcr11-esr100.npz,,,,,0,98,98,189,,right,red,2.53,496.8371748924256,497.2885019779205,,,2,5,3,lightness,readingArea,gauss,75,2023-03-14_09h24.39.869,tripletExp_regina_11082022,2022.2.4,120.1665133895445,
5,12,7,0,1.0,0.298245614035088,0,0.027777777777778,3.10526315789474,0,0.111111111111111,1.0,ReadingArea_rsl0-rcl100-esl29-rsm0-rcm2-esm310-rsr0-rcr11-esr100,exr/ReadingArea_rsl0-rcl100-esl29-rsm0-rcm2-esm310-rsr0-rcr11-esr100.exr,ReadingArea_rsl0-rcl100-esl29-rsm0-rcm2-esm310-rsr0-rcr11-esr100.npz,,,,,0,99,99,447,,right,red,2.51,500.7734990119934,501.3309481143952,,,2,5,3,lightness,readingArea,gauss,75,2023-03-14_09h24.39.869,tripletExp_regina_11082022,2022.2.4,120.1665133895445,
0,5,11,0,0.027777777777778,0.298245614035088,0,1.0,0.298245614035088,0,1.0,1.0,ReadingArea_rsl0-rcl2-esl29-rsm0-rcm100-esm29-rsr0-rcr100-esr100,exr/ReadingArea_rsl0-rcl2-esl29-rsm0-rcm100-esm29-rsr0-rcr100-esr100.exr,ReadingArea_rsl0-rcl2-esl29-rsm0-rcm100-esm29-rsr0-rcr100-esr100.npz,,,,,0,100,100,422,,right,red,1.16,503.0274670124054,503.4694719314575,,,2,5,3,lightness,readingArea,gauss,75,2023-03-14_09h24.39.869,tripletExp_regina_11082022,2022.2.4,120.1665133895445,
3,13,1,0,0.444444444444444,0.298245614035088,0,0.111111111111111,3.10526315789474,0,0.111111111111111,0.298245614035088,ReadingArea_rsl0-rcl44-esl29-rsm0-rcm11-esm310-rsr0-rcr11-esr29,exr/ReadingArea_rsl0-rcl44-esl29-rsm0-rcm11-esm310-rsr0-rcr11-esr29.exr,ReadingArea_rsl0-rcl44-esl29-rsm0-rcm11-esm310-rsr0-rcr11-esr29.npz,,,,,0,101,101,421,,left,green,0.99,505.1673309803009,505.585734128952,,,2,5,3,lightness,readingArea,gauss,75,2023-03-14_09h24.39.869,tripletExp_regina_11082022,2022.2.4,120.1665133895445,
9,7,3,0,0.444444444444444,1.0,0,0.111111111111111,1.0,0,0.444444444444444,0.298245614035088,ReadingArea_rsl0-rcl44-esl100-rsm0-rcm11-esm100-rsr0-rcr44-esr29,exr/ReadingArea_rsl0-rcl44-esl100-rsm0-rcm11-esm100-rsr0-rcr44-esr29.exr,ReadingArea_rsl0-rcl44-esl100-rsm0-rcm11-esm100-rsr0-rcr44-esr29.npz,,,,,0,102,102,235,,right,red,2.74,509.0813570022583,,,,2,5,3,lightness,readingArea,gauss,75,2023-03-14_09h24.39.869,tripletExp_regina_11082022,2022.2.4,120.1665133895445,
7,10,13,0,0.111111111111111,1.0,0,0.694444444444444,1.0,0,0.111111111111111,3.10526315789474,ReadingArea_rsl0-rcl11-esl100-rsm0-rcm69-esm100-rsr0-rcr11-esr310,exr/ReadingArea_rsl0-rcl11-esl100-rsm0-rcm69-esm100-rsr0-rcr11-esr310.exr,ReadingArea_rsl0-rcl11-esl100-rsm0-rcm69-esm100-rsr0-rcr11-esr310.npz,,,,,0,103,103,446,,right,red,3.43,513.0530979633331,513.4878439903259,,,2,5,3,lightness,readingArea,gauss,75,2023-03-14_09h24.39.869,tripletExp_regina_11082022,2022.2.4,120.1665133895445,
4,10,9,0,0.694444444444444,0.298245614035088,0,0.694444444444444,1.0,0,0.444444444444444,1.0,ReadingArea_rsl0-rcl69-esl29-rsm0-rcm69-esm100-rsr0-rcr44-esr100,exr/ReadingArea_rsl0-rcl69-esl29-rsm0-rcm69-esm100-rsr0-rcr44-esr100.exr,ReadingArea_rsl0-rcl69-esl29-rsm0-rcm69-esm100-rsr0-rcr44-esr100.npz,,,,,0,104,104,516,,left,green,2.68,516.9695930480957,517.4111449718475,,,2,5,3,lightness,readingArea,gauss,75,2023-03-14_09h24.39.869,tripletExp_regina_11082022,2022.2.4,120.1665133895445,
7,5,11,0,0.111111111111111,1.0,0,1.0,0.298245614035088,0,1.0,1.0,ReadingArea_rsl0-rcl11-esl100-rsm0-rcm100-esm29-rsr0-rcr100-esr100,exr/ReadingArea_rsl0-rcl11-esl100-rsm0-rcm100-esm29-rsr0-rcr100-esr100.exr,ReadingArea_rsl0-rcl11-esl100-rsm0-rcm100-esm29-rsr0-rcr100-esr100.npz,,,,,0,105,105,10,,left,green,2.16,520.8953320980072,521.3192501068115,,,2,5,3,lightness,readingArea,gauss,75,2023-03-14_09h24.39.869,tripletExp_regina_11082022,2022.2.4,120.1665133895445,
11,7,10,0,1.0,1.0,0,0.111111111111111,1.0,0,0.694444444444444,1.0,ReadingArea_rsl0-rcl100-esl100-rsm0-rcm11-esm100-rsr0-rcr69-esr100,exr/ReadingArea_rsl0-rcl100-esl100-rsm0-rcm11-esm100-rsr0-rcr69-esr100.exr,ReadingArea_rsl0-rcl100-esl100-rsm0-rcm11-esm100-rsr0-rcr69-esr100.npz,,,,,0,106,106,411,,right,red,2.64,524.7992820739746,525.4091029167175,,,2,5,3,lightness,readingArea,gauss,75,2023-03-14_09h24.39.869,tripletExp_regina_11082022,2022.2.4,120.1665133895445,
13,2,9,0,0.111111111111111,3.10526315789474,0,0.25,0.298245614035088,0,0.444444444444444,1.0,ReadingArea_rsl0-rcl11-esl310-rsm0-rcm25-esm29-rsr0-rcr44-esr100,exr/ReadingArea_rsl0-rcl11-esl310-rsm0-rcm25-esm29-rsr0-rcr44-esr100.exr,ReadingArea_rsl0-rcl11-esl310-rsm0-rcm25-esm29-rsr0-rcr44-esr100.npz,,,,,0,107,107,457,,left,green,1.09,527.0954201221466,527.5626840591431,,,2,5,3,lightness,readingArea,gauss,75,2023-03-14_09h24.39.869,tripletExp_regina_11082022,2022.2.4,120.1665133895445,
13,12,5,0,0.111111111111111,3.10526315789474,0,0.027777777777778,3.10526315789474,0,1.0,0.298245614035088,ReadingArea_rsl0-rcl11-esl310-rsm0-rcm2-esm310-rsr0-rcr100-esr29,exr/ReadingArea_rsl0-rcl11-esl310-rsm0-rcm2-esm310-rsr0-rcr100-esr29.exr,ReadingArea_rsl0-rcl11-esl310-rsm0-rcm2-esm310-rsr0-rcr100-esr29.npz,,,,,0,108,108,294,,left,green,1.2,529.259537935257,,,,2,5,3,lightness,readingArea,gauss,75,2023-03-14_09h24.39.869,tripletExp_regina_11082022,2022.2.4,120.1665133895445,
14,5,10,0,0.25,3.10526315789474,0,1.0,0.298245614035088,0,0.694444444444444,1.0,ReadingArea_rsl0-rcl25-esl310-rsm0-rcm100-esm29-rsr0-rcr69-esr100,exr/ReadingArea_rsl0-rcl25-esl310-rsm0-rcm100-esm29-rsr0-rcr69-esr100.exr,ReadingArea_rsl0-rcl25-esl310-rsm0-rcm100-esm29-rsr0-rcr69-esr100.npz,,,,,0,109,109,170,,left,green,3.3,533.1769089698792,,,,2,5,3,lightness,readingArea,gauss,75,2023-03-14_09h24.39.869,tripletExp_regina_11082022,2022.2.4,120.1665133895445,
0,8,9,0,0.027777777777778,0.298245614035088,0,0.25,1.0,0,0.444444444444444,1.0,ReadingArea_rsl0-rcl2-esl29-rsm0-rcm25-esm100-rsr0-rcr44-esr100,exr/ReadingArea_rsl0-rcl2-esl29-rsm0-rcm25-esm100-rsr0-rcr44-esr100.exr,ReadingArea_rsl0-rcl2-esl29-rsm0-rcm25-esm100-rsr0-rcr44-esr100.npz,,,,,0,110,110,541,,left,green,3.03,537.1548550128937,537.6329820156097,,,2,5,3,lightness,readingArea,gauss,75,2023-03-14_09h24.39.869,tripletExp_regina_11082022,2022.2.4,120.1665133895445,
2,9,8,0,0.25,0.298245614035088,0,0.444444444444444,1.0,0,0.25,1.0,ReadingArea_rsl0-rcl25-esl29-rsm0-rcm44-esm100-rsr0-rcr25-esr100,exr/ReadingArea_rsl0-rcl25-esl29-rsm0-rcm44-esm100-rsr0-rcr25-esr100.exr,ReadingArea_rsl0-rcl25-esl29-rsm0-rcm44-esm100-rsr0-rcr25-esr100.npz,,,,,0,111,111,407,,left,green,3.3,541.1109371185303,,,,2,5,3,lightness,readingArea,gauss,75,2023-03-14_09h24.39.869,tripletExp_regina_11082022,2022.2.4,120.1665133895445,
7,12,1,0,0.111111111111111,1.0,0,0.027777777777778,3.10526315789474,0,0.111111111111111,0.298245614035088,ReadingArea_rsl0-rcl11-esl100-rsm0-rcm2-esm310-rsr0-rcr11-esr29,exr/ReadingArea_rsl0-rcl11-esl100-rsm0-rcm2-esm310-rsr0-rcr11-esr29.exr,ReadingArea_rsl0-rcl11-esl100-rsm0-rcm2-esm310-rsr0-rcr11-esr29.npz,,,,,0,112,112,20,,right,red,2.37,545.0686159133911,545.5397820472717,,,2,5,3,lightness,readingArea,gauss,75,2023-03-14_09h24.39.869,tripletExp_regina_11082022,2022.2.4,120.1665133895445,
0,1,8,0,0.027777777777778,0.298245614035088,0,0.111111111111111,0.298245614035088,0,0.25,1.0,ReadingArea_rsl0-rcl2-esl29-rsm0-rcm11-esm29-rsr0-rcr25-esr100,exr/ReadingArea_rsl0-rcl2-esl29-rsm0-rcm11-esm29-rsr0-rcr25-esr100.exr,ReadingArea_rsl0-rcl2-esl29-rsm0-rcm11-esm29-rsr0-rcr25-esr100.npz,,,,,0,113,113,107,,left,green,4.4,550.7775299549103,551.2368400096893,,,2,5,3,lightness,readingArea,gauss,75,2023-03-14_09h24.39.869,tripletExp_regina_11082022,2022.2.4,120.1665133895445,
12,5,2,0,0.027777777777778,3.10526315789474,0,1.0,0.298245614035088,0,0.25,0.298245614035088,ReadingArea_rsl0-rcl2-esl310-rsm0-rcm100-esm29-rsr0-rcr25-esr29,exr/ReadingArea_rsl0-rcl2-esl310-rsm0-rcm100-esm29-rsr0-rcr25-esr29.exr,ReadingArea_rsl0-rcl2-esl310-rsm0-rcm100-esm29-rsr0-rcr25-esr29.npz,,,,,0,114,114,415,,right,red,2.44,554.7240169048309,555.1770489215851,,,2,5,3,lightness,readingArea,gauss,75,2023-03-14_09h24.39.869,tripletExp_regina_11082022,2022.2.4,120.1665133895445,
5,14,3,0,1.0,0.298245614035088,0,0.25,3.10526315789474,0,0.444444444444444,0.298245614035088,ReadingArea_rsl0-rcl100-esl29-rsm0-rcm25-esm310-rsr0-rcr44-esr29,exr/ReadingArea_rsl0-rcl100-esl29-rsm0-rcm25-esm310-rsr0-rcr44-esr29.exr,ReadingArea_rsl0-rcl100-esl29-rsm0-rcm25-esm310-rsr0-rcr44-esr29.npz,,,,,0,115,115,93,,left,green,2.16,558.6646900177002,559.120395898819,,,2,5,3,lightness,readingArea,gauss,75,2023-03-14_09h24.39.869,tripletExp_regina_11082022,2022.2.4,120.1665133895445,
10,11,13,0,0.694444444444444,1.0,0,1.0,1.0,0,0.111111111111111,3.10526315789474,ReadingArea_rsl0-rcl69-esl100-rsm0-rcm100-esm100-rsr0-rcr11-esr310,exr/ReadingArea_rsl0-rcl69-esl100-rsm0-rcm100-esm100-rsr0-rcr11-esr310.exr,ReadingArea_rsl0-rcl69-esl100-rsm0-rcm100-esm100-rsr0-rcr11-esr310.npz,,,,,0,116,116,79,,left,green,2.69,562.6024761199951,563.0422229766846,,,2,5,3,lightness,readingArea,gauss,75,2023-03-14_09h24.39.869,tripletExp_regina_11082022,2022.2.4,120.1665133895445,
3,4,0,0,0.444444444444444,0.298245614035088,0,0.694444444444444,0.298245614035088,0,0.027777777777778,0.298245614035088,ReadingArea_rsl0-rcl44-esl29-rsm0-rcm69-esm29-rsr0-rcr2-esr29,exr/ReadingArea_rsl0-rcl44-esl29-rsm0-rcm69-esm29-rsr0-rcr2-esr29.exr,ReadingArea_rsl0-rcl44-esl29-rsm0-rcm69-esm29-rsr0-rcr2-esr29.npz,,,,,0,117,117,130,,left,green,1.36,564.7613289356232,565.2405049800873,,,2,5,3,lightness,readingArea,gauss,75,2023-03-14_09h24.39.869,tripletExp_regina_11082022,2022.2.4,120.1665133895445,
2,13,0,0,0.25,0.298245614035088,0,0.111111111111111,3.10526315789474,0,0.027777777777778,0.298245614035088,ReadingArea_rsl0-rcl25-esl29-rsm0-rcm11-esm310-rsr0-rcr2-esr29,exr/ReadingArea_rsl0-rcl25-esl29-rsm0-rcm11-esm310-rsr0-rcr2-esr29.exr,ReadingArea_rsl0-rcl25-esl29-rsm0-rcm11-esm310-rsr0-rcr2-esr29.npz,,,,,0,118,118,454,,left,green,1.14,566.9462480545044,567.3679211139679,,,2,5,3,lightness,readingArea,gauss,75,2023-03-14_09h24.39.869,tripletExp_regina_11082022,2022.2.4,120.1665133895445,
10,7,8,0,0.694444444444444,1.0,0,0.111111111111111,1.0,0,0.25,1.0,ReadingArea_rsl0-rcl69-esl100-rsm0-rcm11-esm100-rsr0-rcr25-esr100,exr/ReadingArea_rsl0-rcl69-esl100-rsm0-rcm11-esm100-rsr0-rcr25-esr100.exr,ReadingArea_rsl0-rcl69-esl100-rsm0-rcm11-esm100-rsr0-rcr25-esr100.npz,,,,,0,119,119,57,,right,red,3.01,570.844419002533,571.3323380947113,,,2,5,3,lightness,readingArea,gauss,75,2023-03-14_09h24.39.869,tripletExp_regina_11082022,2022.2.4,120.1665133895445,
5,9,12,0,1.0,0.298245614035088,0,0.444444444444444,1.0,0,0.027777777777778,3.10526315789474,ReadingArea_rsl0-rcl100-esl29-rsm0-rcm44-esm100-rsr0-rcr2-esr310,exr/ReadingArea_rsl0-rcl100-esl29-rsm0-rcm44-esm100-rsr0-rcr2-esr310.exr,ReadingArea_rsl0-rcl100-esl29-rsm0-rcm44-esm100-rsr0-rcr2-esr310.npz,,,,,0,120,120,539,,left,green,1.44,573.0308480262756,573.4783511161804,,,2,5,3,lightness,readingArea,gauss,75,2023-03-14_09h24.39.869,tripletExp_regina_11082022,2022.2.4,120.1665133895445,
9,6,11,0,0.444444444444444,1.0,0,0.027777777777778,1.0,0,1.0,1.0,ReadingArea_rsl0-rcl44-esl100-rsm0-rcm2-esm100-rsr0-rcr100-esr100,exr/ReadingArea_rsl0-rcl44-esl100-rsm0-rcm2-esm100-rsr0-rcr100-esr100.exr,ReadingArea_rsl0-rcl44-esl100-rsm0-rcm2-esm100-rsr0-rcr100-esr100.npz,,,,,0,121,121,572,,left,green,1.33,575.1896889209747,575.7044219970703,,,2,5,3,lightness,readingArea,gauss,75,2023-03-14_09h24.39.869,tripletExp_regina_11082022,2022.2.4,120.1665133895445,
0,12,7,0,0.027777777777778,0.298245614035088,0,0.027777777777778,3.10526315789474,0,0.111111111111111,1.0,ReadingArea_rsl0-rcl2-esl29-rsm0-rcm2-esm310-rsr0-rcr11-esr100,exr/ReadingArea_rsl0-rcl2-esl29-rsm0-rcm2-esm310-rsr0-rcr11-esr100.exr,ReadingArea_rsl0-rcl2-esl29-rsm0-rcm2-esm310-rsr0-rcr11-esr100.npz,,,,,0,122,122,481,,right,red,3.03,579.2027580738068,579.6816380023956,,,2,5,3,lightness,readingArea,gauss,75,2023-03-14_09h24.39.869,tripletExp_regina_11082022,2022.2.4,120.1665133895445,
5,3,6,0,1.0,0.298245614035088,0,0.444444444444444,0.298245614035088,0,0.027777777777778,1.0,ReadingArea_rsl0-rcl100-esl29-rsm0-rcm44-esm29-rsr0-rcr2-esr100,exr/ReadingArea_rsl0-rcl100-esl29-rsm0-rcm44-esm29-rsr0-rcr2-esr100.exr,ReadingArea_rsl0-rcl100-esl29-rsm0-rcm44-esm29-rsr0-rcr2-esr100.npz,,,,,0,123,123,316,,left,green,2.84,583.1564290523529,583.6125650405884,,,2,5,3,lightness,readingArea,gauss,75,2023-03-14_09h24.39.869,tripletExp_regina_11082022,2022.2.4,120.1665133895445,
1,9,8,0,0.111111111111111,0.298245614035088,0,0.444444444444444,1.0,0,0.25,1.0,ReadingArea_rsl0-rcl11-esl29-rsm0-rcm44-esm100-rsr0-rcr25-esr100,exr/ReadingArea_rsl0-rcl11-esl29-rsm0-rcm44-esm100-rsr0-rcr25-esr100.exr,ReadingArea_rsl0-rcl11-esl29-rsm0-rcm44-esm100-rsr0-rcr25-esr100.npz,,,,,0,124,124,268,,right,red,2.37,587.0783638954163,587.5363829135895,,,2,5,3,lightness,readingArea,gauss,75,2023-03-14_09h24.39.869,tripletExp_regina_11082022,2022.2.4,120.1665133895445,
10,12,11,0,0.694444444444444,1.0,0,0.027777777777778,3.10526315789474,0,1.0,1.0,ReadingArea_rsl0-rcl69-esl100-rsm0-rcm2-esm310-rsr0-rcr100-esr100,exr/ReadingArea_rsl0-rcl69-esl100-rsm0-rcm2-esm310-rsr0-rcr100-esr100.exr,ReadingArea_rsl0-rcl69-esl100-rsm0-rcm2-esm310-rsr0-rcr100-esr100.npz,,,,,0,125,125,317,,left,green,2.52,591.0299808979034,591.4613680839539,,,2,5,3,lightness,readingArea,gauss,75,2023-03-14_09h24.39.869,tripletExp_regina_11082022,2022.2.4,120.1665133895445,
2,1,3,0,0.25,0.298245614035088,0,0.111111111111111,0.298245614035088,0,0.444444444444444,0.298245614035088,ReadingArea_rsl0-rcl25-esl29-rsm0-rcm11-esm29-rsr0-rcr44-esr29,exr/ReadingArea_rsl0-rcl25-esl29-rsm0-rcm11-esm29-rsr0-rcr44-esr29.exr,ReadingArea_rsl0-rcl25-esl29-rsm0-rcm11-esm29-rsr0-rcr44-esr29.npz,,,,,0,126,126,85,,left,green,2.34,594.9354410171509,595.3618800640106,,,2,5,3,lightness,readingArea,gauss,75,2023-03-14_09h24.39.869,tripletExp_regina_11082022,2022.2.4,120.1665133895445,
2,5,14,0,0.25,0.298245614035088,0,1.0,0.298245614035088,0,0.25,3.10526315789474,ReadingArea_rsl0-rcl25-esl29-rsm0-rcm100-esm29-rsr0-rcr25-esr310,exr/ReadingArea_rsl0-rcl25-esl29-rsm0-rcm100-esm29-rsr0-rcr25-esr310.exr,ReadingArea_rsl0-rcl25-esl29-rsm0-rcm100-esm29-rsr0-rcr25-esr310.npz,,,,,0,127,127,390,,left,green,2.21,598.8584909439087,599.2987639904022,,,2,5,3,lightness,readingArea,gauss,75,2023-03-14_09h24.39.869,tripletExp_regina_11082022,2022.2.4,120.1665133895445,
1,10,11,0,0.111111111111111,0.298245614035088,0,0.694444444444444,1.0,0,1.0,1.0,ReadingArea_rsl0-rcl11-esl29-rsm0-rcm69-esm100-rsr0-rcr100-esr100,exr/ReadingArea_rsl0-rcl11-esl29-rsm0-rcm69-esm100-rsr0-rcr100-esr100.exr,ReadingArea_rsl0-rcl11-esl29-rsm0-rcm69-esm100-rsr0-rcr100-esr100.npz,,,,,0,128,128,483,,right,red,1.29,601.0025370121002,601.4459180831909,,,2,5,3,lightness,readingArea,gauss,75,2023-03-14_09h24.39.869,tripletExp_regina_11082022,2022.2.4,120.1665133895445,
8,9,6,0,0.25,1.0,0,0.444444444444444,1.0,0,0.027777777777778,1.0,ReadingArea_rsl0-rcl25-esl100-rsm0-rcm44-esm100-rsr0-rcr2-esr100,exr/ReadingArea_rsl0-rcl25-esl100-rsm0-rcm44-esm100-rsr0-rcr2-esr100.exr,ReadingArea_rsl0-rcl25-esl100-rsm0-rcm44-esm100-rsr0-rcr2-esr100.npz,,,,,0,129,129,3,,left,green,1.39,603.1355149745941,603.5559430122375,,,2,5,3,lightness,readingArea,gauss,75,2023-03-14_09h24.39.869,tripletExp_regina_11082022,2022.2.4,120.1665133895445,
11,7,8,0,1.0,1.0,0,0.111111111111111,1.0,0,0.25,1.0,ReadingArea_rsl0-rcl100-esl100-rsm0-rcm11-esm100-rsr0-rcr25-esr100,exr/ReadingArea_rsl0-rcl100-esl100-rsm0-rcm11-esm100-rsr0-rcr25-esr100.exr,ReadingArea_rsl0-rcl100-esl100-rsm0-rcm11-esm100-rsr0-rcr25-esr100.npz,,,,,0,130,130,37,,right,red,2.9,607.0562560558319,607.5155889987946,,,2,5,3,lightness,readingArea,gauss,75,2023-03-14_09h24.39.869,tripletExp_regina_11082022,2022.2.4,120.1665133895445,
3,13,10,0,0.444444444444444,0.298245614035088,0,0.111111111111111,3.10526315789474,0,0.694444444444444,1.0,ReadingArea_rsl0-rcl44-esl29-rsm0-rcm11-esm310-rsr0-rcr69-esr100,exr/ReadingArea_rsl0-rcl44-esl29-rsm0-rcm11-esm310-rsr0-rcr69-esr100.exr,ReadingArea_rsl0-rcl44-esl29-rsm0-rcm11-esm310-rsr0-rcr69-esr100.npz,,,,,0,131,131,416,,left,green,1.15,609.2324960231781,609.7927360534668,,,2,5,3,lightness,readingArea,gauss,75,2023-03-14_09h24.39.869,tripletExp_regina_11082022,2022.2.4,120.1665133895445,
11,13,8,0,1.0,1.0,0,0.111111111111111,3.10526315789474,0,0.25,1.0,ReadingArea_rsl0-rcl100-esl100-rsm0-rcm11-esm310-rsr0-rcr25-esr100,exr/ReadingArea_rsl0-rcl100-esl100-rsm0-rcm11-esm310-rsr0-rcr25-esr100.exr,ReadingArea_rsl0-rcl100-esl100-rsm0-rcm11-esm310-rsr0-rcr25-esr100.npz,,,,,0,132,132,198,,right,red,1.24,611.4830229282379,611.9549341201782,,,2,5,3,lightness,readingArea,gauss,75,2023-03-14_09h24.39.869,tripletExp_regina_11082022,2022.2.4,120.1665133895445,
13,14,7,0,0.111111111111111,3.10526315789474,0,0.25,3.10526315789474,0,0.111111111111111,1.0,ReadingArea_rsl0-rcl11-esl310-rsm0-rcm25-esm310-rsr0-rcr11-esr100,exr/ReadingArea_rsl0-rcl11-esl310-rsm0-rcm25-esm310-rsr0-rcr11-esr100.exr,ReadingArea_rsl0-rcl11-esl310-rsm0-rcm25-esm310-rsr0-rcr11-esr100.npz,,,,,0,133,133,324,,left,green,1.29,613.6589350700378,614.2232699394226,,,2,5,3,lightness,readingArea,gauss,75,2023-03-14_09h24.39.869,tripletExp_regina_11082022,2022.2.4,120.1665133895445,
13,3,12,0,0.111111111111111,3.10526315789474,0,0.444444444444444,0.298245614035088,0,0.027777777777778,3.10526315789474,ReadingArea_rsl0-rcl11-esl310-rsm0-rcm44-esm29-rsr0-rcr2-esr310,exr/ReadingArea_rsl0-rcl11-esl310-rsm0-rcm44-esm29-rsr0-rcr2-esr310.exr,ReadingArea_rsl0-rcl11-esl310-rsm0-rcm44-esm29-rsr0-rcr2-esr310.npz,,,,,0,134,134,80,,left,green,1.13,615.9244630336761,616.3790419101715,,,2,5,3,lightness,readingArea,gauss,75,2023-03-14_09h24.39.869,tripletExp_regina_11082022,2022.2.4,120.1665133895445,
8,1,3,0,0.25,1.0,0,0.111111111111111,0.298245614035088,0,0.444444444444444,0.298245614035088,ReadingArea_rsl0-rcl25-esl100-rsm0-rcm11-esm29-rsr0-rcr44-esr29,exr/ReadingArea_rsl0-rcl25-esl100-rsm0-rcm11-esm29-rsr0-rcr44-esr29.exr,ReadingArea_rsl0-rcl25-esl100-rsm0-rcm11-esm29-rsr0-rcr44-esr29.npz,,,,,0,135,135,490,,right,red,2.54,619.8573460578918,,,,2,5,3,lightness,readingArea,gauss,75,2023-03-14_09h24.39.869,tripletExp_regina_11082022,2022.2.4,120.1665133895445,
4,12,5,0,0.694444444444444,0.298245614035088,0,0.027777777777778,3.10526315789474,0,1.0,0.298245614035088,ReadingArea_rsl0-rcl69-esl29-rsm0-rcm2-esm310-rsr0-rcr100-esr29,exr/ReadingArea_rsl0-rcl69-esl29-rsm0-rcm2-esm310-rsr0-rcr100-esr29.exr,ReadingArea_rsl0-rcl69-esl29-rsm0-rcm2-esm310-rsr0-rcr100-esr29.npz,,,,,0,136,136,296,,left,green,1.52,622.0772969722748,622.5185489654541,,,2,5,3,lightness,readingArea,gauss,75,2023-03-14_09h24.39.869,tripletExp_regina_11082022,2022.2.4,120.1665133895445,
3,13,12,0,0.444444444444444,0.298245614035088,0,0.111111111111111,3.10526315789474,0,0.027777777777778,3.10526315789474,ReadingArea_rsl0-rcl44-esl29-rsm0-rcm11-esm310-rsr0-rcr2-esr310,exr/ReadingArea_rsl0-rcl44-esl29-rsm0-rcm11-esm310-rsr0-rcr2-esr310.exr,ReadingArea_rsl0-rcl44-esl29-rsm0-rcm11-esm310-rsr0-rcr2-esr310.npz,,,,,0,137,137,34,,left,green,1.02,624.2243890762329,,,,2,5,3,lightness,readingArea,gauss,75,2023-03-14_09h24.39.869,tripletExp_regina_11082022,2022.2.4,120.1665133895445,
13,10,7,0,0.111111111111111,3.10526315789474,0,0.694444444444444,1.0,0,0.111111111111111,1.0,ReadingArea_rsl0-rcl11-esl310-rsm0-rcm69-esm100-rsr0-rcr11-esr100,exr/ReadingArea_rsl0-rcl11-esl310-rsm0-rcm69-esm100-rsr0-rcr11-esr100.exr,ReadingArea_rsl0-rcl11-esl310-rsm0-rcm69-esm100-rsr0-rcr11-esr100.npz,,,,,0,138,138,385,,left,green,2.48,628.1784749031067,628.626384973526,,,2,5,3,lightness,readingArea,gauss,75,2023-03-14_09h24.39.869,tripletExp_regina_11082022,2022.2.4,120.1665133895445,
14,9,0,0,0.25,3.10526315789474,0,0.444444444444444,1.0,0,0.027777777777778,0.298245614035088,ReadingArea_rsl0-rcl25-esl310-rsm0-rcm44-esm100-rsr0-rcr2-esr29,exr/ReadingArea_rsl0-rcl25-esl310-rsm0-rcm44-esm100-rsr0-rcr2-esr29.exr,ReadingArea_rsl0-rcl25-esl310-rsm0-rcm44-esm100-rsr0-rcr2-esr29.npz,,,,,0,139,139,313,,left,green,1.28,630.3387010097504,630.801815032959,,,2,5,3,lightness,readingArea,gauss,75,2023-03-14_09h24.39.869,tripletExp_regina_11082022,2022.2.4,120.1665133895445,
10,3,14,0,0.694444444444444,1.0,0,0.444444444444444,0.298245614035088,0,0.25,3.10526315789474,ReadingArea_rsl0-rcl69-esl100-rsm0-rcm44-esm29-rsr0-rcr25-esr310,exr/ReadingArea_rsl0-rcl69-esl100-rsm0-rcm44-esm29-rsr0-rcr25-esr310.exr,ReadingArea_rsl0-rcl69-esl100-rsm0-rcm44-esm29-rsr0-rcr25-esr310.npz,,,,,0,140,140,597,,right,red,2.96,634.2828269004822,634.7376239299774,,,2,5,3,lightness,readingArea,gauss,75,2023-03-14_09h24.39.869,tripletExp_regina_11082022,2022.2.4,120.1665133895445,
6,4,2,0,0.027777777777778,1.0,0,0.694444444444444,0.298245614035088,0,0.25,0.298245614035088,ReadingArea_rsl0-rcl2-esl100-rsm0-rcm69-esm29-rsr0-rcr25-esr29,exr/ReadingArea_rsl0-rcl2-esl100-rsm0-rcm69-esm29-rsr0-rcr25-esr29.exr,ReadingArea_rsl0-rcl2-esl100-rsm0-rcm69-esm29-rsr0-rcr25-esr29.npz,,,,,0,141,141,134,,right,red,1.04,636.4591529369354,636.9034969806671,,,2,5,3,lightness,readingArea,gauss,75,2023-03-14_09h24.39.869,tripletExp_regina_11082022,2022.2.4,120.1665133895445,
2,6,13,0,0.25,0.298245614035088,0,0.027777777777778,1.0,0,0.111111111111111,3.10526315789474,ReadingArea_rsl0-rcl25-esl29-rsm0-rcm2-esm100-rsr0-rcr11-esr310,exr/ReadingArea_rsl0-rcl25-esl29-rsm0-rcm2-esm100-rsr0-rcr11-esr310.exr,ReadingArea_rsl0-rcl25-esl29-rsm0-rcm2-esm100-rsr0-rcr11-esr310.npz,,,,,0,142,142,388,,left,green,2.3,640.3413009643555,640.7999610900879,,,2,5,3,lightness,readingArea,gauss,75,2023-03-14_09h24.39.869,tripletExp_regina_11082022,2022.2.4,120.1665133895445,
7,2,0,0,0.111111111111111,1.0,0,0.25,0.298245614035088,0,0.027777777777778,0.298245614035088,ReadingArea_rsl0-rcl11-esl100-rsm0-rcm25-esm29-rsr0-rcr2-esr29,exr/ReadingArea_rsl0-rcl11-esl100-rsm0-rcm25-esm29-rsr0-rcr2-esr29.exr,ReadingArea_rsl0-rcl11-esl100-rsm0-rcm25-esm29-rsr0-rcr2-esr29.npz,,,,,0,143,143,520,,left,green,0.73,642.5075480937958,642.9452340602875,,,2,5,3,lightness,readingArea,gauss,75,2023-03-14_09h24.39.869,tripletExp_regina_11082022,2022.2.4,120.1665133895445,
14,8,1,0,0.25,3.10526315789474,0,0.25,1.0,0,0.111111111111111,0.298245614035088,ReadingArea_rsl0-rcl25-esl310-rsm0-rcm25-esm100-rsr0-rcr11-esr29,exr/ReadingArea_rsl0-rcl25-esl310-rsm0-rcm25-esm100-rsr0-rcr11-esr29.exr,ReadingArea_rsl0-rcl25-esl310-rsm0-rcm25-esm100-rsr0-rcr11-esr29.npz,,,,,0,144,144,141,,left,green,0.93,644.6486690044403,645.1308469772339,,,2,5,3,lightness,readingArea,gauss,75,2023-03-14_09h24.39.869,tripletExp_regina_11082022,2022.2.4,120.1665133895445,
11,4,0,0,1.0,1.0,0,0.694444444444444,0.298245614035088,0,0.027777777777778,0.298245614035088,ReadingArea_rsl0-rcl100-esl100-rsm0-rcm69-esm29-rsr0-rcr2-esr29,exr/ReadingArea_rsl0-rcl100-esl100-rsm0-rcm69-esm29-rsr0-rcr2-esr29.exr,ReadingArea_rsl0-rcl100-esl100-rsm0-rcm69-esm29-rsr0-rcr2-esr29.npz,,,,,0,145,145,219,,right,red,2.77,648.5909779071808,649.0362091064453,,,2,5,3,lightness,readingArea,gauss,75,2023-03-14_09h24.39.869,tripletExp_regina_11082022,2022.2.4,120.1665133895445,
1,3,12,0,0.111111111111111,0.298245614035088,0,0.444444444444444,0.298245614035088,0,0.027777777777778,3.10526315789474,ReadingArea_rsl0-rcl11-esl29-rsm0-rcm44-esm29-rsr0-rcr2-esr310,exr/ReadingArea_rsl0-rcl11-esl29-rsm0-rcm44-esm29-rsr0-rcr2-esr310.exr,ReadingArea_rsl0-rcl11-esl29-rsm0-rcm44-esm29-rsr0-rcr2-esr310.npz,,,,,0,146,146,323,,left,green,2.44,652.5268189907074,652.976359128952,,,2,5,3,lightness,readingArea,gauss,75,2023-03-14_09h24.39.869,tripletExp_regina_11082022,2022.2.4,120.1665133895445,
7,13,12,0,0.111111111111111,1.0,0,0.111111111111111,3.10526315789474,0,0.027777777777778,3.10526315789474,ReadingArea_rsl0-rcl11-esl100-rsm0-rcm11-esm310-rsr0-rcr2-esr310,exr/ReadingArea_rsl0-rcl11-esl100-rsm0-rcm11-esm310-rsr0-rcr2-esr310.exr,ReadingArea_rsl0-rcl11-esl100-rsm0-rcm11-esm310-rsr0-rcr2-esr310.npz,,,,,0,147,147,438,,left,green,2.66,656.4690430164337,656.9107279777527,,,2,5,3,lightness,readingArea,gauss,75,2023-03-14_09h24.39.869,tripletExp_regina_11082022,2022.2.4,120.1665133895445,
4,14,12,0,0.694444444444444,0.298245614035088,0,0.25,3.10526315789474,0,0.027777777777778,3.10526315789474,ReadingArea_rsl0-rcl69-esl29-rsm0-rcm25-esm310-rsr0-rcr2-esr310,exr/ReadingArea_rsl0-rcl69-esl29-rsm0-rcm25-esm310-rsr0-rcr2-esr310.exr,ReadingArea_rsl0-rcl69-esl29-rsm0-rcm25-esm310-rsr0-rcr2-esr310.npz,,,,,0,148,148,392,,left,green,1.54,658.6000139713287,659.1672899723053,,,2,5,3,lightness,readingArea,gauss,75,2023-03-14_09h24.39.869,tripletExp_regina_11082022,2022.2.4,120.1665133895445,
6,5,13,0,0.027777777777778,1.0,0,1.0,0.298245614035088,0,0.111111111111111,3.10526315789474,ReadingArea_rsl0-rcl2-esl100-rsm0-rcm100-esm29-rsr0-rcr11-esr310,exr/ReadingArea_rsl0-rcl2-esl100-rsm0-rcm100-esm29-rsr0-rcr11-esr310.exr,ReadingArea_rsl0-rcl2-esl100-rsm0-rcm100-esm29-rsr0-rcr11-esr310.npz,,,,,0,149,149,450,,right,red,2.66,662.6476929187775,662.8540990352631,,,2,5,3,lightness,readingArea,gauss,75,2023-03-14_09h24.39.869,tripletExp_regina_11082022,2022.2.4,120.1665133895445,
1,13,11,0,0.111111111111111,0.298245614035088,0,0.111111111111111,3.10526315789474,0,1.0,1.0,ReadingArea_rsl0-rcl11-esl29-rsm0-rcm11-esm310-rsr0-rcr100-esr100,exr/ReadingArea_rsl0-rcl11-esl29-rsm0-rcm11-esm310-rsr0-rcr100-esr100.exr,ReadingArea_rsl0-rcl11-esl29-rsm0-rcm11-esm310-rsr0-rcr100-esr100.npz,,,,,0,150,150,333,,left,green,1.65,678.683876991272,679.1925179958344,,,3,5,3,lightness,readingArea,gauss,75,2023-03-14_09h24.39.869,tripletExp_regina_11082022,2022.2.4,120.1665133895445,
1,9,11,0,0.111111111111111,0.298245614035088,0,0.444444444444444,1.0,0,1.0,1.0,ReadingArea_rsl0-rcl11-esl29-rsm0-rcm44-esm100-rsr0-rcr100-esr100,exr/ReadingArea_rsl0-rcl11-esl29-rsm0-rcm44-esm100-rsr0-rcr100-esr100.exr,ReadingArea_rsl0-rcl11-esl29-rsm0-rcm44-esm100-rsr0-rcr100-esr100.npz,,,,,0,151,151,215,,right,red,1.15,680.8899750709534,681.3666689395905,,,3,5,3,lightness,readingArea,gauss,75,2023-03-14_09h24.39.869,tripletExp_regina_11082022,2022.2.4,120.1665133895445,
6,2,5,0,0.027777777777778,1.0,0,0.25,0.298245614035088,0,1.0,0.298245614035088,ReadingArea_rsl0-rcl2-esl100-rsm0-rcm25-esm29-rsr0-rcr100-esr29,exr/ReadingArea_rsl0-rcl2-esl100-rsm0-rcm25-esm29-rsr0-rcr100-esr29.exr,ReadingArea_rsl0-rcl2-esl100-rsm0-rcm25-esm29-rsr0-rcr100-esr29.npz,,,,,0,152,152,504,,left,green,2.33,684.8526248931885,685.3018629550934,,,3,5,3,lightness,readingArea,gauss,75,2023-03-14_09h24.39.869,tripletExp_regina_11082022,2022.2.4,120.1665133895445,
13,9,4,0,0.111111111111111,3.10526315789474,0,0.444444444444444,1.0,0,0.694444444444444,0.298245614035088,ReadingArea_rsl0-rcl11-esl310-rsm0-rcm44-esm100-rsr0-rcr69-esr29,exr/ReadingArea_rsl0-rcl11-esl310-rsm0-rcm44-esm100-rsr0-rcr69-esr29.exr,ReadingArea_rsl0-rcl11-esl310-rsm0-rcm44-esm100-rsr0-rcr69-esr29.npz,,,,,0,153,153,444,,left,green,2.84,688.7680931091309,,,,3,5,3,lightness,readingArea,gauss,75,2023-03-14_09h24.39.869,tripletExp_regina_11082022,2022.2.4,120.1665133895445,
1,14,8,0,0.111111111111111,0.298245614035088,0,0.25,3.10526315789474,0,0.25,1.0,ReadingArea_rsl0-rcl11-esl29-rsm0-rcm25-esm310-rsr0-rcr25-esr100,exr/ReadingArea_rsl0-rcl11-esl29-rsm0-rcm25-esm310-rsr0-rcr25-esr100.exr,ReadingArea_rsl0-rcl11-esl29-rsm0-rcm25-esm310-rsr0-rcr25-esr100.npz,,,,,0,154,154,108,,right,red,2.06,692.6986770629883,693.1694140434265,,,3,5,3,lightness,readingArea,gauss,75,2023-03-14_09h24.39.869,tripletExp_regina_11082022,2022.2.4,120.1665133895445,
0,14,8,0,0.027777777777778,0.298245614035088,0,0.25,3.10526315789474,0,0.25,1.0,ReadingArea_rsl0-rcl2-esl29-rsm0-rcm25-esm310-rsr0-rcr25-esr100,exr/ReadingArea_rsl0-rcl2-esl29-rsm0-rcm25-esm310-rsr0-rcr25-esr100.exr,ReadingArea_rsl0-rcl2-esl29-rsm0-rcm25-esm310-rsr0-rcr25-esr100.npz,,,,,0,155,155,545,,right,red,1.97,696.6653709411621,697.1961951255798,,,3,5,3,lightness,readingArea,gauss,75,2023-03-14_09h24.39.869,tripletExp_regina_11082022,2022.2.4,120.1665133895445,
9,3,0,0,0.444444444444444,1.0,0,0.444444444444444,0.298245614035088,0,0.027777777777778,0.298245614035088,ReadingArea_rsl0-rcl44-esl100-rsm0-rcm44-esm29-rsr0-rcr2-esr29,exr/ReadingArea_rsl0-rcl44-esl100-rsm0-rcm44-esm29-rsr0-rcr2-esr29.exr,ReadingArea_rsl0-rcl44-esl100-rsm0-rcm44-esm29-rsr0-rcr2-esr29.npz,,,,,0,156,156,120,,right,red,2.27,700.686047077179,,,,3,5,3,lightness,readingArea,gauss,75,2023-03-14_09h24.39.869,tripletExp_regina_11082022,2022.2.4,120.1665133895445,
6,10,8,0,0.027777777777778,1.0,0,0.694444444444444,1.0,0,0.25,1.0,ReadingArea_rsl0-rcl2-esl100-rsm0-rcm69-esm100-rsr0-rcr25-esr100,exr/ReadingArea_rsl0-rcl2-esl100-rsm0-rcm69-esm100-rsr0-rcr25-esr100.exr,ReadingArea_rsl0-rcl2-esl100-rsm0-rcm69-esm100-rsr0-rcr25-esr100.npz,,,,,0,157,157,167,,right,red,2.03,704.6084220409393,705.0813910961151,,,3,5,3,lightness,readingArea,gauss,75,2023-03-14_09h24.39.869,tripletExp_regina_11082022,2022.2.4,120.1665133895445,
13,3,5,0,0.111111111111111,3.10526315789474,0,0.444444444444444,0.298245614035088,0,1.0,0.298245614035088,ReadingArea_rsl0-rcl11-esl310-rsm0-rcm44-esm29-rsr0-rcr100-esr29,exr/ReadingArea_rsl0-rcl11-esl310-rsm0-rcm44-esm29-rsr0-rcr100-esr29.exr,ReadingArea_rsl0-rcl11-esl310-rsm0-rcm44-esm29-rsr0-rcr100-esr29.npz,,,,,0,158,158,398,,left,green,1.18,706.7722799777985,707.2190659046173,,,3,5,3,lightness,readingArea,gauss,75,2023-03-14_09h24.39.869,tripletExp_regina_11082022,2022.2.4,120.1665133895445,
4,13,2,0,0.694444444444444,0.298245614035088,0,0.111111111111111,3.10526315789474,0,0.25,0.298245614035088,ReadingArea_rsl0-rcl69-esl29-rsm0-rcm11-esm310-rsr0-rcr25-esr29,exr/ReadingArea_rsl0-rcl69-esl29-rsm0-rcm11-esm310-rsr0-rcr25-esr29.exr,ReadingArea_rsl0-rcl69-esl29-rsm0-rcm11-esm310-rsr0-rcr25-esr29.npz,,,,,0,159,159,592,,left,green,2.49,710.6865990161896,711.1169500350952,,,3,5,3,lightness,readingArea,gauss,75,2023-03-14_09h24.39.869,tripletExp_regina_11082022,2022.2.4,120.1665133895445,
3,0,2,0,0.444444444444444,0.298245614035088,0,0.027777777777778,0.298245614035088,0,0.25,0.298245614035088,ReadingArea_rsl0-rcl44-esl29-rsm0-rcm2-esm29-rsr0-rcr25-esr29,exr/ReadingArea_rsl0-rcl44-esl29-rsm0-rcm2-esm29-rsr0-rcr25-esr29.exr,ReadingArea_rsl0-rcl44-esl29-rsm0-rcm2-esm29-rsr0-rcr25-esr29.npz,,,,,0,160,160,334,,right,red,2.25,714.595871925354,715.2088611125946,,,3,5,3,lightness,readingArea,gauss,75,2023-03-14_09h24.39.869,tripletExp_regina_11082022,2022.2.4,120.1665133895445,
5,8,7,0,1.0,0.298245614035088,0,0.25,1.0,0,0.111111111111111,1.0,ReadingArea_rsl0-rcl100-esl29-rsm0-rcm25-esm100-rsr0-rcr11-esr100,exr/ReadingArea_rsl0-rcl100-esl29-rsm0-rcm25-esm100-rsr0-rcr11-esr100.exr,ReadingArea_rsl0-rcl100-esl29-rsm0-rcm25-esm100-rsr0-rcr11-esr100.npz,,,,,0,161,161,36,,right,red,1.39,716.9189229011536,717.3599419593811,,,3,5,3,lightness,readingArea,gauss,75,2023-03-14_09h24.39.869,tripletExp_regina_11082022,2022.2.4,120.1665133895445,
4,8,11,0,0.694444444444444,0.298245614035088,0,0.25,1.0,0,1.0,1.0,ReadingArea_rsl0-rcl69-esl29-rsm0-rcm25-esm100-rsr0-rcr100-esr100,exr/ReadingArea_rsl0-rcl69-esl29-rsm0-rcm25-esm100-rsr0-rcr100-esr100.exr,ReadingArea_rsl0-rcl69-esl29-rsm0-rcm25-esm100-rsr0-rcr100-esr100.npz,,,,,0,162,162,403,,left,green,1.36,719.0753419399261,719.7803800106049,,,3,5,3,lightness,readingArea,gauss,75,2023-03-14_09h24.39.869,tripletExp_regina_11082022,2022.2.4,120.1665133895445,
13,10,3,0,0.111111111111111,3.10526315789474,0,0.694444444444444,1.0,0,0.444444444444444,0.298245614035088,ReadingArea_rsl0-rcl11-esl310-rsm0-rcm69-esm100-rsr0-rcr44-esr29,exr/ReadingArea_rsl0-rcl11-esl310-rsm0-rcm69-esm100-rsr0-rcr44-esr29.exr,ReadingArea_rsl0-rcl11-esl310-rsm0-rcm69-esm100-rsr0-rcr44-esr29.npz,,,,,0,163,163,224,,left,green,2.74,723.2625730037689,723.714702129364,,,3,5,3,lightness,readingArea,gauss,75,2023-03-14_09h24.39.869,tripletExp_regina_11082022,2022.2.4,120.1665133895445,
0,4,12,0,0.027777777777778,0.298245614035088,0,0.694444444444444,0.298245614035088,0,0.027777777777778,3.10526315789474,ReadingArea_rsl0-rcl2-esl29-rsm0-rcm69-esm29-rsr0-rcr2-esr310,exr/ReadingArea_rsl0-rcl2-esl29-rsm0-rcm69-esm29-rsr0-rcr2-esr310.exr,ReadingArea_rsl0-rcl2-esl29-rsm0-rcm69-esm29-rsr0-rcr2-esr310.npz,,,,,0,164,164,150,,right,red,2.46,727.2068951129913,727.6508209705353,,,3,5,3,lightness,readingArea,gauss,75,2023-03-14_09h24.39.869,tripletExp_regina_11082022,2022.2.4,120.1665133895445,
6,0,10,0,0.027777777777778,1.0,0,0.027777777777778,0.298245614035088,0,0.694444444444444,1.0,ReadingArea_rsl0-rcl2-esl100-rsm0-rcm2-esm29-rsr0-rcr69-esr100,exr/ReadingArea_rsl0-rcl2-esl100-rsm0-rcm2-esm29-rsr0-rcr69-esr100.exr,ReadingArea_rsl0-rcl2-esl100-rsm0-rcm2-esm29-rsr0-rcr69-esr100.npz,,,,,0,165,165,532,,left,green,1.33,729.3505439758301,729.8005950450897,,,3,5,3,lightness,readingArea,gauss,75,2023-03-14_09h24.39.869,tripletExp_regina_11082022,2022.2.4,120.1665133895445,
14,8,2,0,0.25,3.10526315789474,0,0.25,1.0,0,0.25,0.298245614035088,ReadingArea_rsl0-rcl25-esl310-rsm0-rcm25-esm100-rsr0-rcr25-esr29,exr/ReadingArea_rsl0-rcl25-esl310-rsm0-rcm25-esm100-rsr0-rcr25-esr29.exr,ReadingArea_rsl0-rcl25-esl310-rsm0-rcm25-esm100-rsr0-rcr25-esr29.npz,,,,,0,166,166,251,,right,red,2.55,733.3017840385437,733.7540640830994,,,3,5,3,lightness,readingArea,gauss,75,2023-03-14_09h24.39.869,tripletExp_regina_11082022,2022.2.4,120.1665133895445,
14,8,9,0,0.25,3.10526315789474,0,0.25,1.0,0,0.444444444444444,1.0,ReadingArea_rsl0-rcl25-esl310-rsm0-rcm25-esm100-rsr0-rcr44-esr100,exr/ReadingArea_rsl0-rcl25-esl310-rsm0-rcm25-esm100-rsr0-rcr44-esr100.exr,ReadingArea_rsl0-rcl25-esl310-rsm0-rcm25-esm100-rsr0-rcr44-esr100.npz,,,,,0,167,167,518,,right,red,2.89,737.23464012146,737.7006769180298,,,3,5,3,lightness,readingArea,gauss,75,2023-03-14_09h24.39.869,tripletExp_regina_11082022,2022.2.4,120.1665133895445,
2,3,9,0,0.25,0.298245614035088,0,0.444444444444444,0.298245614035088,0,0.444444444444444,1.0,ReadingArea_rsl0-rcl25-esl29-rsm0-rcm44-esm29-rsr0-rcr44-esr100,exr/ReadingArea_rsl0-rcl25-esl29-rsm0-rcm44-esm29-rsr0-rcr44-esr100.exr,ReadingArea_rsl0-rcl25-esl29-rsm0-rcm44-esm29-rsr0-rcr44-esr100.npz,,,,,0,168,168,190,,left,green,1.06,739.3934690952301,739.8517119884491,,,3,5,3,lightness,readingArea,gauss,75,2023-03-14_09h24.39.869,tripletExp_regina_11082022,2022.2.4,120.1665133895445,
2,12,6,0,0.25,0.298245614035088,0,0.027777777777778,3.10526315789474,0,0.027777777777778,1.0,ReadingArea_rsl0-rcl25-esl29-rsm0-rcm2-esm310-rsr0-rcr2-esr100,exr/ReadingArea_rsl0-rcl25-esl29-rsm0-rcm2-esm310-rsr0-rcr2-esr100.exr,ReadingArea_rsl0-rcl25-esl29-rsm0-rcm2-esm310-rsr0-rcr2-esr100.npz,,,,,0,169,169,400,,left,green,1.05,741.5411291122437,741.9882819652557,,,3,5,3,lightness,readingArea,gauss,75,2023-03-14_09h24.39.869,tripletExp_regina_11082022,2022.2.4,120.1665133895445,
12,9,2,0,0.027777777777778,3.10526315789474,0,0.444444444444444,1.0,0,0.25,0.298245614035088,ReadingArea_rsl0-rcl2-esl310-rsm0-rcm44-esm100-rsr0-rcr25-esr29,exr/ReadingArea_rsl0-rcl2-esl310-rsm0-rcm44-esm100-rsr0-rcr25-esr29.exr,ReadingArea_rsl0-rcl2-esl310-rsm0-rcm44-esm100-rsr0-rcr25-esr29.npz,,,,,0,170,170,226,,right,red,2.46,745.478758096695,746.1353681087494,,,3,5,3,lightness,readingArea,gauss,75,2023-03-14_09h24.39.869,tripletExp_regina_11082022,2022.2.4,120.1665133895445,
4,8,14,0,0.694444444444444,0.298245614035088,0,0.25,1.0,0,0.25,3.10526315789474,ReadingArea_rsl0-rcl69-esl29-rsm0-rcm25-esm100-rsr0-rcr25-esr310,exr/ReadingArea_rsl0-rcl69-esl29-rsm0-rcm25-esm100-rsr0-rcr25-esr310.exr,ReadingArea_rsl0-rcl69-esl29-rsm0-rcm25-esm100-rsr0-rcr25-esr310.npz,,,,,0,171,171,234,,left,green,1.63,747.8501861095428,748.2847979068756,,,3,5,3,lightness,readingArea,gauss,75,2023-03-14_09h24.39.869,tripletExp_regina_11082022,2022.2.4,120.1665133895445,
4,2,5,0,0.694444444444444,0.298245614035088,0,0.25,0.298245614035088,0,1.0,0.298245614035088,ReadingArea_rsl0-rcl69-esl29-rsm0-rcm25-esm29-rsr0-rcr100-esr29,exr/ReadingArea_rsl0-rcl69-esl29-rsm0-rcm25-esm29-rsr0-rcr100-esr29.exr,ReadingArea_rsl0-rcl69-esl29-rsm0-rcm25-esm29-rsr0-rcr100-esr29.npz,,,,,0,172,172,101,,left,green,1.61,749.9899599552155,750.4056649208069,,,3,5,3,lightness,readingArea,gauss,75,2023-03-14_09h24.39.869,tripletExp_regina_11082022,2022.2.4,120.1665133895445,
4,12,6,0,0.694444444444444,0.298245614035088,0,0.027777777777778,3.10526315789474,0,0.027777777777778,1.0,ReadingArea_rsl0-rcl69-esl29-rsm0-rcm2-esm310-rsr0-rcr2-esr100,exr/ReadingArea_rsl0-rcl69-esl29-rsm0-rcm2-esm310-rsr0-rcr2-esr100.exr,ReadingArea_rsl0-rcl69-esl29-rsm0-rcm2-esm310-rsr0-rcr2-esr100.npz,,,,,0,173,173,99,,right,red,0.84,752.1135540008545,752.5594530105591,,,3,5,3,lightness,readingArea,gauss,75,2023-03-14_09h24.39.869,tripletExp_regina_11082022,2022.2.4,120.1665133895445,
10,4,8,0,0.694444444444444,1.0,0,0.694444444444444,0.298245614035088,0,0.25,1.0,ReadingArea_rsl0-rcl69-esl100-rsm0-rcm69-esm29-rsr0-rcr25-esr100,exr/ReadingArea_rsl0-rcl69-esl100-rsm0-rcm69-esm29-rsr0-rcr25-esr100.exr,ReadingArea_rsl0-rcl69-esl100-rsm0-rcm69-esm29-rsr0-rcr25-esr100.npz,,,,,0,174,174,562,,right,red,0.94,754.2640280723572,754.7095520496368,,,3,5,3,lightness,readingArea,gauss,75,2023-03-14_09h24.39.869,tripletExp_regina_11082022,2022.2.4,120.1665133895445,
7,14,10,0,0.111111111111111,1.0,0,0.25,3.10526315789474,0,0.694444444444444,1.0,ReadingArea_rsl0-rcl11-esl100-rsm0-rcm25-esm310-rsr0-rcr69-esr100,exr/ReadingArea_rsl0-rcl11-esl100-rsm0-rcm25-esm310-rsr0-rcr69-esr100.exr,ReadingArea_rsl0-rcl11-esl100-rsm0-rcm25-esm310-rsr0-rcr69-esr100.npz,,,,,0,175,175,472,,right,red,2.38,758.1845679283142,758.6528189182281,,,3,5,3,lightness,readingArea,gauss,75,2023-03-14_09h24.39.869,tripletExp_regina_11082022,2022.2.4,120.1665133895445,
6,13,5,0,0.027777777777778,1.0,0,0.111111111111111,3.10526315789474,0,1.0,0.298245614035088,ReadingArea_rsl0-rcl2-esl100-rsm0-rcm11-esm310-rsr0-rcr100-esr29,exr/ReadingArea_rsl0-rcl2-esl100-rsm0-rcm11-esm310-rsr0-rcr100-esr29.exr,ReadingArea_rsl0-rcl2-esl100-rsm0-rcm11-esm310-rsr0-rcr100-esr29.npz,,,,,0,176,176,53,,right,red,1.04,760.3612389564514,760.8525741100311,,,3,5,3,lightness,readingArea,gauss,75,2023-03-14_09h24.39.869,tripletExp_regina_11082022,2022.2.4,120.1665133895445,
6,11,3,0,0.027777777777778,1.0,0,1.0,1.0,0,0.444444444444444,0.298245614035088,ReadingArea_rsl0-rcl2-esl100-rsm0-rcm100-esm100-rsr0-rcr44-esr29,exr/ReadingArea_rsl0-rcl2-esl100-rsm0-rcm100-esm100-rsr0-rcr44-esr29.exr,ReadingArea_rsl0-rcl2-esl100-rsm0-rcm100-esm100-rsr0-rcr44-esr29.npz,,,,,0,177,177,11,,right,red,2.23,764.3561758995056,764.8367609977722,,,3,5,3,lightness,readingArea,gauss,75,2023-03-14_09h24.39.869,tripletExp_regina_11082022,2022.2.4,120.1665133895445,
3,2,8,0,0.444444444444444,0.298245614035088,0,0.25,0.298245614035088,0,0.25,1.0,ReadingArea_rsl0-rcl44-esl29-rsm0-rcm25-esm29-rsr0-rcr25-esr100,exr/ReadingArea_rsl0-rcl44-esl29-rsm0-rcm25-esm29-rsr0-rcr25-esr100.exr,ReadingArea_rsl0-rcl44-esl29-rsm0-rcm25-esm29-rsr0-rcr25-esr100.npz,,,,,0,178,178,181,,left,green,2.44,768.3217859268188,,,,3,5,3,lightness,readingArea,gauss,75,2023-03-14_09h24.39.869,tripletExp_regina_11082022,2022.2.4,120.1665133895445,
9,2,12,0,0.444444444444444,1.0,0,0.25,0.298245614035088,0,0.027777777777778,3.10526315789474,ReadingArea_rsl0-rcl44-esl100-rsm0-rcm25-esm29-rsr0-rcr2-esr310,exr/ReadingArea_rsl0-rcl44-esl100-rsm0-rcm25-esm29-rsr0-rcr2-esr310.exr,ReadingArea_rsl0-rcl44-esl100-rsm0-rcm25-esm29-rsr0-rcr2-esr310.npz,,,,,0,179,179,391,,right,red,2.35,772.2606010437012,772.7150521278381,,,3,5,3,lightness,readingArea,gauss,75,2023-03-14_09h24.39.869,tripletExp_regina_11082022,2022.2.4,120.1665133895445,
10,5,4,0,0.694444444444444,1.0,0,1.0,0.298245614035088,0,0.694444444444444,0.298245614035088,ReadingArea_rsl0-rcl69-esl100-rsm0-rcm100-esm29-rsr0-rcr69-esr29,exr/ReadingArea_rsl0-rcl69-esl100-rsm0-rcm100-esm29-rsr0-rcr69-esr29.exr,ReadingArea_rsl0-rcl69-esl100-rsm0-rcm100-esm29-rsr0-rcr69-esr29.npz,,,,,0,180,180,455,,right,red,2.61,776.1685678958893,776.6119139194489,,,3,5,3,lightness,readingArea,gauss,75,2023-03-14_09h24.39.869,tripletExp_regina_11082022,2022.2.4,120.1665133895445,
5,2,7,0,1.0,0.298245614035088,0,0.25,0.298245614035088,0,0.111111111111111,1.0,ReadingArea_rsl0-rcl100-esl29-rsm0-rcm25-esm29-rsr0-rcr11-esr100,exr/ReadingArea_rsl0-rcl100-esl29-rsm0-rcm25-esm29-rsr0-rcr11-esr100.exr,ReadingArea_rsl0-rcl100-esl29-rsm0-rcm25-esm29-rsr0-rcr11-esr100.npz,,,,,0,181,181,179,,right,red,2.38,780.0881850719452,780.5730900764465,,,3,5,3,lightness,readingArea,gauss,75,2023-03-14_09h24.39.869,tripletExp_regina_11082022,2022.2.4,120.1665133895445,
12,0,2,0,0.027777777777778,3.10526315789474,0,0.027777777777778,0.298245614035088,0,0.25,0.298245614035088,ReadingArea_rsl0-rcl2-esl310-rsm0-rcm2-esm29-rsr0-rcr25-esr29,exr/ReadingArea_rsl0-rcl2-esl310-rsm0-rcm2-esm29-rsr0-rcr25-esr29.exr,ReadingArea_rsl0-rcl2-esl310-rsm0-rcm2-esm29-rsr0-rcr25-esr29.npz,,,,,0,182,182,77,,left,green,2.8,784.0618040561676,784.4997169971466,,,3,5,3,lightness,readingArea,gauss,75,2023-03-14_09h24.39.869,tripletExp_regina_11082022,2022.2.4,120.1665133895445,
2,4,13,0,0.25,0.298245614035088,0,0.694444444444444,0.298245614035088,0,0.111111111111111,3.10526315789474,ReadingArea_rsl0-rcl25-esl29-rsm0-rcm69-esm29-rsr0-rcr11-esr310,exr/ReadingArea_rsl0-rcl25-esl29-rsm0-rcm69-esm29-rsr0-rcr11-esr310.exr,ReadingArea_rsl0-rcl25-esl29-rsm0-rcm69-esm29-rsr0-rcr11-esr310.npz,,,,,0,183,183,325,,right,red,2.09,787.9691090583801,788.4421179294586,,,3,5,3,lightness,readingArea,gauss,75,2023-03-14_09h24.39.869,tripletExp_regina_11082022,2022.2.4,120.1665133895445,
14,4,8,0,0.25,3.10526315789474,0,0.694444444444444,0.298245614035088,0,0.25,1.0,ReadingArea_rsl0-rcl25-esl310-rsm0-rcm69-esm29-rsr0-rcr25-esr100,exr/ReadingArea_rsl0-rcl25-esl310-rsm0-rcm69-esm29-rsr0-rcr25-esr100.exr,ReadingArea_rsl0-rcl25-esl310-rsm0-rcm69-esm29-rsr0-rcr25-esr100.npz,,,,,0,184,184,253,,right,red,3.5,791.9080319404602,792.348867893219,,,3,5,3,lightness,readingArea,gauss,75,2023-03-14_09h24.39.869,tripletExp_regina_11082022,2022.2.4,120.1665133895445,
3,6,5,0,0.444444444444444,0.298245614035088,0,0.027777777777778,1.0,0,1.0,0.298245614035088,ReadingArea_rsl0-rcl44-esl29-rsm0-rcm2-esm100-rsr0-rcr100-esr29,exr/ReadingArea_rsl0-rcl44-esl29-rsm0-rcm2-esm100-rsr0-rcr100-esr29.exr,ReadingArea_rsl0-rcl44-esl29-rsm0-rcm2-esm100-rsr0-rcr100-esr29.npz,,,,,0,185,185,274,,left,green,2.34,795.826003074646,,,,3,5,3,lightness,readingArea,gauss,75,2023-03-14_09h24.39.869,tripletExp_regina_11082022,2022.2.4,120.1665133895445,
9,11,2,0,0.444444444444444,1.0,0,1.0,1.0,0,0.25,0.298245614035088,ReadingArea_rsl0-rcl44-esl100-rsm0-rcm100-esm100-rsr0-rcr25-esr29,exr/ReadingArea_rsl0-rcl44-esl100-rsm0-rcm100-esm100-rsr0-rcr25-esr29.exr,ReadingArea_rsl0-rcl44-esl100-rsm0-rcm100-esm100-rsr0-rcr25-esr29.npz,,,,,0,186,186,329,,left,green,1.02,797.9774920940399,798.4255759716034,,,3,5,3,lightness,readingArea,gauss,75,2023-03-14_09h24.39.869,tripletExp_regina_11082022,2022.2.4,120.1665133895445,
11,5,8,0,1.0,1.0,0,1.0,0.298245614035088,0,0.25,1.0,ReadingArea_rsl0-rcl100-esl100-rsm0-rcm100-esm29-rsr0-rcr25-esr100,exr/ReadingArea_rsl0-rcl100-esl100-rsm0-rcm100-esm29-rsr0-rcr25-esr100.exr,ReadingArea_rsl0-rcl100-esl100-rsm0-rcm100-esm29-rsr0-rcr25-esr100.npz,,,,,0,187,187,86,,right,red,1.38,800.1443340778351,800.5719730854034,,,3,5,3,lightness,readingArea,gauss,75,2023-03-14_09h24.39.869,tripletExp_regina_11082022,2022.2.4,120.1665133895445,
2,11,14,0,0.25,0.298245614035088,0,1.0,1.0,0,0.25,3.10526315789474,ReadingArea_rsl0-rcl25-esl29-rsm0-rcm100-esm100-rsr0-rcr25-esr310,exr/ReadingArea_rsl0-rcl25-esl29-rsm0-rcm100-esm100-rsr0-rcr25-esr310.exr,ReadingArea_rsl0-rcl25-esl29-rsm0-rcm100-esm100-rsr0-rcr25-esr310.npz,,,,,0,188,188,534,,right,red,0.98,802.2748889923096,802.7829999923706,,,3,5,3,lightness,readingArea,gauss,75,2023-03-14_09h24.39.869,tripletExp_regina_11082022,2022.2.4,120.1665133895445,
9,0,3,0,0.444444444444444,1.0,0,0.027777777777778,0.298245614035088,0,0.444444444444444,0.298245614035088,ReadingArea_rsl0-rcl44-esl100-rsm0-rcm2-esm29-rsr0-rcr44-esr29,exr/ReadingArea_rsl0-rcl44-esl100-rsm0-rcm2-esm29-rsr0-rcr44-esr29.exr,ReadingArea_rsl0-rcl44-esl100-rsm0-rcm2-esm29-rsr0-rcr44-esr29.npz,,,,,0,189,189,2,,right,red,3.1,806.2562930583954,806.7105579376221,,,3,5,3,lightness,readingArea,gauss,75,2023-03-14_09h24.39.869,tripletExp_regina_11082022,2022.2.4,120.1665133895445,
14,2,0,0,0.25,3.10526315789474,0,0.25,0.298245614035088,0,0.027777777777778,0.298245614035088,ReadingArea_rsl0-rcl25-esl310-rsm0-rcm25-esm29-rsr0-rcr2-esr29,exr/ReadingArea_rsl0-rcl25-esl310-rsm0-rcm25-esm29-rsr0-rcr2-esr29.exr,ReadingArea_rsl0-rcl25-esl310-rsm0-rcm25-esm29-rsr0-rcr2-esr29.npz,,,,,0,190,190,460,,left,green,1.35,808.4310069084167,809.0642459392548,,,3,5,3,lightness,readingArea,gauss,75,2023-03-14_09h24.39.869,tripletExp_regina_11082022,2022.2.4,120.1665133895445,
13,6,12,0,0.111111111111111,3.10526315789474,0,0.027777777777778,1.0,0,0.027777777777778,3.10526315789474,ReadingArea_rsl0-rcl11-esl310-rsm0-rcm2-esm100-rsr0-rcr2-esr310,exr/ReadingArea_rsl0-rcl11-esl310-rsm0-rcm2-esm100-rsr0-rcr2-esr310.exr,ReadingArea_rsl0-rcl11-esl310-rsm0-rcm2-esm100-rsr0-rcr2-esr310.npz,,,,,0,191,191,147,,right,red,2.52,812.5122001171112,,,,3,5,3,lightness,readingArea,gauss,75,2023-03-14_09h24.39.869,tripletExp_regina_11082022,2022.2.4,120.1665133895445,
1,11,12,0,0.111111111111111,0.298245614035088,0,1.0,1.0,0,0.027777777777778,3.10526315789474,ReadingArea_rsl0-rcl11-esl29-rsm0-rcm100-esm100-rsr0-rcr2-esr310,exr/ReadingArea_rsl0-rcl11-esl29-rsm0-rcm100-esm100-rsr0-rcr2-esr310.exr,ReadingArea_rsl0-rcl11-esl29-rsm0-rcm100-esm100-rsr0-rcr2-esr310.npz,,,,,0,192,192,288,,right,red,2.49,816.4731419086456,816.9132149219513,,,3,5,3,lightness,readingArea,gauss,75,2023-03-14_09h24.39.869,tripletExp_regina_11082022,2022.2.4,120.1665133895445,
3,11,2,0,0.444444444444444,0.298245614035088,0,1.0,1.0,0,0.25,0.298245614035088,ReadingArea_rsl0-rcl44-esl29-rsm0-rcm100-esm100-rsr0-rcr25-esr29,exr/ReadingArea_rsl0-rcl44-esl29-rsm0-rcm100-esm100-rsr0-rcr25-esr29.exr,ReadingArea_rsl0-rcl44-esl29-rsm0-rcm100-esm100-rsr0-rcr25-esr29.npz,,,,,0,193,193,220,,left,green,1.5,818.6319510936737,819.1391770839691,,,3,5,3,lightness,readingArea,gauss,75,2023-03-14_09h24.39.869,tripletExp_regina_11082022,2022.2.4,120.1665133895445,
11,2,8,0,1.0,1.0,0,0.25,0.298245614035088,0,0.25,1.0,ReadingArea_rsl0-rcl100-esl100-rsm0-rcm25-esm29-rsr0-rcr25-esr100,exr/ReadingArea_rsl0-rcl100-esl100-rsm0-rcm25-esm29-rsr0-rcr25-esr100.exr,ReadingArea_rsl0-rcl100-esl100-rsm0-rcm25-esm29-rsr0-rcr25-esr100.npz,,,,,0,194,194,214,,right,red,1.21,820.8557090759277,821.3160541057587,,,3,5,3,lightness,readingArea,gauss,75,2023-03-14_09h24.39.869,tripletExp_regina_11082022,2022.2.4,120.1665133895445,
1,14,5,0,0.111111111111111,0.298245614035088,0,0.25,3.10526315789474,0,1.0,0.298245614035088,ReadingArea_rsl0-rcl11-esl29-rsm0-rcm25-esm310-rsr0-rcr100-esr29,exr/ReadingArea_rsl0-rcl11-esl29-rsm0-rcm25-esm310-rsr0-rcr100-esr29.exr,ReadingArea_rsl0-rcl11-esl29-rsm0-rcm25-esm310-rsr0-rcr100-esr29.npz,,,,,0,195,195,509,,right,red,1.01,823.0374441146851,823.4718399047852,,,3,5,3,lightness,readingArea,gauss,75,2023-03-14_09h24.39.869,tripletExp_regina_11082022,2022.2.4,120.1665133895445,
3,11,14,0,0.444444444444444,0.298245614035088,0,1.0,1.0,0,0.25,3.10526315789474,ReadingArea_rsl0-rcl44-esl29-rsm0-rcm100-esm100-rsr0-rcr25-esr310,exr/ReadingArea_rsl0-rcl44-esl29-rsm0-rcm100-esm100-rsr0-rcr25-esr310.exr,ReadingArea_rsl0-rcl44-esl29-rsm0-rcm100-esm100-rsr0-rcr25-esr310.npz,,,,,0,196,196,570,,left,green,1.39,825.1800229549408,825.6301100254059,,,3,5,3,lightness,readingArea,gauss,75,2023-03-14_09h24.39.869,tripletExp_regina_11082022,2022.2.4,120.1665133895445,
10,2,0,0,0.694444444444444,1.0,0,0.25,0.298245614035088,0,0.027777777777778,0.298245614035088,ReadingArea_rsl0-rcl69-esl100-rsm0-rcm25-esm29-rsr0-rcr2-esr29,exr/ReadingArea_rsl0-rcl69-esl100-rsm0-rcm25-esm29-rsr0-rcr2-esr29.exr,ReadingArea_rsl0-rcl69-esl100-rsm0-rcm25-esm29-rsr0-rcr2-esr29.npz,,,,,0,197,197,427,,right,red,1.53,827.3493759632111,827.7859420776367,,,3,5,3,lightness,readingArea,gauss,75,2023-03-14_09h24.39.869,tripletExp_regina_11082022,2022.2.4,120.1665133895445,
10,4,9,0,0.694444444444444,1.0,0,0.694444444444444,0.298245614035088,0,0.444444444444444,1.0,ReadingArea_rsl0-rcl69-esl100-rsm0-rcm69-esm29-rsr0-rcr44-esr100,exr/ReadingArea_rsl0-rcl69-esl100-rsm0-rcm69-esm29-rsr0-rcr44-esr100.exr,ReadingArea_rsl0-rcl69-esl100-rsm0-rcm69-esm29-rsr0-rcr44-esr100.npz,,,,,0,198,198,452,,right,red,2.14,831.2578089237213,831.7118380069733,,,3,5,3,lightness,readingArea,gauss,75,2023-03-14_09h24.39.869,tripletExp_regina_11082022,2022.2.4,120.1665133895445,
2,3,4,0,0.25,0.298245614035088,0,0.444444444444444,0.298245614035088,0,0.694444444444444,0.298245614035088,ReadingArea_rsl0-rcl25-esl29-rsm0-rcm44-esm29-rsr0-rcr69-esr29,exr/ReadingArea_rsl0-rcl25-esl29-rsm0-rcm44-esm29-rsr0-rcr69-esr29.exr,ReadingArea_rsl0-rcl25-esl29-rsm0-rcm44-esm29-rsr0-rcr69-esr29.npz,,,,,0,199,199,61,,left,green,0.85,833.4314050674438,833.8609421253204,,,3,5,3,lightness,readingArea,gauss,75,2023-03-14_09h24.39.869,tripletExp_regina_11082022,2022.2.4,120.1665133895445,
8,13,3,0,0.25,1.0,0,0.111111111111111,3.10526315789474,0,0.444444444444444,0.298245614035088,ReadingArea_rsl0-rcl25-esl100-rsm0-rcm11-esm310-rsr0-rcr44-esr29,exr/ReadingArea_rsl0-rcl25-esl100-rsm0-rcm11-esm310-rsr0-rcr44-esr29.exr,ReadingArea_rsl0-rcl25-esl100-rsm0-rcm11-esm310-rsr0-rcr44-esr29.npz,,,,,0,200,200,553,,left,green,2.52,837.3621311187744,837.8078610897064,,,3,5,3,lightness,readingArea,gauss,75,2023-03-14_09h24.39.869,tripletExp_regina_11082022,2022.2.4,120.1665133895445,
12,3,11,0,0.027777777777778,3.10526315789474,0,0.444444444444444,0.298245614035088,0,1.0,1.0,ReadingArea_rsl0-rcl2-esl310-rsm0-rcm44-esm29-rsr0-rcr100-esr100,exr/ReadingArea_rsl0-rcl2-esl310-rsm0-rcm44-esm29-rsr0-rcr100-esr100.exr,ReadingArea_rsl0-rcl2-esl310-rsm0-rcm44-esm29-rsr0-rcr100-esr100.npz,,,,,0,201,201,83,,left,green,0.99,839.496876001358,840.0369091033936,,,3,5,3,lightness,readingArea,gauss,75,2023-03-14_09h24.39.869,tripletExp_regina_11082022,2022.2.4,120.1665133895445,
0,1,6,0,0.027777777777778,0.298245614035088,0,0.111111111111111,0.298245614035088,0,0.027777777777778,1.0,ReadingArea_rsl0-rcl2-esl29-rsm0-rcm11-esm29-rsr0-rcr2-esr100,exr/ReadingArea_rsl0-rcl2-esl29-rsm0-rcm11-esm29-rsr0-rcr2-esr100.exr,ReadingArea_rsl0-rcl2-esl29-rsm0-rcm11-esm29-rsr0-rcr2-esr100.npz,,,,,0,202,202,375,,right,red,1.01,841.7313520908356,842.1848919391632,,,3,5,3,lightness,readingArea,gauss,75,2023-03-14_09h24.39.869,tripletExp_regina_11082022,2022.2.4,120.1665133895445,
2,1,6,0,0.25,0.298245614035088,0,0.111111111111111,0.298245614035088,0,0.027777777777778,1.0,ReadingArea_rsl0-rcl25-esl29-rsm0-rcm11-esm29-rsr0-rcr2-esr100,exr/ReadingArea_rsl0-rcl25-esl29-rsm0-rcm11-esm29-rsr0-rcr2-esr100.exr,ReadingArea_rsl0-rcl25-esl29-rsm0-rcm11-esm29-rsr0-rcr2-esr100.npz,,,,,0,203,203,171,,right,red,1.56,843.8839800357819,,,,3,5,3,lightness,readingArea,gauss,75,2023-03-14_09h24.39.869,tripletExp_regina_11082022,2022.2.4,120.1665133895445,
8,7,13,0,0.25,1.0,0,0.111111111111111,1.0,0,0.111111111111111,3.10526315789474,ReadingArea_rsl0-rcl25-esl100-rsm0-rcm11-esm100-rsr0-rcr11-esr310,exr/ReadingArea_rsl0-rcl25-esl100-rsm0-rcm11-esm100-rsr0-rcr11-esr310.exr,ReadingArea_rsl0-rcl25-esl100-rsm0-rcm11-esm100-rsr0-rcr11-esr310.npz,,,,,0,204,204,512,,right,red,2.17,847.802540063858,848.3033399581909,,,3,5,3,lightness,readingArea,gauss,75,2023-03-14_09h24.39.869,tripletExp_regina_11082022,2022.2.4,120.1665133895445,
6,0,11,0,0.027777777777778,1.0,0,0.027777777777778,0.298245614035088,0,1.0,1.0,ReadingArea_rsl0-rcl2-esl100-rsm0-rcm2-esm29-rsr0-rcr100-esr100,exr/ReadingArea_rsl0-rcl2-esl100-rsm0-rcm2-esm29-rsr0-rcr100-esr100.exr,ReadingArea_rsl0-rcl2-esl100-rsm0-rcm2-esm29-rsr0-rcr100-esr100.npz,,,,,0,205,205,245,,left,green,1.19,849.9919168949127,850.4768280982971,,,3,5,3,lightness,readingArea,gauss,75,2023-03-14_09h24.39.869,tripletExp_regina_11082022,2022.2.4,120.1665133895445,
