index_left,index_middle,index_right,reflectance_surround_left,reflectance_center_left,emission_spot_left,reflectance_surround_middle,reflectance_center_middle,emission_spot_middle,reflectance_surround_right,reflectance_center_right,emission_spot_right,ImageName,ImageExr,ImageNpy,trials_2.thisRepN,trials_2.thisTrialN,trials_2.thisN,trials_2.thisIndex,trials.thisRepN,trials.thisTrialN,trials.thisN,trials.thisIndex,sound_1.started,BB_Trial.resp,BB_Trial.color,BB_Trial.rt,text.started,text.stopped,block,participant,session,L/B,scene,condition,nTrialsPerBlock,date,expName,psychopyVersion,frameRate,Unnamed: 40
6,7,3,0,0.027777777777778,1.0,0,0.111111111111111,1.0,0,0.444444444444444,0.298245614035088,ReadingArea_rsl0-rcl2-esl100-rsm0-rcm11-esm100-rsr0-rcr44-esr29,exr/ReadingArea_rsl0-rcl2-esl100-rsm0-rcm11-esm100-rsr0-rcr44-esr29.exr,ReadingArea_rsl0-rcl2-esl100-rsm0-rcm11-esm100-rsr0-rcr44-esr29.npz,,,,,0,0,0,47,44.26683654785156,right,red,1.38,48.769490003585815,45.40018320083618,1,8,3,lightness,readingArea,realistic,75,2023-03-28_15h27.37.195,tripletExp_regina_11082022,2022.2.4,119.79789497736458,
12,3,11,0,0.027777777777778,3.10526315789474,0,0.444444444444444,0.298245614035088,0,1.0,1.0,ReadingArea_rsl0-rcl2-esl310-rsm0-rcm44-esm29-rsr0-rcr100-esr100,exr/ReadingArea_rsl0-rcl2-esl310-rsm0-rcm44-esm29-rsr0-rcr100-esr100.exr,ReadingArea_rsl0-rcl2-esl310-rsm0-rcm44-esm29-rsr0-rcr100-esr100.npz,,,,,0,1,1,83,,left,green,0.9,51.02071499824524,,1,8,3,lightness,readingArea,realistic,75,2023-03-28_15h27.37.195,tripletExp_regina_11082022,2022.2.4,119.79789497736458,
14,12,0,0,0.25,3.10526315789474,0,0.027777777777778,3.10526315789474,0,0.027777777777778,0.298245614035088,ReadingArea_rsl0-rcl25-esl310-rsm0-rcm2-esm310-rsr0-rcr2-esr29,exr/ReadingArea_rsl0-rcl25-esl310-rsm0-rcm2-esm310-rsr0-rcr2-esr29.exr,ReadingArea_rsl0-rcl25-esl310-rsm0-rcm2-esm310-rsr0-rcr2-esr29.npz,,,,,0,2,2,409,,right,red,0.74,53.29746317863464,53.78216099739075,1,8,3,lightness,readingArea,realistic,75,2023-03-28_15h27.37.195,tripletExp_regina_11082022,2022.2.4,119.79789497736458,
1,13,14,0,0.111111111111111,0.298245614035088,0,0.111111111111111,3.10526315789474,0,0.25,3.10526315789474,ReadingArea_rsl0-rcl11-esl29-rsm0-rcm11-esm310-rsr0-rcr25-esr310,exr/ReadingArea_rsl0-rcl11-esl29-rsm0-rcm11-esm310-rsr0-rcr25-esr310.exr,ReadingArea_rsl0-rcl11-esl29-rsm0-rcm11-esm310-rsr0-rcr25-esr310.npz,,,,,0,3,3,183,,right,red,1.67,55.4925479888916,56.06741714477539,1,8,3,lightness,readingArea,realistic,75,2023-03-28_15h27.37.195,tripletExp_regina_11082022,2022.2.4,119.79789497736458,
4,3,1,0,0.694444444444444,0.298245614035088,0,0.444444444444444,0.298245614035088,0,0.111111111111111,0.298245614035088,ReadingArea_rsl0-rcl69-esl29-rsm0-rcm44-esm29-rsr0-rcr11-esr29,exr/ReadingArea_rsl0-rcl69-esl29-rsm0-rcm44-esm29-rsr0-rcr11-esr29.exr,ReadingArea_rsl0-rcl69-esl29-rsm0-rcm44-esm29-rsr0-rcr11-esr29.npz,,,,,0,4,4,60,,left,green,3.07,59.55359315872192,,1,8,3,lightness,readingArea,realistic,75,2023-03-28_15h27.37.195,tripletExp_regina_11082022,2022.2.4,119.79789497736458,
10,14,1,0,0.694444444444444,1.0,0,0.25,3.10526315789474,0,0.111111111111111,0.298245614035088,ReadingArea_rsl0-rcl69-esl100-rsm0-rcm25-esm310-rsr0-rcr11-esr29,exr/ReadingArea_rsl0-rcl69-esl100-rsm0-rcm25-esm310-rsr0-rcr11-esr29.exr,ReadingArea_rsl0-rcl69-esl100-rsm0-rcm25-esm310-rsr0-rcr11-esr29.npz,,,,,0,5,5,544,,left,green,0.86,61.86635708808899,62.391677141189575,1,8,3,lightness,readingArea,realistic,75,2023-03-28_15h27.37.195,tripletExp_regina_11082022,2022.2.4,119.79789497736458,
3,5,7,0,0.444444444444444,0.298245614035088,0,1.0,0.298245614035088,0,0.111111111111111,1.0,ReadingArea_rsl0-rcl44-esl29-rsm0-rcm100-esm29-rsr0-rcr11-esr100,exr/ReadingArea_rsl0-rcl44-esl29-rsm0-rcm100-esm29-rsr0-rcr11-esr100.exr,ReadingArea_rsl0-rcl44-esl29-rsm0-rcm100-esm29-rsr0-rcr11-esr100.npz,,,,,0,6,6,474,,right,red,2.77,65.86888813972473,66.41918110847473,1,8,3,lightness,readingArea,realistic,75,2023-03-28_15h27.37.195,tripletExp_regina_11082022,2022.2.4,119.79789497736458,
3,0,4,0,0.444444444444444,0.298245614035088,0,0.027777777777778,0.298245614035088,0,0.694444444444444,0.298245614035088,ReadingArea_rsl0-rcl44-esl29-rsm0-rcm2-esm29-rsr0-rcr69-esr29,exr/ReadingArea_rsl0-rcl44-esl29-rsm0-rcm2-esm29-rsr0-rcr69-esr29.exr,ReadingArea_rsl0-rcl44-esl29-rsm0-rcm2-esm29-rsr0-rcr69-esr29.npz,,,,,0,7,7,111,,right,red,1.14,68.12198305130005,,1,8,3,lightness,readingArea,realistic,75,2023-03-28_15h27.37.195,tripletExp_regina_11082022,2022.2.4,119.79789497736458,
13,4,7,0,0.111111111111111,3.10526315789474,0,0.694444444444444,0.298245614035088,0,0.111111111111111,1.0,ReadingArea_rsl0-rcl11-esl310-rsm0-rcm69-esm29-rsr0-rcr11-esr100,exr/ReadingArea_rsl0-rcl11-esl310-rsm0-rcm69-esm29-rsr0-rcr11-esr100.exr,ReadingArea_rsl0-rcl11-esl310-rsm0-rcm69-esm29-rsr0-rcr11-esr100.npz,,,,,0,8,8,282,,left,green,2.83,72.18283200263977,72.79770517349243,1,8,3,lightness,readingArea,realistic,75,2023-03-28_15h27.37.195,tripletExp_regina_11082022,2022.2.4,119.79789497736458,
6,1,10,0,0.027777777777778,1.0,0,0.111111111111111,0.298245614035088,0,0.694444444444444,1.0,ReadingArea_rsl0-rcl2-esl100-rsm0-rcm11-esm29-rsr0-rcr69-esr100,exr/ReadingArea_rsl0-rcl2-esl100-rsm0-rcm11-esm29-rsr0-rcr69-esr100.exr,ReadingArea_rsl0-rcl2-esl100-rsm0-rcm11-esm29-rsr0-rcr69-esr100.npz,,,,,0,9,9,561,,left,green,1.06,74.50648617744446,,1,8,3,lightness,readingArea,realistic,75,2023-03-28_15h27.37.195,tripletExp_regina_11082022,2022.2.4,119.79789497736458,
10,7,2,0,0.694444444444444,1.0,0,0.111111111111111,1.0,0,0.25,0.298245614035088,ReadingArea_rsl0-rcl69-esl100-rsm0-rcm11-esm100-rsr0-rcr25-esr29,exr/ReadingArea_rsl0-rcl69-esl100-rsm0-rcm11-esm100-rsr0-rcr25-esr29.exr,ReadingArea_rsl0-rcl69-esl100-rsm0-rcm11-esm100-rsr0-rcr25-esr29.npz,,,,,0,10,10,523,,right,red,0.97,76.73647212982178,77.26139116287231,1,8,3,lightness,readingArea,realistic,75,2023-03-28_15h27.37.195,tripletExp_regina_11082022,2022.2.4,119.79789497736458,
5,0,11,0,1.0,0.298245614035088,0,0.027777777777778,0.298245614035088,0,1.0,1.0,ReadingArea_rsl0-rcl100-esl29-rsm0-rcm2-esm29-rsr0-rcr100-esr100,exr/ReadingArea_rsl0-rcl100-esl29-rsm0-rcm2-esm29-rsr0-rcr100-esr100.exr,ReadingArea_rsl0-rcl100-esl29-rsm0-rcm2-esm29-rsr0-rcr100-esr100.npz,,,,,0,11,11,547,,left,green,2.46,80.73981499671936,,1,8,3,lightness,readingArea,realistic,75,2023-03-28_15h27.37.195,tripletExp_regina_11082022,2022.2.4,119.79789497736458,
12,6,3,0,0.027777777777778,3.10526315789474,0,0.027777777777778,1.0,0,0.444444444444444,0.298245614035088,ReadingArea_rsl0-rcl2-esl310-rsm0-rcm2-esm100-rsr0-rcr44-esr29,exr/ReadingArea_rsl0-rcl2-esl310-rsm0-rcm2-esm100-rsr0-rcr44-esr29.exr,ReadingArea_rsl0-rcl2-esl310-rsm0-rcm2-esm100-rsr0-rcr44-esr29.npz,,,,,0,12,12,139,,left,green,0.83,82.92296600341797,83.42195105552673,1,8,3,lightness,readingArea,realistic,75,2023-03-28_15h27.37.195,tripletExp_regina_11082022,2022.2.4,119.79789497736458,
2,3,9,0,0.25,0.298245614035088,0,0.444444444444444,0.298245614035088,0,0.444444444444444,1.0,ReadingArea_rsl0-rcl25-esl29-rsm0-rcm44-esm29-rsr0-rcr44-esr100,exr/ReadingArea_rsl0-rcl25-esl29-rsm0-rcm44-esm29-rsr0-rcr44-esr100.exr,ReadingArea_rsl0-rcl25-esl29-rsm0-rcm44-esm29-rsr0-rcr44-esr100.npz,,,,,0,13,13,190,,left,green,1.08,85.12166619300842,85.69306206703186,1,8,3,lightness,readingArea,realistic,75,2023-03-28_15h27.37.195,tripletExp_regina_11082022,2022.2.4,119.79789497736458,
11,3,12,0,1.0,1.0,0,0.444444444444444,0.298245614035088,0,0.027777777777778,3.10526315789474,ReadingArea_rsl0-rcl100-esl100-rsm0-rcm44-esm29-rsr0-rcr2-esr310,exr/ReadingArea_rsl0-rcl100-esl100-rsm0-rcm44-esm29-rsr0-rcr2-esr310.exr,ReadingArea_rsl0-rcl100-esl100-rsm0-rcm44-esm29-rsr0-rcr2-esr310.npz,,,,,0,14,14,355,,right,red,0.98,87.3934051990509,87.89299607276917,1,8,3,lightness,readingArea,realistic,75,2023-03-28_15h27.37.195,tripletExp_regina_11082022,2022.2.4,119.79789497736458,
14,3,6,0,0.25,3.10526315789474,0,0.444444444444444,0.298245614035088,0,0.027777777777778,1.0,ReadingArea_rsl0-rcl25-esl310-rsm0-rcm44-esm29-rsr0-rcr2-esr100,exr/ReadingArea_rsl0-rcl25-esl310-rsm0-rcm44-esm29-rsr0-rcr2-esr100.exr,ReadingArea_rsl0-rcl25-esl310-rsm0-rcm44-esm29-rsr0-rcr2-esr100.npz,,,,,0,15,15,244,,right,red,0.98,89.60209798812866,90.21243619918825,1,8,3,lightness,readingArea,realistic,75,2023-03-28_15h27.37.195,tripletExp_regina_11082022,2022.2.4,119.79789497736458,
5,6,0,0,1.0,0.298245614035088,0,0.027777777777778,1.0,0,0.027777777777778,0.298245614035088,ReadingArea_rsl0-rcl100-esl29-rsm0-rcm2-esm100-rsr0-rcr2-esr29,exr/ReadingArea_rsl0-rcl100-esl29-rsm0-rcm2-esm100-rsr0-rcr2-esr29.exr,ReadingArea_rsl0-rcl100-esl29-rsm0-rcm2-esm100-rsr0-rcr2-esr29.npz,,,,,0,16,16,511,,right,red,1.5,91.89477801322936,92.4077332019806,1,8,3,lightness,readingArea,realistic,75,2023-03-28_15h27.37.195,tripletExp_regina_11082022,2022.2.4,119.79789497736458,
13,6,0,0,0.111111111111111,3.10526315789474,0,0.027777777777778,1.0,0,0.027777777777778,0.298245614035088,ReadingArea_rsl0-rcl11-esl310-rsm0-rcm2-esm100-rsr0-rcr2-esr29,exr/ReadingArea_rsl0-rcl11-esl310-rsm0-rcm2-esm100-rsr0-rcr2-esr29.exr,ReadingArea_rsl0-rcl11-esl310-rsm0-rcm2-esm100-rsr0-rcr2-esr29.npz,,,,,0,17,17,309,,right,red,1.04,94.11019921302795,94.58633804321288,1,8,3,lightness,readingArea,realistic,75,2023-03-28_15h27.37.195,tripletExp_regina_11082022,2022.2.4,119.79789497736458,
12,3,5,0,0.027777777777778,3.10526315789474,0,0.444444444444444,0.298245614035088,0,1.0,0.298245614035088,ReadingArea_rsl0-rcl2-esl310-rsm0-rcm44-esm29-rsr0-rcr100-esr29,exr/ReadingArea_rsl0-rcl2-esl310-rsm0-rcm44-esm29-rsr0-rcr100-esr29.exr,ReadingArea_rsl0-rcl2-esl310-rsm0-rcm44-esm29-rsr0-rcr100-esr29.npz,,,,,0,18,18,188,,left,green,3.09,98.08793807029724,98.68313002586363,1,8,3,lightness,readingArea,realistic,75,2023-03-28_15h27.37.195,tripletExp_regina_11082022,2022.2.4,119.79789497736458,
5,8,2,0,1.0,0.298245614035088,0,0.25,1.0,0,0.25,0.298245614035088,ReadingArea_rsl0-rcl100-esl29-rsm0-rcm25-esm100-rsr0-rcr25-esr29,exr/ReadingArea_rsl0-rcl100-esl29-rsm0-rcm25-esm100-rsr0-rcr25-esr29.exr,ReadingArea_rsl0-rcl100-esl29-rsm0-rcm25-esm100-rsr0-rcr25-esr29.npz,,,,,0,19,19,65,,right,red,2.43,102.12422513961792,102.68452215194702,1,8,3,lightness,readingArea,realistic,75,2023-03-28_15h27.37.195,tripletExp_regina_11082022,2022.2.4,119.79789497736458,
12,8,6,0,0.027777777777778,3.10526315789474,0,0.25,1.0,0,0.027777777777778,1.0,ReadingArea_rsl0-rcl2-esl310-rsm0-rcm25-esm100-rsr0-rcr2-esr100,exr/ReadingArea_rsl0-rcl2-esl310-rsm0-rcm25-esm100-rsr0-rcr2-esr100.exr,ReadingArea_rsl0-rcl2-esl310-rsm0-rcm25-esm100-rsr0-rcr2-esr100.npz,,,,,0,20,20,281,,left,green,2.33,106.1685721874237,106.72359919548036,1,8,3,lightness,readingArea,realistic,75,2023-03-28_15h27.37.195,tripletExp_regina_11082022,2022.2.4,119.79789497736458,
11,5,8,0,1.0,1.0,0,1.0,0.298245614035088,0,0.25,1.0,ReadingArea_rsl0-rcl100-esl100-rsm0-rcm100-esm29-rsr0-rcr25-esr100,exr/ReadingArea_rsl0-rcl100-esl100-rsm0-rcm100-esm29-rsr0-rcr25-esr100.exr,ReadingArea_rsl0-rcl100-esl100-rsm0-rcm100-esm29-rsr0-rcr25-esr100.npz,,,,,0,21,21,86,,right,red,2.34,110.195983171463,,1,8,3,lightness,readingArea,realistic,75,2023-03-28_15h27.37.195,tripletExp_regina_11082022,2022.2.4,119.79789497736458,
7,12,0,0,0.111111111111111,1.0,0,0.027777777777778,3.10526315789474,0,0.027777777777778,0.298245614035088,ReadingArea_rsl0-rcl11-esl100-rsm0-rcm2-esm310-rsr0-rcr2-esr29,exr/ReadingArea_rsl0-rcl11-esl100-rsm0-rcm2-esm310-rsr0-rcr2-esr29.exr,ReadingArea_rsl0-rcl11-esl100-rsm0-rcm2-esm310-rsr0-rcr2-esr29.npz,,,,,0,22,22,425,,left,green,2.55,114.23909211158752,114.76856517791748,1,8,3,lightness,readingArea,realistic,75,2023-03-28_15h27.37.195,tripletExp_regina_11082022,2022.2.4,119.79789497736458,
9,11,5,0,0.444444444444444,1.0,0,1.0,1.0,0,1.0,0.298245614035088,ReadingArea_rsl0-rcl44-esl100-rsm0-rcm100-esm100-rsr0-rcr100-esr29,exr/ReadingArea_rsl0-rcl44-esl100-rsm0-rcm100-esm100-rsr0-rcr100-esr29.exr,ReadingArea_rsl0-rcl44-esl100-rsm0-rcm100-esm100-rsr0-rcr100-esr29.npz,,,,,0,23,23,142,,right,red,3.25,118.24446821212769,118.84844017028809,1,8,3,lightness,readingArea,realistic,75,2023-03-28_15h27.37.195,tripletExp_regina_11082022,2022.2.4,119.79789497736458,
14,8,1,0,0.25,3.10526315789474,0,0.25,1.0,0,0.111111111111111,0.298245614035088,ReadingArea_rsl0-rcl25-esl310-rsm0-rcm25-esm100-rsr0-rcr11-esr29,exr/ReadingArea_rsl0-rcl25-esl310-rsm0-rcm25-esm100-rsr0-rcr11-esr29.exr,ReadingArea_rsl0-rcl25-esl310-rsm0-rcm25-esm100-rsr0-rcr11-esr29.npz,,,,,0,24,24,141,,right,red,4.39,124.06631398200987,124.65674209594728,1,8,3,lightness,readingArea,realistic,75,2023-03-28_15h27.37.195,tripletExp_regina_11082022,2022.2.4,119.79789497736458,
10,0,14,0,0.694444444444444,1.0,0,0.027777777777778,0.298245614035088,0,0.25,3.10526315789474,ReadingArea_rsl0-rcl69-esl100-rsm0-rcm2-esm29-rsr0-rcr25-esr310,exr/ReadingArea_rsl0-rcl69-esl100-rsm0-rcm2-esm29-rsr0-rcr25-esr310.exr,ReadingArea_rsl0-rcl69-esl100-rsm0-rcm2-esm29-rsr0-rcr25-esr310.npz,,,,,0,25,25,95,,left,green,4.07,129.92299008369446,,1,8,3,lightness,readingArea,realistic,75,2023-03-28_15h27.37.195,tripletExp_regina_11082022,2022.2.4,119.79789497736458,
3,11,14,0,0.444444444444444,0.298245614035088,0,1.0,1.0,0,0.25,3.10526315789474,ReadingArea_rsl0-rcl44-esl29-rsm0-rcm100-esm100-rsr0-rcr25-esr310,exr/ReadingArea_rsl0-rcl44-esl29-rsm0-rcm100-esm100-rsr0-rcr25-esr310.exr,ReadingArea_rsl0-rcl44-esl29-rsm0-rcm100-esm100-rsr0-rcr25-esr310.npz,,,,,0,26,26,570,,right,red,2.16,134.07399010658264,,1,8,3,lightness,readingArea,realistic,75,2023-03-28_15h27.37.195,tripletExp_regina_11082022,2022.2.4,119.79789497736458,
3,4,11,0,0.444444444444444,0.298245614035088,0,0.694444444444444,0.298245614035088,0,1.0,1.0,ReadingArea_rsl0-rcl44-esl29-rsm0-rcm69-esm29-rsr0-rcr100-esr100,exr/ReadingArea_rsl0-rcl44-esl29-rsm0-rcm69-esm29-rsr0-rcr100-esr100.exr,ReadingArea_rsl0-rcl44-esl29-rsm0-rcm69-esm29-rsr0-rcr100-esr100.npz,,,,,0,27,27,207,,left,green,1.0,136.3105490207672,136.787348985672,1,8,3,lightness,readingArea,realistic,75,2023-03-28_15h27.37.195,tripletExp_regina_11082022,2022.2.4,119.79789497736458,
2,8,7,0,0.25,0.298245614035088,0,0.25,1.0,0,0.111111111111111,1.0,ReadingArea_rsl0-rcl25-esl29-rsm0-rcm25-esm100-rsr0-rcr11-esr100,exr/ReadingArea_rsl0-rcl25-esl29-rsm0-rcm25-esm100-rsr0-rcr11-esr100.exr,ReadingArea_rsl0-rcl25-esl29-rsm0-rcm25-esm100-rsr0-rcr11-esr100.npz,,,,,0,28,28,393,,right,red,2.51,140.24352598190308,140.7341010570526,1,8,3,lightness,readingArea,realistic,75,2023-03-28_15h27.37.195,tripletExp_regina_11082022,2022.2.4,119.79789497736458,
8,14,3,0,0.25,1.0,0,0.25,3.10526315789474,0,0.444444444444444,0.298245614035088,ReadingArea_rsl0-rcl25-esl100-rsm0-rcm25-esm310-rsr0-rcr44-esr29,exr/ReadingArea_rsl0-rcl25-esl100-rsm0-rcm25-esm310-rsr0-rcr44-esr29.exr,ReadingArea_rsl0-rcl25-esl100-rsm0-rcm25-esm310-rsr0-rcr44-esr29.npz,,,,,0,29,29,503,,left,green,3.0,144.17869901657104,144.6377730369568,1,8,3,lightness,readingArea,realistic,75,2023-03-28_15h27.37.195,tripletExp_regina_11082022,2022.2.4,119.79789497736458,
9,7,2,0,0.444444444444444,1.0,0,0.111111111111111,1.0,0,0.25,0.298245614035088,ReadingArea_rsl0-rcl44-esl100-rsm0-rcm11-esm100-rsr0-rcr25-esr29,exr/ReadingArea_rsl0-rcl44-esl100-rsm0-rcm11-esm100-rsr0-rcr25-esr29.exr,ReadingArea_rsl0-rcl44-esl100-rsm0-rcm11-esm100-rsr0-rcr25-esr29.npz,,,,,0,30,30,428,,right,red,4.02,149.89517903327942,150.3553171157837,1,8,3,lightness,readingArea,realistic,75,2023-03-28_15h27.37.195,tripletExp_regina_11082022,2022.2.4,119.79789497736458,
14,6,7,0,0.25,3.10526315789474,0,0.027777777777778,1.0,0,0.111111111111111,1.0,ReadingArea_rsl0-rcl25-esl310-rsm0-rcm2-esm100-rsr0-rcr11-esr100,exr/ReadingArea_rsl0-rcl25-esl310-rsm0-rcm2-esm100-rsr0-rcr11-esr100.exr,ReadingArea_rsl0-rcl25-esl310-rsm0-rcm2-esm100-rsr0-rcr11-esr100.npz,,,,,0,31,31,306,,right,red,1.48,152.05444312095642,152.4963731765747,1,8,3,lightness,readingArea,realistic,75,2023-03-28_15h27.37.195,tripletExp_regina_11082022,2022.2.4,119.79789497736458,
2,0,3,0,0.25,0.298245614035088,0,0.027777777777778,0.298245614035088,0,0.444444444444444,0.298245614035088,ReadingArea_rsl0-rcl25-esl29-rsm0-rcm2-esm29-rsr0-rcr44-esr29,exr/ReadingArea_rsl0-rcl25-esl29-rsm0-rcm2-esm29-rsr0-rcr44-esr29.exr,ReadingArea_rsl0-rcl25-esl29-rsm0-rcm2-esm29-rsr0-rcr44-esr29.npz,,,,,0,32,32,338,,left,green,2.6,155.9853060245514,156.50897312164307,1,8,3,lightness,readingArea,realistic,75,2023-03-28_15h27.37.195,tripletExp_regina_11082022,2022.2.4,119.79789497736458,
1,4,7,0,0.111111111111111,0.298245614035088,0,0.694444444444444,0.298245614035088,0,0.111111111111111,1.0,ReadingArea_rsl0-rcl11-esl29-rsm0-rcm69-esm29-rsr0-rcr11-esr100,exr/ReadingArea_rsl0-rcl11-esl29-rsm0-rcm69-esm29-rsr0-rcr11-esr100.exr,ReadingArea_rsl0-rcl11-esl29-rsm0-rcm69-esm29-rsr0-rcr11-esr100.npz,,,,,0,33,33,522,,right,red,2.6,159.98114013671875,160.528302192688,1,8,3,lightness,readingArea,realistic,75,2023-03-28_15h27.37.195,tripletExp_regina_11082022,2022.2.4,119.79789497736458,
5,9,10,0,1.0,0.298245614035088,0,0.444444444444444,1.0,0,0.694444444444444,1.0,ReadingArea_rsl0-rcl100-esl29-rsm0-rcm44-esm100-rsr0-rcr69-esr100,exr/ReadingArea_rsl0-rcl100-esl29-rsm0-rcm44-esm100-rsr0-rcr69-esr100.exr,ReadingArea_rsl0-rcl100-esl29-rsm0-rcm44-esm100-rsr0-rcr69-esr100.npz,,,,,0,34,34,322,,left,green,1.83,162.2148370742798,162.72509002685547,1,8,3,lightness,readingArea,realistic,75,2023-03-28_15h27.37.195,tripletExp_regina_11082022,2022.2.4,119.79789497736458,
5,4,1,0,1.0,0.298245614035088,0,0.694444444444444,0.298245614035088,0,0.111111111111111,0.298245614035088,ReadingArea_rsl0-rcl100-esl29-rsm0-rcm69-esm29-rsr0-rcr11-esr29,exr/ReadingArea_rsl0-rcl100-esl29-rsm0-rcm69-esm29-rsr0-rcr11-esr29.exr,ReadingArea_rsl0-rcl100-esl29-rsm0-rcm69-esm29-rsr0-rcr11-esr29.npz,,,,,0,35,35,560,,left,green,2.28,166.2030520439148,,1,8,3,lightness,readingArea,realistic,75,2023-03-28_15h27.37.195,tripletExp_regina_11082022,2022.2.4,119.79789497736458,
9,3,8,0,0.444444444444444,1.0,0,0.444444444444444,0.298245614035088,0,0.25,1.0,ReadingArea_rsl0-rcl44-esl100-rsm0-rcm44-esm29-rsr0-rcr25-esr100,exr/ReadingArea_rsl0-rcl44-esl100-rsm0-rcm44-esm29-rsr0-rcr25-esr100.exr,ReadingArea_rsl0-rcl44-esl100-rsm0-rcm44-esm29-rsr0-rcr25-esr100.npz,,,,,0,36,36,530,,right,red,1.11,168.3821680545807,168.86495208740234,1,8,3,lightness,readingArea,realistic,75,2023-03-28_15h27.37.195,tripletExp_regina_11082022,2022.2.4,119.79789497736458,
5,14,3,0,1.0,0.298245614035088,0,0.25,3.10526315789474,0,0.444444444444444,0.298245614035088,ReadingArea_rsl0-rcl100-esl29-rsm0-rcm25-esm310-rsr0-rcr44-esr29,exr/ReadingArea_rsl0-rcl100-esl29-rsm0-rcm25-esm310-rsr0-rcr44-esr29.exr,ReadingArea_rsl0-rcl100-esl29-rsm0-rcm25-esm310-rsr0-rcr44-esr29.npz,,,,,0,37,37,93,,left,green,2.33,172.326740026474,172.76969599723816,1,8,3,lightness,readingArea,realistic,75,2023-03-28_15h27.37.195,tripletExp_regina_11082022,2022.2.4,119.79789497736458,
9,4,14,0,0.444444444444444,1.0,0,0.694444444444444,0.298245614035088,0,0.25,3.10526315789474,ReadingArea_rsl0-rcl44-esl100-rsm0-rcm69-esm29-rsr0-rcr25-esr310,exr/ReadingArea_rsl0-rcl44-esl100-rsm0-rcm69-esm29-rsr0-rcr25-esr310.exr,ReadingArea_rsl0-rcl44-esl100-rsm0-rcm69-esm29-rsr0-rcr25-esr310.npz,,,,,0,38,38,104,,left,green,2.5,176.2328600883484,176.7270631790161,1,8,3,lightness,readingArea,realistic,75,2023-03-28_15h27.37.195,tripletExp_regina_11082022,2022.2.4,119.79789497736458,
11,8,2,0,1.0,1.0,0,0.25,1.0,0,0.25,0.298245614035088,ReadingArea_rsl0-rcl100-esl100-rsm0-rcm25-esm100-rsr0-rcr25-esr29,exr/ReadingArea_rsl0-rcl100-esl100-rsm0-rcm25-esm100-rsr0-rcr25-esr29.exr,ReadingArea_rsl0-rcl100-esl100-rsm0-rcm25-esm100-rsr0-rcr25-esr29.npz,,,,,0,39,39,406,,right,red,0.96,178.4155240058899,178.9129991531372,1,8,3,lightness,readingArea,realistic,75,2023-03-28_15h27.37.195,tripletExp_regina_11082022,2022.2.4,119.79789497736458,
3,4,0,0,0.444444444444444,0.298245614035088,0,0.694444444444444,0.298245614035088,0,0.027777777777778,0.298245614035088,ReadingArea_rsl0-rcl44-esl29-rsm0-rcm69-esm29-rsr0-rcr2-esr29,exr/ReadingArea_rsl0-rcl44-esl29-rsm0-rcm69-esm29-rsr0-rcr2-esr29.exr,ReadingArea_rsl0-rcl44-esl29-rsm0-rcm69-esm29-rsr0-rcr2-esr29.npz,,,,,0,40,40,130,,left,green,1.05,180.61275506019592,181.06075310707087,1,8,3,lightness,readingArea,realistic,75,2023-03-28_15h27.37.195,tripletExp_regina_11082022,2022.2.4,119.79789497736458,
8,10,6,0,0.25,1.0,0,0.694444444444444,1.0,0,0.027777777777778,1.0,ReadingArea_rsl0-rcl25-esl100-rsm0-rcm69-esm100-rsr0-rcr2-esr100,exr/ReadingArea_rsl0-rcl25-esl100-rsm0-rcm69-esm100-rsr0-rcr2-esr100.exr,ReadingArea_rsl0-rcl25-esl100-rsm0-rcm69-esm100-rsr0-rcr2-esr100.npz,,,,,0,41,41,129,,left,green,2.97,184.526073217392,185.0191600322724,1,8,3,lightness,readingArea,realistic,75,2023-03-28_15h27.37.195,tripletExp_regina_11082022,2022.2.4,119.79789497736458,
5,10,0,0,1.0,0.298245614035088,0,0.694444444444444,1.0,0,0.027777777777778,0.298245614035088,ReadingArea_rsl0-rcl100-esl29-rsm0-rcm69-esm100-rsr0-rcr2-esr29,exr/ReadingArea_rsl0-rcl100-esl29-rsm0-rcm69-esm100-rsr0-rcr2-esr29.exr,ReadingArea_rsl0-rcl100-esl29-rsm0-rcm69-esm100-rsr0-rcr2-esr29.npz,,,,,0,42,42,293,,left,green,1.03,186.72258305549624,187.20392298698425,1,8,3,lightness,readingArea,realistic,75,2023-03-28_15h27.37.195,tripletExp_regina_11082022,2022.2.4,119.79789497736458,
8,9,2,0,0.25,1.0,0,0.444444444444444,1.0,0,0.25,0.298245614035088,ReadingArea_rsl0-rcl25-esl100-rsm0-rcm44-esm100-rsr0-rcr25-esr29,exr/ReadingArea_rsl0-rcl25-esl100-rsm0-rcm44-esm100-rsr0-rcr25-esr29.exr,ReadingArea_rsl0-rcl25-esl100-rsm0-rcm44-esm100-rsr0-rcr25-esr29.npz,,,,,0,43,43,559,,left,green,0.91,188.89151906967163,189.4668951034546,1,8,3,lightness,readingArea,realistic,75,2023-03-28_15h27.37.195,tripletExp_regina_11082022,2022.2.4,119.79789497736458,
13,6,10,0,0.111111111111111,3.10526315789474,0,0.027777777777778,1.0,0,0.694444444444444,1.0,ReadingArea_rsl0-rcl11-esl310-rsm0-rcm2-esm100-rsr0-rcr69-esr100,exr/ReadingArea_rsl0-rcl11-esl310-rsm0-rcm2-esm100-rsr0-rcr69-esr100.exr,ReadingArea_rsl0-rcl11-esl310-rsm0-rcm2-esm100-rsr0-rcr69-esr100.npz,,,,,0,44,44,593,,left,green,3.21,192.91672611236567,193.37768721580505,1,8,3,lightness,readingArea,realistic,75,2023-03-28_15h27.37.195,tripletExp_regina_11082022,2022.2.4,119.79789497736458,
14,2,0,0,0.25,3.10526315789474,0,0.25,0.298245614035088,0,0.027777777777778,0.298245614035088,ReadingArea_rsl0-rcl25-esl310-rsm0-rcm25-esm29-rsr0-rcr2-esr29,exr/ReadingArea_rsl0-rcl25-esl310-rsm0-rcm25-esm29-rsr0-rcr2-esr29.exr,ReadingArea_rsl0-rcl25-esl310-rsm0-rcm25-esm29-rsr0-rcr2-esr29.npz,,,,,0,45,45,460,,right,red,1.17,195.06645321846008,195.5769300460816,1,8,3,lightness,readingArea,realistic,75,2023-03-28_15h27.37.195,tripletExp_regina_11082022,2022.2.4,119.79789497736458,
11,12,1,0,1.0,1.0,0,0.027777777777778,3.10526315789474,0,0.111111111111111,0.298245614035088,ReadingArea_rsl0-rcl100-esl100-rsm0-rcm2-esm310-rsr0-rcr11-esr29,exr/ReadingArea_rsl0-rcl100-esl100-rsm0-rcm2-esm310-rsr0-rcr11-esr29.exr,ReadingArea_rsl0-rcl100-esl100-rsm0-rcm2-esm310-rsr0-rcr11-esr29.npz,,,,,0,46,46,140,,right,red,1.52,197.3017361164093,197.8033452033997,1,8,3,lightness,readingArea,realistic,75,2023-03-28_15h27.37.195,tripletExp_regina_11082022,2022.2.4,119.79789497736458,
14,3,2,0,0.25,3.10526315789474,0,0.444444444444444,0.298245614035088,0,0.25,0.298245614035088,ReadingArea_rsl0-rcl25-esl310-rsm0-rcm44-esm29-rsr0-rcr25-esr29,exr/ReadingArea_rsl0-rcl25-esl310-rsm0-rcm44-esm29-rsr0-rcr25-esr29.exr,ReadingArea_rsl0-rcl25-esl310-rsm0-rcm44-esm29-rsr0-rcr25-esr29.npz,,,,,0,47,47,52,,right,red,1.03,199.5103931427002,199.96605706214905,1,8,3,lightness,readingArea,realistic,75,2023-03-28_15h27.37.195,tripletExp_regina_11082022,2022.2.4,119.79789497736458,
8,6,5,0,0.25,1.0,0,0.027777777777778,1.0,0,1.0,0.298245614035088,ReadingArea_rsl0-rcl25-esl100-rsm0-rcm2-esm100-rsr0-rcr100-esr29,exr/ReadingArea_rsl0-rcl25-esl100-rsm0-rcm2-esm100-rsr0-rcr100-esr29.exr,ReadingArea_rsl0-rcl25-esl100-rsm0-rcm2-esm100-rsr0-rcr100-esr29.npz,,,,,0,48,48,241,,left,green,2.92,203.45997619628903,203.94156002998352,1,8,3,lightness,readingArea,realistic,75,2023-03-28_15h27.37.195,tripletExp_regina_11082022,2022.2.4,119.79789497736458,
14,13,2,0,0.25,3.10526315789474,0,0.111111111111111,3.10526315789474,0,0.25,0.298245614035088,ReadingArea_rsl0-rcl25-esl310-rsm0-rcm11-esm310-rsr0-rcr25-esr29,exr/ReadingArea_rsl0-rcl25-esl310-rsm0-rcm11-esm310-rsr0-rcr25-esr29.exr,ReadingArea_rsl0-rcl25-esl310-rsm0-rcm11-esm310-rsr0-rcr25-esr29.npz,,,,,0,49,49,377,,right,red,1.04,205.6302261352539,206.07339310646057,1,8,3,lightness,readingArea,realistic,75,2023-03-28_15h27.37.195,tripletExp_regina_11082022,2022.2.4,119.79789497736458,
2,4,13,0,0.25,0.298245614035088,0,0.694444444444444,0.298245614035088,0,0.111111111111111,3.10526315789474,ReadingArea_rsl0-rcl25-esl29-rsm0-rcm69-esm29-rsr0-rcr11-esr310,exr/ReadingArea_rsl0-rcl25-esl29-rsm0-rcm69-esm29-rsr0-rcr11-esr310.exr,ReadingArea_rsl0-rcl25-esl29-rsm0-rcm69-esm29-rsr0-rcr11-esr310.npz,,,,,0,50,50,325,,right,red,0.94,207.79565620422363,208.395399093628,1,8,3,lightness,readingArea,realistic,75,2023-03-28_15h27.37.195,tripletExp_regina_11082022,2022.2.4,119.79789497736458,
6,3,13,0,0.027777777777778,1.0,0,0.444444444444444,0.298245614035088,0,0.111111111111111,3.10526315789474,ReadingArea_rsl0-rcl2-esl100-rsm0-rcm44-esm29-rsr0-rcr11-esr310,exr/ReadingArea_rsl0-rcl2-esl100-rsm0-rcm44-esm29-rsr0-rcr11-esr310.exr,ReadingArea_rsl0-rcl2-esl100-rsm0-rcm44-esm29-rsr0-rcr11-esr310.npz,,,,,0,51,51,228,,right,red,0.91,210.10250115394592,210.5885591506958,1,8,3,lightness,readingArea,realistic,75,2023-03-28_15h27.37.195,tripletExp_regina_11082022,2022.2.4,119.79789497736458,
2,5,14,0,0.25,0.298245614035088,0,1.0,0.298245614035088,0,0.25,3.10526315789474,ReadingArea_rsl0-rcl25-esl29-rsm0-rcm100-esm29-rsr0-rcr25-esr310,exr/ReadingArea_rsl0-rcl25-esl29-rsm0-rcm100-esm29-rsr0-rcr25-esr310.exr,ReadingArea_rsl0-rcl25-esl29-rsm0-rcm100-esm29-rsr0-rcr25-esr310.npz,,,,,0,52,52,390,,right,red,4.63,215.85582518577576,216.3682630062104,1,8,3,lightness,readingArea,realistic,75,2023-03-28_15h27.37.195,tripletExp_regina_11082022,2022.2.4,119.79789497736458,
13,11,10,0,0.111111111111111,3.10526315789474,0,1.0,1.0,0,0.694444444444444,1.0,ReadingArea_rsl0-rcl11-esl310-rsm0-rcm100-esm100-rsr0-rcr69-esr100,exr/ReadingArea_rsl0-rcl11-esl310-rsm0-rcm100-esm100-rsr0-rcr69-esr100.exr,ReadingArea_rsl0-rcl11-esl310-rsm0-rcm100-esm100-rsr0-rcr69-esr100.npz,,,,,0,53,53,577,,right,red,0.85,218.092689037323,218.6084370613098,1,8,3,lightness,readingArea,realistic,75,2023-03-28_15h27.37.195,tripletExp_regina_11082022,2022.2.4,119.79789497736458,
13,1,3,0,0.111111111111111,3.10526315789474,0,0.111111111111111,0.298245614035088,0,0.444444444444444,0.298245614035088,ReadingArea_rsl0-rcl11-esl310-rsm0-rcm11-esm29-rsr0-rcr44-esr29,exr/ReadingArea_rsl0-rcl11-esl310-rsm0-rcm11-esm29-rsr0-rcr44-esr29.exr,ReadingArea_rsl0-rcl11-esl310-rsm0-rcm11-esm29-rsr0-rcr44-esr29.npz,,,,,0,54,54,588,,right,red,3.03,222.07709217071533,222.5621030330658,1,8,3,lightness,readingArea,realistic,75,2023-03-28_15h27.37.195,tripletExp_regina_11082022,2022.2.4,119.79789497736458,
5,11,8,0,1.0,0.298245614035088,0,1.0,1.0,0,0.25,1.0,ReadingArea_rsl0-rcl100-esl29-rsm0-rcm100-esm100-rsr0-rcr25-esr100,exr/ReadingArea_rsl0-rcl100-esl29-rsm0-rcm100-esm100-rsr0-rcr25-esr100.exr,ReadingArea_rsl0-rcl100-esl29-rsm0-rcm100-esm100-rsr0-rcr25-esr100.npz,,,,,0,55,55,548,,left,green,3.21,226.01207613945007,226.5301971435547,1,8,3,lightness,readingArea,realistic,75,2023-03-28_15h27.37.195,tripletExp_regina_11082022,2022.2.4,119.79789497736458,
13,9,4,0,0.111111111111111,3.10526315789474,0,0.444444444444444,1.0,0,0.694444444444444,0.298245614035088,ReadingArea_rsl0-rcl11-esl310-rsm0-rcm44-esm100-rsr0-rcr69-esr29,exr/ReadingArea_rsl0-rcl11-esl310-rsm0-rcm44-esm100-rsr0-rcr69-esr29.exr,ReadingArea_rsl0-rcl11-esl310-rsm0-rcm44-esm100-rsr0-rcr69-esr29.npz,,,,,0,56,56,444,,right,red,2.95,230.0007791519165,230.4613001346588,1,8,3,lightness,readingArea,realistic,75,2023-03-28_15h27.37.195,tripletExp_regina_11082022,2022.2.4,119.79789497736458,
14,0,9,0,0.25,3.10526315789474,0,0.027777777777778,0.298245614035088,0,0.444444444444444,1.0,ReadingArea_rsl0-rcl25-esl310-rsm0-rcm2-esm29-rsr0-rcr44-esr100,exr/ReadingArea_rsl0-rcl25-esl310-rsm0-rcm2-esm29-rsr0-rcr44-esr100.exr,ReadingArea_rsl0-rcl25-esl310-rsm0-rcm2-esm29-rsr0-rcr44-esr100.npz,,,,,0,57,57,90,,right,red,3.81,235.70982599258423,236.19216203689567,1,8,3,lightness,readingArea,realistic,75,2023-03-28_15h27.37.195,tripletExp_regina_11082022,2022.2.4,119.79789497736458,
9,11,10,0,0.444444444444444,1.0,0,1.0,1.0,0,0.694444444444444,1.0,ReadingArea_rsl0-rcl44-esl100-rsm0-rcm100-esm100-rsr0-rcr69-esr100,exr/ReadingArea_rsl0-rcl44-esl100-rsm0-rcm100-esm100-rsr0-rcr69-esr100.exr,ReadingArea_rsl0-rcl44-esl100-rsm0-rcm100-esm100-rsr0-rcr69-esr100.npz,,,,,0,58,58,591,,right,red,1.06,237.9045431613922,238.4090230464936,1,8,3,lightness,readingArea,realistic,75,2023-03-28_15h27.37.195,tripletExp_regina_11082022,2022.2.4,119.79789497736458,
13,2,4,0,0.111111111111111,3.10526315789474,0,0.25,0.298245614035088,0,0.694444444444444,0.298245614035088,ReadingArea_rsl0-rcl11-esl310-rsm0-rcm25-esm29-rsr0-rcr69-esr29,exr/ReadingArea_rsl0-rcl11-esl310-rsm0-rcm25-esm29-rsr0-rcr69-esr29.exr,ReadingArea_rsl0-rcl11-esl310-rsm0-rcm25-esm29-rsr0-rcr69-esr29.npz,,,,,0,59,59,307,,right,red,2.75,241.868215084076,242.36672806739807,1,8,3,lightness,readingArea,realistic,75,2023-03-28_15h27.37.195,tripletExp_regina_11082022,2022.2.4,119.79789497736458,
4,12,5,0,0.694444444444444,0.298245614035088,0,0.027777777777778,3.10526315789474,0,1.0,0.298245614035088,ReadingArea_rsl0-rcl69-esl29-rsm0-rcm2-esm310-rsr0-rcr100-esr29,exr/ReadingArea_rsl0-rcl69-esl29-rsm0-rcm2-esm310-rsr0-rcr100-esr29.exr,ReadingArea_rsl0-rcl69-esl29-rsm0-rcm2-esm310-rsr0-rcr100-esr29.npz,,,,,0,60,60,296,,left,green,2.53,245.81319904327395,246.26376700401303,1,8,3,lightness,readingArea,realistic,75,2023-03-28_15h27.37.195,tripletExp_regina_11082022,2022.2.4,119.79789497736458,
12,5,4,0,0.027777777777778,3.10526315789474,0,1.0,0.298245614035088,0,0.694444444444444,0.298245614035088,ReadingArea_rsl0-rcl2-esl310-rsm0-rcm100-esm29-rsr0-rcr69-esr29,exr/ReadingArea_rsl0-rcl2-esl310-rsm0-rcm100-esm29-rsr0-rcr69-esr29.exr,ReadingArea_rsl0-rcl2-esl310-rsm0-rcm100-esm29-rsr0-rcr69-esr29.npz,,,,,0,61,61,566,,right,red,0.89,247.95777916908264,,1,8,3,lightness,readingArea,realistic,75,2023-03-28_15h27.37.195,tripletExp_regina_11082022,2022.2.4,119.79789497736458,
6,4,10,0,0.027777777777778,1.0,0,0.694444444444444,0.298245614035088,0,0.694444444444444,1.0,ReadingArea_rsl0-rcl2-esl100-rsm0-rcm69-esm29-rsr0-rcr69-esr100,exr/ReadingArea_rsl0-rcl2-esl100-rsm0-rcm69-esm29-rsr0-rcr69-esr100.exr,ReadingArea_rsl0-rcl2-esl100-rsm0-rcm69-esm29-rsr0-rcr69-esr100.npz,,,,,0,62,62,554,,right,red,1.02,250.21728205680847,250.67576909065247,1,8,3,lightness,readingArea,realistic,75,2023-03-28_15h27.37.195,tripletExp_regina_11082022,2022.2.4,119.79789497736458,
3,9,0,0,0.444444444444444,0.298245614035088,0,0.444444444444444,1.0,0,0.027777777777778,0.298245614035088,ReadingArea_rsl0-rcl44-esl29-rsm0-rcm44-esm100-rsr0-rcr2-esr29,exr/ReadingArea_rsl0-rcl44-esl29-rsm0-rcm44-esm100-rsr0-rcr2-esr29.exr,ReadingArea_rsl0-rcl44-esl29-rsm0-rcm44-esm100-rsr0-rcr2-esr29.npz,,,,,0,63,63,551,,left,green,1.54,252.37587904930115,252.84956908226013,1,8,3,lightness,readingArea,realistic,75,2023-03-28_15h27.37.195,tripletExp_regina_11082022,2022.2.4,119.79789497736458,
2,1,12,0,0.25,0.298245614035088,0,0.111111111111111,0.298245614035088,0,0.027777777777778,3.10526315789474,ReadingArea_rsl0-rcl25-esl29-rsm0-rcm11-esm29-rsr0-rcr2-esr310,exr/ReadingArea_rsl0-rcl25-esl29-rsm0-rcm11-esm29-rsr0-rcr2-esr310.exr,ReadingArea_rsl0-rcl25-esl29-rsm0-rcm11-esm29-rsr0-rcr2-esr310.npz,,,,,0,64,64,12,,right,red,2.86,256.30637311935425,256.78245520591736,1,8,3,lightness,readingArea,realistic,75,2023-03-28_15h27.37.195,tripletExp_regina_11082022,2022.2.4,119.79789497736458,
11,7,14,0,1.0,1.0,0,0.111111111111111,1.0,0,0.25,3.10526315789474,ReadingArea_rsl0-rcl100-esl100-rsm0-rcm11-esm100-rsr0-rcr25-esr310,exr/ReadingArea_rsl0-rcl100-esl100-rsm0-rcm11-esm100-rsr0-rcr25-esr310.exr,ReadingArea_rsl0-rcl100-esl100-rsm0-rcm11-esm100-rsr0-rcr25-esr310.npz,,,,,0,65,65,119,,right,red,2.91,260.2687621116638,260.8129642009735,1,8,3,lightness,readingArea,realistic,75,2023-03-28_15h27.37.195,tripletExp_regina_11082022,2022.2.4,119.79789497736458,
6,12,7,0,0.027777777777778,1.0,0,0.027777777777778,3.10526315789474,0,0.111111111111111,1.0,ReadingArea_rsl0-rcl2-esl100-rsm0-rcm2-esm310-rsr0-rcr11-esr100,exr/ReadingArea_rsl0-rcl2-esl100-rsm0-rcm2-esm310-rsr0-rcr11-esr100.exr,ReadingArea_rsl0-rcl2-esl100-rsm0-rcm2-esm310-rsr0-rcr11-esr100.npz,,,,,0,66,66,157,,right,red,2.9,264.29520416259766,264.7885022163391,1,8,3,lightness,readingArea,realistic,75,2023-03-28_15h27.37.195,tripletExp_regina_11082022,2022.2.4,119.79789497736458,
2,4,6,0,0.25,0.298245614035088,0,0.694444444444444,0.298245614035088,0,0.027777777777778,1.0,ReadingArea_rsl0-rcl25-esl29-rsm0-rcm69-esm29-rsr0-rcr2-esr100,exr/ReadingArea_rsl0-rcl25-esl29-rsm0-rcm69-esm29-rsr0-rcr2-esr100.exr,ReadingArea_rsl0-rcl25-esl29-rsm0-rcm69-esm29-rsr0-rcr2-esr100.npz,,,,,0,67,67,563,,left,green,3.42,268.2289390563965,268.6849160194397,1,8,3,lightness,readingArea,realistic,75,2023-03-28_15h27.37.195,tripletExp_regina_11082022,2022.2.4,119.79789497736458,
3,11,2,0,0.444444444444444,0.298245614035088,0,1.0,1.0,0,0.25,0.298245614035088,ReadingArea_rsl0-rcl44-esl29-rsm0-rcm100-esm100-rsr0-rcr25-esr29,exr/ReadingArea_rsl0-rcl44-esl29-rsm0-rcm100-esm100-rsr0-rcr25-esr29.exr,ReadingArea_rsl0-rcl44-esl29-rsm0-rcm100-esm100-rsr0-rcr25-esr29.npz,,,,,0,68,68,220,,left,green,3.92,273.9244840145111,274.431077003479,1,8,3,lightness,readingArea,realistic,75,2023-03-28_15h27.37.195,tripletExp_regina_11082022,2022.2.4,119.79789497736458,
4,8,3,0,0.694444444444444,0.298245614035088,0,0.25,1.0,0,0.444444444444444,0.298245614035088,ReadingArea_rsl0-rcl69-esl29-rsm0-rcm25-esm100-rsr0-rcr44-esr29,exr/ReadingArea_rsl0-rcl69-esl29-rsm0-rcm25-esm100-rsr0-rcr44-esr29.exr,ReadingArea_rsl0-rcl69-esl29-rsm0-rcm25-esm100-rsr0-rcr44-esr29.npz,,,,,0,69,69,292,,right,red,2.81,277.93467903137207,278.4123251438141,1,8,3,lightness,readingArea,realistic,75,2023-03-28_15h27.37.195,tripletExp_regina_11082022,2022.2.4,119.79789497736458,
2,8,11,0,0.25,0.298245614035088,0,0.25,1.0,0,1.0,1.0,ReadingArea_rsl0-rcl25-esl29-rsm0-rcm25-esm100-rsr0-rcr100-esr100,exr/ReadingArea_rsl0-rcl25-esl29-rsm0-rcm25-esm100-rsr0-rcr100-esr100.exr,ReadingArea_rsl0-rcl25-esl29-rsm0-rcm25-esm100-rsr0-rcr100-esr100.npz,,,,,0,70,70,225,,left,green,1.01,280.1086502075196,280.55895018577576,1,8,3,lightness,readingArea,realistic,75,2023-03-28_15h27.37.195,tripletExp_regina_11082022,2022.2.4,119.79789497736458,
14,12,10,0,0.25,3.10526315789474,0,0.027777777777778,3.10526315789474,0,0.694444444444444,1.0,ReadingArea_rsl0-rcl25-esl310-rsm0-rcm2-esm310-rsr0-rcr69-esr100,exr/ReadingArea_rsl0-rcl25-esl310-rsm0-rcm2-esm310-rsr0-rcr69-esr100.exr,ReadingArea_rsl0-rcl25-esl310-rsm0-rcm2-esm310-rsr0-rcr69-esr100.npz,,,,,0,71,71,331,,right,red,4.04,285.8264400959015,286.3254461288452,1,8,3,lightness,readingArea,realistic,75,2023-03-28_15h27.37.195,tripletExp_regina_11082022,2022.2.4,119.79789497736458,
14,10,13,0,0.25,3.10526315789474,0,0.694444444444444,1.0,0,0.111111111111111,3.10526315789474,ReadingArea_rsl0-rcl25-esl310-rsm0-rcm69-esm100-rsr0-rcr11-esr310,exr/ReadingArea_rsl0-rcl25-esl310-rsm0-rcm69-esm100-rsr0-rcr11-esr310.exr,ReadingArea_rsl0-rcl25-esl310-rsm0-rcm69-esm100-rsr0-rcr11-esr310.npz,,,,,0,72,72,204,,left,green,1.62,288.017471075058,288.49383211135864,1,8,3,lightness,readingArea,realistic,75,2023-03-28_15h27.37.195,tripletExp_regina_11082022,2022.2.4,119.79789497736458,
12,0,2,0,0.027777777777778,3.10526315789474,0,0.027777777777778,0.298245614035088,0,0.25,0.298245614035088,ReadingArea_rsl0-rcl2-esl310-rsm0-rcm2-esm29-rsr0-rcr25-esr29,exr/ReadingArea_rsl0-rcl2-esl310-rsm0-rcm2-esm29-rsr0-rcr25-esr29.exr,ReadingArea_rsl0-rcl2-esl310-rsm0-rcm2-esm29-rsr0-rcr25-esr29.npz,,,,,0,73,73,77,,right,red,2.85,291.9777910709381,292.43814611434937,1,8,3,lightness,readingArea,realistic,75,2023-03-28_15h27.37.195,tripletExp_regina_11082022,2022.2.4,119.79789497736458,
14,0,6,0,0.25,3.10526315789474,0,0.027777777777778,0.298245614035088,0,0.027777777777778,1.0,ReadingArea_rsl0-rcl25-esl310-rsm0-rcm2-esm29-rsr0-rcr2-esr100,exr/ReadingArea_rsl0-rcl25-esl310-rsm0-rcm2-esm29-rsr0-rcr2-esr100.exr,ReadingArea_rsl0-rcl25-esl310-rsm0-rcm2-esm29-rsr0-rcr2-esr100.npz,,,,,0,74,74,496,,right,red,1.02,294.15560817718506,294.355360031128,1,8,3,lightness,readingArea,realistic,75,2023-03-28_15h27.37.195,tripletExp_regina_11082022,2022.2.4,119.79789497736458,
2,11,8,0,0.25,0.298245614035088,0,1.0,1.0,0,0.25,1.0,ReadingArea_rsl0-rcl25-esl29-rsm0-rcm100-esm100-rsr0-rcr25-esr100,exr/ReadingArea_rsl0-rcl25-esl29-rsm0-rcm100-esm100-rsr0-rcr25-esr100.exr,ReadingArea_rsl0-rcl25-esl29-rsm0-rcm100-esm100-rsr0-rcr25-esr100.npz,,,,,0,75,75,364,,right,red,2.94,300.08718514442444,300.6248471736908,2,8,3,lightness,readingArea,realistic,75,2023-03-28_15h27.37.195,tripletExp_regina_11082022,2022.2.4,119.79789497736458,
13,11,8,0,0.111111111111111,3.10526315789474,0,1.0,1.0,0,0.25,1.0,ReadingArea_rsl0-rcl11-esl310-rsm0-rcm100-esm100-rsr0-rcr25-esr100,exr/ReadingArea_rsl0-rcl11-esl310-rsm0-rcm100-esm100-rsr0-rcr25-esr100.exr,ReadingArea_rsl0-rcl11-esl310-rsm0-rcm100-esm100-rsr0-rcr25-esr100.npz,,,,,0,76,76,410,,left,green,2.41,304.08946204185486,304.5514771938324,2,8,3,lightness,readingArea,realistic,75,2023-03-28_15h27.37.195,tripletExp_regina_11082022,2022.2.4,119.79789497736458,
4,5,8,0,0.694444444444444,0.298245614035088,0,1.0,0.298245614035088,0,0.25,1.0,ReadingArea_rsl0-rcl69-esl29-rsm0-rcm100-esm29-rsr0-rcr25-esr100,exr/ReadingArea_rsl0-rcl69-esl29-rsm0-rcm100-esm29-rsr0-rcr25-esr100.exr,ReadingArea_rsl0-rcl69-esl29-rsm0-rcm100-esm29-rsr0-rcr25-esr100.npz,,,,,0,77,77,54,,right,red,1.11,306.2517411708832,306.7104201316833,2,8,3,lightness,readingArea,realistic,75,2023-03-28_15h27.37.195,tripletExp_regina_11082022,2022.2.4,119.79789497736458,
10,7,4,0,0.694444444444444,1.0,0,0.111111111111111,1.0,0,0.694444444444444,0.298245614035088,ReadingArea_rsl0-rcl69-esl100-rsm0-rcm11-esm100-rsr0-rcr69-esr29,exr/ReadingArea_rsl0-rcl69-esl100-rsm0-rcm11-esm100-rsr0-rcr69-esr29.exr,ReadingArea_rsl0-rcl69-esl100-rsm0-rcm11-esm100-rsr0-rcr69-esr29.npz,,,,,0,78,78,223,,right,red,1.59,308.40066719055176,,2,8,3,lightness,readingArea,realistic,75,2023-03-28_15h27.37.195,tripletExp_regina_11082022,2022.2.4,119.79789497736458,
8,12,4,0,0.25,1.0,0,0.027777777777778,3.10526315789474,0,0.694444444444444,0.298245614035088,ReadingArea_rsl0-rcl25-esl100-rsm0-rcm2-esm310-rsr0-rcr69-esr29,exr/ReadingArea_rsl0-rcl25-esl100-rsm0-rcm2-esm310-rsr0-rcr69-esr29.exr,ReadingArea_rsl0-rcl25-esl100-rsm0-rcm2-esm310-rsr0-rcr69-esr29.npz,,,,,0,79,79,30,,left,green,4.4,314.0900070667267,314.5603811740875,2,8,3,lightness,readingArea,realistic,75,2023-03-28_15h27.37.195,tripletExp_regina_11082022,2022.2.4,119.79789497736458,
4,10,6,0,0.694444444444444,0.298245614035088,0,0.694444444444444,1.0,0,0.027777777777778,1.0,ReadingArea_rsl0-rcl69-esl29-rsm0-rcm69-esm100-rsr0-rcr2-esr100,exr/ReadingArea_rsl0-rcl69-esl29-rsm0-rcm69-esm100-rsr0-rcr2-esr100.exr,ReadingArea_rsl0-rcl69-esl29-rsm0-rcm69-esm100-rsr0-rcr2-esr100.npz,,,,,0,80,80,468,,left,green,1.88,318.0244171619415,318.51778507232666,2,8,3,lightness,readingArea,realistic,75,2023-03-28_15h27.37.195,tripletExp_regina_11082022,2022.2.4,119.79789497736458,
6,0,1,0,0.027777777777778,1.0,0,0.027777777777778,0.298245614035088,0,0.111111111111111,0.298245614035088,ReadingArea_rsl0-rcl2-esl100-rsm0-rcm2-esm29-rsr0-rcr11-esr29,exr/ReadingArea_rsl0-rcl2-esl100-rsm0-rcm2-esm29-rsr0-rcr11-esr29.exr,ReadingArea_rsl0-rcl2-esl100-rsm0-rcm2-esm29-rsr0-rcr11-esr29.npz,,,,,0,81,81,302,,right,red,2.55,321.98211908340454,322.5294830799103,2,8,3,lightness,readingArea,realistic,75,2023-03-28_15h27.37.195,tripletExp_regina_11082022,2022.2.4,119.79789497736458,
0,1,8,0,0.027777777777778,0.298245614035088,0,0.111111111111111,0.298245614035088,0,0.25,1.0,ReadingArea_rsl0-rcl2-esl29-rsm0-rcm11-esm29-rsr0-rcr25-esr100,exr/ReadingArea_rsl0-rcl2-esl29-rsm0-rcm11-esm29-rsr0-rcr25-esr100.exr,ReadingArea_rsl0-rcl2-esl29-rsm0-rcm11-esm29-rsr0-rcr25-esr100.npz,,,,,0,82,82,107,,left,green,1.09,324.212327003479,324.7173411846161,2,8,3,lightness,readingArea,realistic,75,2023-03-28_15h27.37.195,tripletExp_regina_11082022,2022.2.4,119.79789497736458,
1,8,5,0,0.111111111111111,0.298245614035088,0,0.25,1.0,0,1.0,0.298245614035088,ReadingArea_rsl0-rcl11-esl29-rsm0-rcm25-esm100-rsr0-rcr100-esr29,exr/ReadingArea_rsl0-rcl11-esl29-rsm0-rcm25-esm100-rsr0-rcr100-esr29.exr,ReadingArea_rsl0-rcl11-esl29-rsm0-rcm25-esm100-rsr0-rcr100-esr29.npz,,,,,0,83,83,445,,right,red,1.15,326.41032814979553,326.90497517585754,2,8,3,lightness,readingArea,realistic,75,2023-03-28_15h27.37.195,tripletExp_regina_11082022,2022.2.4,119.79789497736458,
11,2,8,0,1.0,1.0,0,0.25,0.298245614035088,0,0.25,1.0,ReadingArea_rsl0-rcl100-esl100-rsm0-rcm25-esm29-rsr0-rcr25-esr100,exr/ReadingArea_rsl0-rcl100-esl100-rsm0-rcm25-esm29-rsr0-rcr25-esr100.exr,ReadingArea_rsl0-rcl100-esl100-rsm0-rcm25-esm29-rsr0-rcr25-esr100.npz,,,,,0,84,84,214,,right,red,1.05,328.5996642112732,329.11202812194824,2,8,3,lightness,readingArea,realistic,75,2023-03-28_15h27.37.195,tripletExp_regina_11082022,2022.2.4,119.79789497736458,
1,10,11,0,0.111111111111111,0.298245614035088,0,0.694444444444444,1.0,0,1.0,1.0,ReadingArea_rsl0-rcl11-esl29-rsm0-rcm69-esm100-rsr0-rcr100-esr100,exr/ReadingArea_rsl0-rcl11-esl29-rsm0-rcm69-esm100-rsr0-rcr100-esr100.exr,ReadingArea_rsl0-rcl11-esl29-rsm0-rcm69-esm100-rsr0-rcr100-esr100.npz,,,,,0,85,85,483,,right,red,0.87,330.8216230869293,331.3640031814575,2,8,3,lightness,readingArea,realistic,75,2023-03-28_15h27.37.195,tripletExp_regina_11082022,2022.2.4,119.79789497736458,
13,6,1,0,0.111111111111111,3.10526315789474,0,0.027777777777778,1.0,0,0.111111111111111,0.298245614035088,ReadingArea_rsl0-rcl11-esl310-rsm0-rcm2-esm100-rsr0-rcr11-esr29,exr/ReadingArea_rsl0-rcl11-esl310-rsm0-rcm2-esm100-rsr0-rcr11-esr29.exr,ReadingArea_rsl0-rcl11-esl310-rsm0-rcm2-esm100-rsr0-rcr11-esr29.npz,,,,,0,86,86,486,,right,red,0.87,333.07139801979065,,2,8,3,lightness,readingArea,realistic,75,2023-03-28_15h27.37.195,tripletExp_regina_11082022,2022.2.4,119.79789497736458,
2,6,0,0,0.25,0.298245614035088,0,0.027777777777778,1.0,0,0.027777777777778,0.298245614035088,ReadingArea_rsl0-rcl25-esl29-rsm0-rcm2-esm100-rsr0-rcr2-esr29,exr/ReadingArea_rsl0-rcl25-esl29-rsm0-rcm2-esm100-rsr0-rcr2-esr29.exr,ReadingArea_rsl0-rcl25-esl29-rsm0-rcm2-esm100-rsr0-rcr2-esr29.npz,,,,,0,87,87,525,,right,red,0.89,335.26460814476013,335.7967040538788,2,8,3,lightness,readingArea,realistic,75,2023-03-28_15h27.37.195,tripletExp_regina_11082022,2022.2.4,119.79789497736458,
6,2,5,0,0.027777777777778,1.0,0,0.25,0.298245614035088,0,1.0,0.298245614035088,ReadingArea_rsl0-rcl2-esl100-rsm0-rcm25-esm29-rsr0-rcr100-esr29,exr/ReadingArea_rsl0-rcl2-esl100-rsm0-rcm25-esm29-rsr0-rcr100-esr29.exr,ReadingArea_rsl0-rcl2-esl100-rsm0-rcm25-esm29-rsr0-rcr100-esr29.npz,,,,,0,88,88,504,,left,green,2.45,339.2533950805664,339.7542471885681,2,8,3,lightness,readingArea,realistic,75,2023-03-28_15h27.37.195,tripletExp_regina_11082022,2022.2.4,119.79789497736458,
11,4,2,0,1.0,1.0,0,0.694444444444444,0.298245614035088,0,0.25,0.298245614035088,ReadingArea_rsl0-rcl100-esl100-rsm0-rcm69-esm29-rsr0-rcr25-esr29,exr/ReadingArea_rsl0-rcl100-esl100-rsm0-rcm69-esm29-rsr0-rcr25-esr29.exr,ReadingArea_rsl0-rcl100-esl100-rsm0-rcm69-esm29-rsr0-rcr25-esr29.npz,,,,,0,89,89,280,,right,red,1.26,341.4716501235962,341.9795491695404,2,8,3,lightness,readingArea,realistic,75,2023-03-28_15h27.37.195,tripletExp_regina_11082022,2022.2.4,119.79789497736458,
13,10,9,0,0.111111111111111,3.10526315789474,0,0.694444444444444,1.0,0,0.444444444444444,1.0,ReadingArea_rsl0-rcl11-esl310-rsm0-rcm69-esm100-rsr0-rcr44-esr100,exr/ReadingArea_rsl0-rcl11-esl310-rsm0-rcm69-esm100-rsr0-rcr44-esr100.exr,ReadingArea_rsl0-rcl11-esl310-rsm0-rcm69-esm100-rsr0-rcr44-esr100.npz,,,,,0,90,90,330,,right,red,1.27,343.68183517456055,344.17295813560486,2,8,3,lightness,readingArea,realistic,75,2023-03-28_15h27.37.195,tripletExp_regina_11082022,2022.2.4,119.79789497736458,
12,2,9,0,0.027777777777778,3.10526315789474,0,0.25,0.298245614035088,0,0.444444444444444,1.0,ReadingArea_rsl0-rcl2-esl310-rsm0-rcm25-esm29-rsr0-rcr44-esr100,exr/ReadingArea_rsl0-rcl2-esl310-rsm0-rcm25-esm29-rsr0-rcr44-esr100.exr,ReadingArea_rsl0-rcl2-esl310-rsm0-rcm25-esm29-rsr0-rcr44-esr100.npz,,,,,0,91,91,495,,left,green,1.15,345.894819021225,346.3693790435791,2,8,3,lightness,readingArea,realistic,75,2023-03-28_15h27.37.195,tripletExp_regina_11082022,2022.2.4,119.79789497736458,
12,10,5,0,0.027777777777778,3.10526315789474,0,0.694444444444444,1.0,0,1.0,0.298245614035088,ReadingArea_rsl0-rcl2-esl310-rsm0-rcm69-esm100-rsr0-rcr100-esr29,exr/ReadingArea_rsl0-rcl2-esl310-rsm0-rcm69-esm100-rsr0-rcr100-esr29.exr,ReadingArea_rsl0-rcl2-esl310-rsm0-rcm69-esm100-rsr0-rcr100-esr29.npz,,,,,0,92,92,470,,right,red,1.11,348.0776641368866,348.6062681674957,2,8,3,lightness,readingArea,realistic,75,2023-03-28_15h27.37.195,tripletExp_regina_11082022,2022.2.4,119.79789497736458,
13,14,7,0,0.111111111111111,3.10526315789474,0,0.25,3.10526315789474,0,0.111111111111111,1.0,ReadingArea_rsl0-rcl11-esl310-rsm0-rcm25-esm310-rsr0-rcr11-esr100,exr/ReadingArea_rsl0-rcl11-esl310-rsm0-rcm25-esm310-rsr0-rcr11-esr100.exr,ReadingArea_rsl0-rcl11-esl310-rsm0-rcm25-esm310-rsr0-rcr11-esr100.npz,,,,,0,93,93,324,,left,green,2.84,352.0988612174988,,2,8,3,lightness,readingArea,realistic,75,2023-03-28_15h27.37.195,tripletExp_regina_11082022,2022.2.4,119.79789497736458,
1,5,13,0,0.111111111111111,0.298245614035088,0,1.0,0.298245614035088,0,0.111111111111111,3.10526315789474,ReadingArea_rsl0-rcl11-esl29-rsm0-rcm100-esm29-rsr0-rcr11-esr310,exr/ReadingArea_rsl0-rcl11-esl29-rsm0-rcm100-esm29-rsr0-rcr11-esr310.exr,ReadingArea_rsl0-rcl11-esl29-rsm0-rcm100-esm29-rsr0-rcr11-esr310.npz,,,,,0,94,94,598,,right,red,0.97,354.34697699546814,354.872367143631,2,8,3,lightness,readingArea,realistic,75,2023-03-28_15h27.37.195,tripletExp_regina_11082022,2022.2.4,119.79789497736458,
13,0,12,0,0.111111111111111,3.10526315789474,0,0.027777777777778,0.298245614035088,0,0.027777777777778,3.10526315789474,ReadingArea_rsl0-rcl11-esl310-rsm0-rcm2-esm29-rsr0-rcr2-esr310,exr/ReadingArea_rsl0-rcl11-esl310-rsm0-rcm2-esm29-rsr0-rcr2-esr310.exr,ReadingArea_rsl0-rcl11-esl310-rsm0-rcm2-esm29-rsr0-rcr2-esr310.npz,,,,,0,95,95,56,,right,red,3.99,360.1387732028961,360.5893301963806,2,8,3,lightness,readingArea,realistic,75,2023-03-28_15h27.37.195,tripletExp_regina_11082022,2022.2.4,119.79789497736458,
14,6,5,0,0.25,3.10526315789474,0,0.027777777777778,1.0,0,1.0,0.298245614035088,ReadingArea_rsl0-rcl25-esl310-rsm0-rcm2-esm100-rsr0-rcr100-esr29,exr/ReadingArea_rsl0-rcl25-esl310-rsm0-rcm2-esm100-rsr0-rcr100-esr29.exr,ReadingArea_rsl0-rcl25-esl310-rsm0-rcm2-esm100-rsr0-rcr100-esr29.npz,,,,,0,96,96,297,,right,red,1.01,362.2843730449677,362.7507281303406,2,8,3,lightness,readingArea,realistic,75,2023-03-28_15h27.37.195,tripletExp_regina_11082022,2022.2.4,119.79789497736458,
12,3,13,0,0.027777777777778,3.10526315789474,0,0.444444444444444,0.298245614035088,0,0.111111111111111,3.10526315789474,ReadingArea_rsl0-rcl2-esl310-rsm0-rcm44-esm29-rsr0-rcr11-esr310,exr/ReadingArea_rsl0-rcl2-esl310-rsm0-rcm44-esm29-rsr0-rcr11-esr310.exr,ReadingArea_rsl0-rcl2-esl310-rsm0-rcm44-esm29-rsr0-rcr11-esr310.npz,,,,,0,97,97,383,,right,red,1.04,364.4620900154114,364.9855580329895,2,8,3,lightness,readingArea,realistic,75,2023-03-28_15h27.37.195,tripletExp_regina_11082022,2022.2.4,119.79789497736458,
7,10,4,0,0.111111111111111,1.0,0,0.694444444444444,1.0,0,0.694444444444444,0.298245614035088,ReadingArea_rsl0-rcl11-esl100-rsm0-rcm69-esm100-rsr0-rcr69-esr29,exr/ReadingArea_rsl0-rcl11-esl100-rsm0-rcm69-esm100-rsr0-rcr69-esr29.exr,ReadingArea_rsl0-rcl11-esl100-rsm0-rcm69-esm100-rsr0-rcr69-esr29.npz,,,,,0,98,98,46,,right,red,1.3,366.6737229824066,367.19946813583374,2,8,3,lightness,readingArea,realistic,75,2023-03-28_15h27.37.195,tripletExp_regina_11082022,2022.2.4,119.79789497736458,
5,9,0,0,1.0,0.298245614035088,0,0.444444444444444,1.0,0,0.027777777777778,0.298245614035088,ReadingArea_rsl0-rcl100-esl29-rsm0-rcm44-esm100-rsr0-rcr2-esr29,exr/ReadingArea_rsl0-rcl100-esl29-rsm0-rcm44-esm100-rsr0-rcr2-esr29.exr,ReadingArea_rsl0-rcl100-esl29-rsm0-rcm44-esm100-rsr0-rcr2-esr29.npz,,,,,0,99,99,575,,left,green,0.92,368.9210820198059,369.3769471645355,2,8,3,lightness,readingArea,realistic,75,2023-03-28_15h27.37.195,tripletExp_regina_11082022,2022.2.4,119.79789497736458,
14,5,10,0,0.25,3.10526315789474,0,1.0,0.298245614035088,0,0.694444444444444,1.0,ReadingArea_rsl0-rcl25-esl310-rsm0-rcm100-esm29-rsr0-rcr69-esr100,exr/ReadingArea_rsl0-rcl25-esl310-rsm0-rcm100-esm29-rsr0-rcr69-esr100.exr,ReadingArea_rsl0-rcl25-esl310-rsm0-rcm100-esm29-rsr0-rcr69-esr100.npz,,,,,0,100,100,170,,right,red,1.38,371.0647630691528,371.60780119895935,2,8,3,lightness,readingArea,realistic,75,2023-03-28_15h27.37.195,tripletExp_regina_11082022,2022.2.4,119.79789497736458,
1,6,11,0,0.111111111111111,0.298245614035088,0,0.027777777777778,1.0,0,1.0,1.0,ReadingArea_rsl0-rcl11-esl29-rsm0-rcm2-esm100-rsr0-rcr100-esr100,exr/ReadingArea_rsl0-rcl11-esl29-rsm0-rcm2-esm100-rsr0-rcr100-esr100.exr,ReadingArea_rsl0-rcl11-esl29-rsm0-rcm2-esm100-rsr0-rcr100-esr100.npz,,,,,0,101,101,39,,left,green,0.88,373.3240962028504,373.8348500728607,2,8,3,lightness,readingArea,realistic,75,2023-03-28_15h27.37.195,tripletExp_regina_11082022,2022.2.4,119.79789497736458,
7,5,11,0,0.111111111111111,1.0,0,1.0,0.298245614035088,0,1.0,1.0,ReadingArea_rsl0-rcl11-esl100-rsm0-rcm100-esm29-rsr0-rcr100-esr100,exr/ReadingArea_rsl0-rcl11-esl100-rsm0-rcm100-esm29-rsr0-rcr100-esr100.exr,ReadingArea_rsl0-rcl11-esl100-rsm0-rcm100-esm29-rsr0-rcr100-esr100.npz,,,,,0,102,102,10,,right,red,0.84,375.5403890609741,376.0199902057648,2,8,3,lightness,readingArea,realistic,75,2023-03-28_15h27.37.195,tripletExp_regina_11082022,2022.2.4,119.79789497736458,
10,1,6,0,0.694444444444444,1.0,0,0.111111111111111,0.298245614035088,0,0.027777777777778,1.0,ReadingArea_rsl0-rcl69-esl100-rsm0-rcm11-esm29-rsr0-rcr2-esr100,exr/ReadingArea_rsl0-rcl69-esl100-rsm0-rcm11-esm29-rsr0-rcr2-esr100.exr,ReadingArea_rsl0-rcl69-esl100-rsm0-rcm11-esm29-rsr0-rcr2-esr100.npz,,,,,0,103,103,160,,right,red,0.81,377.7097342014313,378.1786940097809,2,8,3,lightness,readingArea,realistic,75,2023-03-28_15h27.37.195,tripletExp_regina_11082022,2022.2.4,119.79789497736458,
2,1,6,0,0.25,0.298245614035088,0,0.111111111111111,0.298245614035088,0,0.027777777777778,1.0,ReadingArea_rsl0-rcl25-esl29-rsm0-rcm11-esm29-rsr0-rcr2-esr100,exr/ReadingArea_rsl0-rcl25-esl29-rsm0-rcm11-esm29-rsr0-rcr2-esr100.exr,ReadingArea_rsl0-rcl25-esl29-rsm0-rcm11-esm29-rsr0-rcr2-esr100.npz,,,,,0,104,104,171,,right,red,2.4,381.6364200115204,382.1250751018524,2,8,3,lightness,readingArea,realistic,75,2023-03-28_15h27.37.195,tripletExp_regina_11082022,2022.2.4,119.79789497736458,
14,0,5,0,0.25,3.10526315789474,0,0.027777777777778,0.298245614035088,0,1.0,0.298245614035088,ReadingArea_rsl0-rcl25-esl310-rsm0-rcm2-esm29-rsr0-rcr100-esr29,exr/ReadingArea_rsl0-rcl25-esl310-rsm0-rcm2-esm29-rsr0-rcr100-esr29.exr,ReadingArea_rsl0-rcl25-esl310-rsm0-rcm2-esm29-rsr0-rcr100-esr29.npz,,,,,0,105,105,418,,right,red,1.75,383.8183481693268,384.30902218818665,2,8,3,lightness,readingArea,realistic,75,2023-03-28_15h27.37.195,tripletExp_regina_11082022,2022.2.4,119.79789497736458,
12,5,10,0,0.027777777777778,3.10526315789474,0,1.0,0.298245614035088,0,0.694444444444444,1.0,ReadingArea_rsl0-rcl2-esl310-rsm0-rcm100-esm29-rsr0-rcr69-esr100,exr/ReadingArea_rsl0-rcl2-esl310-rsm0-rcm100-esm29-rsr0-rcr69-esr100.exr,ReadingArea_rsl0-rcl2-esl310-rsm0-rcm100-esm29-rsr0-rcr69-esr100.npz,,,,,0,106,106,493,,right,red,1.42,386.0083601474762,386.47129821777344,2,8,3,lightness,readingArea,realistic,75,2023-03-28_15h27.37.195,tripletExp_regina_11082022,2022.2.4,119.79789497736458,
10,9,6,0,0.694444444444444,1.0,0,0.444444444444444,1.0,0,0.027777777777778,1.0,ReadingArea_rsl0-rcl69-esl100-rsm0-rcm44-esm100-rsr0-rcr2-esr100,exr/ReadingArea_rsl0-rcl69-esl100-rsm0-rcm44-esm100-rsr0-rcr2-esr100.exr,ReadingArea_rsl0-rcl69-esl100-rsm0-rcm44-esm100-rsr0-rcr2-esr100.npz,,,,,0,107,107,35,,left,green,0.77,388.1758620738983,388.6957881450653,2,8,3,lightness,readingArea,realistic,75,2023-03-28_15h27.37.195,tripletExp_regina_11082022,2022.2.4,119.79789497736458,
11,9,4,0,1.0,1.0,0,0.444444444444444,1.0,0,0.694444444444444,0.298245614035088,ReadingArea_rsl0-rcl100-esl100-rsm0-rcm44-esm100-rsr0-rcr69-esr29,exr/ReadingArea_rsl0-rcl100-esl100-rsm0-rcm44-esm100-rsr0-rcr69-esr29.exr,ReadingArea_rsl0-rcl100-esl100-rsm0-rcm44-esm100-rsr0-rcr69-esr29.npz,,,,,0,108,108,26,,right,red,1.15,390.3847889900208,390.9000551700592,2,8,3,lightness,readingArea,realistic,75,2023-03-28_15h27.37.195,tripletExp_regina_11082022,2022.2.4,119.79789497736458,
6,13,5,0,0.027777777777778,1.0,0,0.111111111111111,3.10526315789474,0,1.0,0.298245614035088,ReadingArea_rsl0-rcl2-esl100-rsm0-rcm11-esm310-rsr0-rcr100-esr29,exr/ReadingArea_rsl0-rcl2-esl100-rsm0-rcm11-esm310-rsr0-rcr100-esr29.exr,ReadingArea_rsl0-rcl2-esl100-rsm0-rcm11-esm310-rsr0-rcr100-esr29.npz,,,,,0,109,109,53,,right,red,0.9,392.5888650417328,,2,8,3,lightness,readingArea,realistic,75,2023-03-28_15h27.37.195,tripletExp_regina_11082022,2022.2.4,119.79789497736458,
4,8,0,0,0.694444444444444,0.298245614035088,0,0.25,1.0,0,0.027777777777778,0.298245614035088,ReadingArea_rsl0-rcl69-esl29-rsm0-rcm25-esm100-rsr0-rcr2-esr29,exr/ReadingArea_rsl0-rcl69-esl29-rsm0-rcm25-esm100-rsr0-rcr2-esr29.exr,ReadingArea_rsl0-rcl69-esl29-rsm0-rcm25-esm100-rsr0-rcr2-esr29.npz,,,,,0,110,110,137,,left,green,0.72,394.8188800811768,395.2895021438599,2,8,3,lightness,readingArea,realistic,75,2023-03-28_15h27.37.195,tripletExp_regina_11082022,2022.2.4,119.79789497736458,
9,6,14,0,0.444444444444444,1.0,0,0.027777777777778,1.0,0,0.25,3.10526315789474,ReadingArea_rsl0-rcl44-esl100-rsm0-rcm2-esm100-rsr0-rcr25-esr310,exr/ReadingArea_rsl0-rcl44-esl100-rsm0-rcm2-esm100-rsr0-rcr25-esr310.exr,ReadingArea_rsl0-rcl44-esl100-rsm0-rcm2-esm100-rsr0-rcr25-esr310.npz,,,,,0,111,111,213,,left,green,2.37,398.7772500514984,399.2379171848297,2,8,3,lightness,readingArea,realistic,75,2023-03-28_15h27.37.195,tripletExp_regina_11082022,2022.2.4,119.79789497736458,
3,6,4,0,0.444444444444444,0.298245614035088,0,0.027777777777778,1.0,0,0.694444444444444,0.298245614035088,ReadingArea_rsl0-rcl44-esl29-rsm0-rcm2-esm100-rsr0-rcr69-esr29,exr/ReadingArea_rsl0-rcl44-esl29-rsm0-rcm2-esm100-rsr0-rcr69-esr29.exr,ReadingArea_rsl0-rcl44-esl29-rsm0-rcm2-esm100-rsr0-rcr69-esr29.npz,,,,,0,112,112,154,,left,green,3.02,402.698126077652,403.15349221229553,2,8,3,lightness,readingArea,realistic,75,2023-03-28_15h27.37.195,tripletExp_regina_11082022,2022.2.4,119.79789497736458,
8,11,1,0,0.25,1.0,0,1.0,1.0,0,0.111111111111111,0.298245614035088,ReadingArea_rsl0-rcl25-esl100-rsm0-rcm100-esm100-rsr0-rcr11-esr29,exr/ReadingArea_rsl0-rcl25-esl100-rsm0-rcm100-esm100-rsr0-rcr11-esr29.exr,ReadingArea_rsl0-rcl25-esl100-rsm0-rcm100-esm100-rsr0-rcr11-esr29.npz,,,,,0,113,113,132,,left,green,2.56,406.6370940208435,407.1362121105194,2,8,3,lightness,readingArea,realistic,75,2023-03-28_15h27.37.195,tripletExp_regina_11082022,2022.2.4,119.79789497736458,
5,13,12,0,1.0,0.298245614035088,0,0.111111111111111,3.10526315789474,0,0.027777777777778,3.10526315789474,ReadingArea_rsl0-rcl100-esl29-rsm0-rcm11-esm310-rsr0-rcr2-esr310,exr/ReadingArea_rsl0-rcl100-esl29-rsm0-rcm11-esm310-rsr0-rcr2-esr310.exr,ReadingArea_rsl0-rcl100-esl29-rsm0-rcm11-esm310-rsr0-rcr2-esr310.npz,,,,,0,114,114,389,,right,red,0.98,408.8372020721436,409.33219814300537,2,8,3,lightness,readingArea,realistic,75,2023-03-28_15h27.37.195,tripletExp_regina_11082022,2022.2.4,119.79789497736458,
10,11,12,0,0.694444444444444,1.0,0,1.0,1.0,0,0.027777777777778,3.10526315789474,ReadingArea_rsl0-rcl69-esl100-rsm0-rcm100-esm100-rsr0-rcr2-esr310,exr/ReadingArea_rsl0-rcl69-esl100-rsm0-rcm100-esm100-rsr0-rcr2-esr310.exr,ReadingArea_rsl0-rcl69-esl100-rsm0-rcm100-esm100-rsr0-rcr2-esr310.npz,,,,,0,115,115,533,,left,green,0.74,411.0250182151794,,2,8,3,lightness,readingArea,realistic,75,2023-03-28_15h27.37.195,tripletExp_regina_11082022,2022.2.4,119.79789497736458,
13,10,11,0,0.111111111111111,3.10526315789474,0,0.694444444444444,1.0,0,1.0,1.0,ReadingArea_rsl0-rcl11-esl310-rsm0-rcm69-esm100-rsr0-rcr100-esr100,exr/ReadingArea_rsl0-rcl11-esl310-rsm0-rcm69-esm100-rsr0-rcr100-esr100.exr,ReadingArea_rsl0-rcl11-esl310-rsm0-rcm69-esm100-rsr0-rcr100-esr100.npz,,,,,0,116,116,320,,right,red,0.75,413.2721230983734,413.75866317749023,2,8,3,lightness,readingArea,realistic,75,2023-03-28_15h27.37.195,tripletExp_regina_11082022,2022.2.4,119.79789497736458,
8,2,0,0,0.25,1.0,0,0.25,0.298245614035088,0,0.027777777777778,0.298245614035088,ReadingArea_rsl0-rcl25-esl100-rsm0-rcm25-esm29-rsr0-rcr2-esr29,exr/ReadingArea_rsl0-rcl25-esl100-rsm0-rcm25-esm29-rsr0-rcr2-esr29.exr,ReadingArea_rsl0-rcl25-esl100-rsm0-rcm25-esm29-rsr0-rcr2-esr29.npz,,,,,0,117,117,574,,left,green,1.5,415.4548220634461,415.96848821640015,2,8,3,lightness,readingArea,realistic,75,2023-03-28_15h27.37.195,tripletExp_regina_11082022,2022.2.4,119.79789497736458,
7,11,13,0,0.111111111111111,1.0,0,1.0,1.0,0,0.111111111111111,3.10526315789474,ReadingArea_rsl0-rcl11-esl100-rsm0-rcm100-esm100-rsr0-rcr11-esr310,exr/ReadingArea_rsl0-rcl11-esl100-rsm0-rcm100-esm100-rsr0-rcr11-esr310.exr,ReadingArea_rsl0-rcl11-esl100-rsm0-rcm100-esm100-rsr0-rcr11-esr310.npz,,,,,0,118,118,76,,right,red,1.71,417.6569499969482,418.12808418273926,2,8,3,lightness,readingArea,realistic,75,2023-03-28_15h27.37.195,tripletExp_regina_11082022,2022.2.4,119.79789497736458,
11,7,13,0,1.0,1.0,0,0.111111111111111,1.0,0,0.111111111111111,3.10526315789474,ReadingArea_rsl0-rcl100-esl100-rsm0-rcm11-esm100-rsr0-rcr11-esr310,exr/ReadingArea_rsl0-rcl100-esl100-rsm0-rcm11-esm100-rsr0-rcr11-esr310.exr,ReadingArea_rsl0-rcl100-esl100-rsm0-rcm11-esm100-rsr0-rcr11-esr310.npz,,,,,0,119,119,431,,right,red,1.6,419.840793132782,420.3077211380005,2,8,3,lightness,readingArea,realistic,75,2023-03-28_15h27.37.195,tripletExp_regina_11082022,2022.2.4,119.79789497736458,
11,12,10,0,1.0,1.0,0,0.027777777777778,3.10526315789474,0,0.694444444444444,1.0,ReadingArea_rsl0-rcl100-esl100-rsm0-rcm2-esm310-rsr0-rcr69-esr100,exr/ReadingArea_rsl0-rcl100-esl100-rsm0-rcm2-esm310-rsr0-rcr69-esr100.exr,ReadingArea_rsl0-rcl100-esl100-rsm0-rcm2-esm310-rsr0-rcr69-esr100.npz,,,,,0,120,120,465,,right,red,3.36,423.7721080780029,424.28395819664,2,8,3,lightness,readingArea,realistic,75,2023-03-28_15h27.37.195,tripletExp_regina_11082022,2022.2.4,119.79789497736458,
6,11,8,0,0.027777777777778,1.0,0,1.0,1.0,0,0.25,1.0,ReadingArea_rsl0-rcl2-esl100-rsm0-rcm100-esm100-rsr0-rcr25-esr100,exr/ReadingArea_rsl0-rcl2-esl100-rsm0-rcm100-esm100-rsr0-rcr25-esr100.exr,ReadingArea_rsl0-rcl2-esl100-rsm0-rcm100-esm100-rsr0-rcr25-esr100.npz,,,,,0,121,121,176,,right,red,1.01,426.0057191848755,426.5057961940765,2,8,3,lightness,readingArea,realistic,75,2023-03-28_15h27.37.195,tripletExp_regina_11082022,2022.2.4,119.79789497736458,
11,0,12,0,1.0,1.0,0,0.027777777777778,0.298245614035088,0,0.027777777777778,3.10526315789474,ReadingArea_rsl0-rcl100-esl100-rsm0-rcm2-esm29-rsr0-rcr2-esr310,exr/ReadingArea_rsl0-rcl100-esl100-rsm0-rcm2-esm29-rsr0-rcr2-esr310.exr,ReadingArea_rsl0-rcl100-esl100-rsm0-rcm2-esm29-rsr0-rcr2-esr310.npz,,,,,0,122,122,166,,right,red,1.18,428.1964020729065,428.675537109375,2,8,3,lightness,readingArea,realistic,75,2023-03-28_15h27.37.195,tripletExp_regina_11082022,2022.2.4,119.79789497736458,
9,6,11,0,0.444444444444444,1.0,0,0.027777777777778,1.0,0,1.0,1.0,ReadingArea_rsl0-rcl44-esl100-rsm0-rcm2-esm100-rsr0-rcr100-esr100,exr/ReadingArea_rsl0-rcl44-esl100-rsm0-rcm2-esm100-rsr0-rcr100-esr100.exr,ReadingArea_rsl0-rcl44-esl100-rsm0-rcm2-esm100-rsr0-rcr100-esr100.npz,,,,,0,123,123,572,,left,green,1.42,430.37958908081055,430.89659309387207,2,8,3,lightness,readingArea,realistic,75,2023-03-28_15h27.37.195,tripletExp_regina_11082022,2022.2.4,119.79789497736458,
7,9,5,0,0.111111111111111,1.0,0,0.444444444444444,1.0,0,1.0,0.298245614035088,ReadingArea_rsl0-rcl11-esl100-rsm0-rcm44-esm100-rsr0-rcr100-esr29,exr/ReadingArea_rsl0-rcl11-esl100-rsm0-rcm44-esm100-rsr0-rcr100-esr29.exr,ReadingArea_rsl0-rcl11-esl100-rsm0-rcm44-esm100-rsr0-rcr100-esr29.npz,,,,,0,124,124,291,,right,red,1.12,432.6001811027527,433.0772490501404,2,8,3,lightness,readingArea,realistic,75,2023-03-28_15h27.37.195,tripletExp_regina_11082022,2022.2.4,119.79789497736458,
3,4,5,0,0.444444444444444,0.298245614035088,0,0.694444444444444,0.298245614035088,0,1.0,0.298245614035088,ReadingArea_rsl0-rcl44-esl29-rsm0-rcm69-esm29-rsr0-rcr100-esr29,exr/ReadingArea_rsl0-rcl44-esl29-rsm0-rcm69-esm29-rsr0-rcr100-esr29.exr,ReadingArea_rsl0-rcl44-esl29-rsm0-rcm69-esm29-rsr0-rcr100-esr29.npz,,,,,0,125,125,233,,left,green,4.53,438.31981205940247,438.9705410003662,2,8,3,lightness,readingArea,realistic,75,2023-03-28_15h27.37.195,tripletExp_regina_11082022,2022.2.4,119.79789497736458,
10,11,9,0,0.694444444444444,1.0,0,1.0,1.0,0,0.444444444444444,1.0,ReadingArea_rsl0-rcl69-esl100-rsm0-rcm100-esm100-rsr0-rcr44-esr100,exr/ReadingArea_rsl0-rcl69-esl100-rsm0-rcm100-esm100-rsr0-rcr44-esr100.exr,ReadingArea_rsl0-rcl69-esl100-rsm0-rcm100-esm100-rsr0-rcr44-esr100.npz,,,,,0,126,126,492,,left,green,2.48,442.4477860927582,442.92975521087646,2,8,3,lightness,readingArea,realistic,75,2023-03-28_15h27.37.195,tripletExp_regina_11082022,2022.2.4,119.79789497736458,
10,0,11,0,0.694444444444444,1.0,0,0.027777777777778,0.298245614035088,0,1.0,1.0,ReadingArea_rsl0-rcl69-esl100-rsm0-rcm2-esm29-rsr0-rcr100-esr100,exr/ReadingArea_rsl0-rcl69-esl100-rsm0-rcm2-esm29-rsr0-rcr100-esr100.exr,ReadingArea_rsl0-rcl69-esl100-rsm0-rcm2-esm29-rsr0-rcr100-esr100.npz,,,,,0,127,127,573,,left,green,2.73,446.43190121650696,446.98825907707214,2,8,3,lightness,readingArea,realistic,75,2023-03-28_15h27.37.195,tripletExp_regina_11082022,2022.2.4,119.79789497736458,
6,13,8,0,0.027777777777778,1.0,0,0.111111111111111,3.10526315789474,0,0.25,1.0,ReadingArea_rsl0-rcl2-esl100-rsm0-rcm11-esm310-rsr0-rcr25-esr100,exr/ReadingArea_rsl0-rcl2-esl100-rsm0-rcm11-esm310-rsr0-rcr25-esr100.exr,ReadingArea_rsl0-rcl2-esl100-rsm0-rcm11-esm310-rsr0-rcr25-esr100.npz,,,,,0,128,128,535,,right,red,0.94,448.7056519985199,,2,8,3,lightness,readingArea,realistic,75,2023-03-28_15h27.37.195,tripletExp_regina_11082022,2022.2.4,119.79789497736458,
4,11,12,0,0.694444444444444,0.298245614035088,0,1.0,1.0,0,0.027777777777778,3.10526315789474,ReadingArea_rsl0-rcl69-esl29-rsm0-rcm100-esm100-rsr0-rcr2-esr310,exr/ReadingArea_rsl0-rcl69-esl29-rsm0-rcm100-esm100-rsr0-rcr2-esr310.exr,ReadingArea_rsl0-rcl69-esl29-rsm0-rcm100-esm100-rsr0-rcr2-esr310.npz,,,,,0,129,129,109,,left,green,1.12,450.9133760929108,451.4381980895996,2,8,3,lightness,readingArea,realistic,75,2023-03-28_15h27.37.195,tripletExp_regina_11082022,2022.2.4,119.79789497736458,
1,11,14,0,0.111111111111111,0.298245614035088,0,1.0,1.0,0,0.25,3.10526315789474,ReadingArea_rsl0-rcl11-esl29-rsm0-rcm100-esm100-rsr0-rcr25-esr310,exr/ReadingArea_rsl0-rcl11-esl29-rsm0-rcm100-esm100-rsr0-rcr25-esr310.exr,ReadingArea_rsl0-rcl11-esl29-rsm0-rcm100-esm100-rsr0-rcr25-esr310.npz,,,,,0,130,130,399,,right,red,0.99,453.1619760990143,453.6660561561585,2,8,3,lightness,readingArea,realistic,75,2023-03-28_15h27.37.195,tripletExp_regina_11082022,2022.2.4,119.79789497736458,
1,9,11,0,0.111111111111111,0.298245614035088,0,0.444444444444444,1.0,0,1.0,1.0,ReadingArea_rsl0-rcl11-esl29-rsm0-rcm44-esm100-rsr0-rcr100-esr100,exr/ReadingArea_rsl0-rcl11-esl29-rsm0-rcm44-esm100-rsr0-rcr100-esr100.exr,ReadingArea_rsl0-rcl11-esl29-rsm0-rcm44-esm100-rsr0-rcr100-esr100.npz,,,,,0,131,131,215,,right,red,2.33,457.15014815330505,457.62345004081726,2,8,3,lightness,readingArea,realistic,75,2023-03-28_15h27.37.195,tripletExp_regina_11082022,2022.2.4,119.79789497736458,
1,13,8,0,0.111111111111111,0.298245614035088,0,0.111111111111111,3.10526315789474,0,0.25,1.0,ReadingArea_rsl0-rcl11-esl29-rsm0-rcm11-esm310-rsr0-rcr25-esr100,exr/ReadingArea_rsl0-rcl11-esl29-rsm0-rcm11-esm310-rsr0-rcr25-esr100.exr,ReadingArea_rsl0-rcl11-esl29-rsm0-rcm11-esm310-rsr0-rcr25-esr100.npz,,,,,0,132,132,64,,right,red,1.18,459.3223280906677,459.7840740680695,2,8,3,lightness,readingArea,realistic,75,2023-03-28_15h27.37.195,tripletExp_regina_11082022,2022.2.4,119.79789497736458,
10,13,6,0,0.694444444444444,1.0,0,0.111111111111111,3.10526315789474,0,0.027777777777778,1.0,ReadingArea_rsl0-rcl69-esl100-rsm0-rcm11-esm310-rsr0-rcr2-esr100,exr/ReadingArea_rsl0-rcl69-esl100-rsm0-rcm11-esm310-rsr0-rcr2-esr100.exr,ReadingArea_rsl0-rcl69-esl100-rsm0-rcm11-esm310-rsr0-rcr2-esr100.npz,,,,,0,133,133,351,,right,red,1.23,461.4949162006378,461.9972891807556,2,8,3,lightness,readingArea,realistic,75,2023-03-28_15h27.37.195,tripletExp_regina_11082022,2022.2.4,119.79789497736458,
7,1,9,0,0.111111111111111,1.0,0,0.111111111111111,0.298245614035088,0,0.444444444444444,1.0,ReadingArea_rsl0-rcl11-esl100-rsm0-rcm11-esm29-rsr0-rcr44-esr100,exr/ReadingArea_rsl0-rcl11-esl100-rsm0-rcm11-esm29-rsr0-rcr44-esr100.exr,ReadingArea_rsl0-rcl11-esl100-rsm0-rcm11-esm29-rsr0-rcr44-esr100.npz,,,,,0,134,134,89,,left,green,0.85,463.7161190509796,464.1728050708771,2,8,3,lightness,readingArea,realistic,75,2023-03-28_15h27.37.195,tripletExp_regina_11082022,2022.2.4,119.79789497736458,
7,4,1,0,0.111111111111111,1.0,0,0.694444444444444,0.298245614035088,0,0.111111111111111,0.298245614035088,ReadingArea_rsl0-rcl11-esl100-rsm0-rcm69-esm29-rsr0-rcr11-esr29,exr/ReadingArea_rsl0-rcl11-esl100-rsm0-rcm69-esm29-rsr0-rcr11-esr29.exr,ReadingArea_rsl0-rcl11-esl100-rsm0-rcm69-esm29-rsr0-rcr11-esr29.npz,,,,,0,135,135,369,,left,green,2.93,467.6283030509949,468.0906870365143,2,8,3,lightness,readingArea,realistic,75,2023-03-28_15h27.37.195,tripletExp_regina_11082022,2022.2.4,119.79789497736458,
4,8,10,0,0.694444444444444,0.298245614035088,0,0.25,1.0,0,0.694444444444444,1.0,ReadingArea_rsl0-rcl69-esl29-rsm0-rcm25-esm100-rsr0-rcr69-esr100,exr/ReadingArea_rsl0-rcl69-esl29-rsm0-rcm25-esm100-rsr0-rcr69-esr100.exr,ReadingArea_rsl0-rcl69-esl29-rsm0-rcm25-esm100-rsr0-rcr69-esr100.npz,,,,,0,136,136,221,,left,green,3.51,471.5730750560761,472.0902910232544,2,8,3,lightness,readingArea,realistic,75,2023-03-28_15h27.37.195,tripletExp_regina_11082022,2022.2.4,119.79789497736458,
0,11,9,0,0.027777777777778,0.298245614035088,0,1.0,1.0,0,0.444444444444444,1.0,ReadingArea_rsl0-rcl2-esl29-rsm0-rcm100-esm100-rsr0-rcr44-esr100,exr/ReadingArea_rsl0-rcl2-esl29-rsm0-rcm100-esm100-rsr0-rcr44-esr100.exr,ReadingArea_rsl0-rcl2-esl29-rsm0-rcm100-esm100-rsr0-rcr44-esr100.npz,,,,,0,137,137,32,,right,red,1.24,473.78455901145935,,2,8,3,lightness,readingArea,realistic,75,2023-03-28_15h27.37.195,tripletExp_regina_11082022,2022.2.4,119.79789497736458,
10,11,5,0,0.694444444444444,1.0,0,1.0,1.0,0,1.0,0.298245614035088,ReadingArea_rsl0-rcl69-esl100-rsm0-rcm100-esm100-rsr0-rcr100-esr29,exr/ReadingArea_rsl0-rcl69-esl100-rsm0-rcm100-esm100-rsr0-rcr100-esr29.exr,ReadingArea_rsl0-rcl69-esl100-rsm0-rcm100-esm100-rsr0-rcr100-esr29.npz,,,,,0,138,138,514,,left,green,0.87,475.9824960231781,476.49113416671753,2,8,3,lightness,readingArea,realistic,75,2023-03-28_15h27.37.195,tripletExp_regina_11082022,2022.2.4,119.79789497736458,
7,13,5,0,0.111111111111111,1.0,0,0.111111111111111,3.10526315789474,0,1.0,0.298245614035088,ReadingArea_rsl0-rcl11-esl100-rsm0-rcm11-esm310-rsr0-rcr100-esr29,exr/ReadingArea_rsl0-rcl11-esl100-rsm0-rcm11-esm310-rsr0-rcr100-esr29.exr,ReadingArea_rsl0-rcl11-esl100-rsm0-rcm11-esm310-rsr0-rcr100-esr29.npz,,,,,0,139,139,332,,left,green,1.44,478.1831660270691,478.6456320285797,2,8,3,lightness,readingArea,realistic,75,2023-03-28_15h27.37.195,tripletExp_regina_11082022,2022.2.4,119.79789497736458,
11,5,2,0,1.0,1.0,0,1.0,0.298245614035088,0,0.25,0.298245614035088,ReadingArea_rsl0-rcl100-esl100-rsm0-rcm100-esm29-rsr0-rcr25-esr29,exr/ReadingArea_rsl0-rcl100-esl100-rsm0-rcm100-esm29-rsr0-rcr25-esr29.exr,ReadingArea_rsl0-rcl100-esl100-rsm0-rcm100-esm29-rsr0-rcr25-esr29.npz,,,,,0,140,140,596,,right,red,1.12,480.3669149875641,480.8526911735535,2,8,3,lightness,readingArea,realistic,75,2023-03-28_15h27.37.195,tripletExp_regina_11082022,2022.2.4,119.79789497736458,
5,2,10,0,1.0,0.298245614035088,0,0.25,0.298245614035088,0,0.694444444444444,1.0,ReadingArea_rsl0-rcl100-esl29-rsm0-rcm25-esm29-rsr0-rcr69-esr100,exr/ReadingArea_rsl0-rcl100-esl29-rsm0-rcm25-esm29-rsr0-rcr69-esr100.exr,ReadingArea_rsl0-rcl100-esl29-rsm0-rcm25-esm29-rsr0-rcr69-esr100.npz,,,,,0,141,141,595,,left,green,2.77,484.3363111019135,,2,8,3,lightness,readingArea,realistic,75,2023-03-28_15h27.37.195,tripletExp_regina_11082022,2022.2.4,119.79789497736458,
8,0,4,0,0.25,1.0,0,0.027777777777778,0.298245614035088,0,0.694444444444444,0.298245614035088,ReadingArea_rsl0-rcl25-esl100-rsm0-rcm2-esm29-rsr0-rcr69-esr29,exr/ReadingArea_rsl0-rcl25-esl100-rsm0-rcm2-esm29-rsr0-rcr69-esr29.exr,ReadingArea_rsl0-rcl25-esl100-rsm0-rcm2-esm29-rsr0-rcr69-esr29.npz,,,,,0,142,142,346,,right,red,3.0,488.327908039093,488.8509111404419,2,8,3,lightness,readingArea,realistic,75,2023-03-28_15h27.37.195,tripletExp_regina_11082022,2022.2.4,119.79789497736458,
1,12,0,0,0.111111111111111,0.298245614035088,0,0.027777777777778,3.10526315789474,0,0.027777777777778,0.298245614035088,ReadingArea_rsl0-rcl11-esl29-rsm0-rcm2-esm310-rsr0-rcr2-esr29,exr/ReadingArea_rsl0-rcl11-esl29-rsm0-rcm2-esm310-rsr0-rcr2-esr29.exr,ReadingArea_rsl0-rcl11-esl29-rsm0-rcm2-esm310-rsr0-rcr2-esr29.npz,,,,,0,143,143,113,,left,green,1.58,490.55845499038696,491.0327351093292,2,8,3,lightness,readingArea,realistic,75,2023-03-28_15h27.37.195,tripletExp_regina_11082022,2022.2.4,119.79789497736458,
14,6,11,0,0.25,3.10526315789474,0,0.027777777777778,1.0,0,1.0,1.0,ReadingArea_rsl0-rcl25-esl310-rsm0-rcm2-esm100-rsr0-rcr100-esr100,exr/ReadingArea_rsl0-rcl25-esl310-rsm0-rcm2-esm100-rsr0-rcr100-esr100.exr,ReadingArea_rsl0-rcl25-esl310-rsm0-rcm2-esm100-rsr0-rcr100-esr100.npz,,,,,0,144,144,337,,left,green,2.81,494.5084881782532,495.0278401374817,2,8,3,lightness,readingArea,realistic,75,2023-03-28_15h27.37.195,tripletExp_regina_11082022,2022.2.4,119.79789497736458,
5,2,0,0,1.0,0.298245614035088,0,0.25,0.298245614035088,0,0.027777777777778,0.298245614035088,ReadingArea_rsl0-rcl100-esl29-rsm0-rcm25-esm29-rsr0-rcr2-esr29,exr/ReadingArea_rsl0-rcl100-esl29-rsm0-rcm25-esm29-rsr0-rcr2-esr29.exr,ReadingArea_rsl0-rcl100-esl29-rsm0-rcm25-esm29-rsr0-rcr2-esr29.npz,,,,,0,145,145,476,,right,red,1.28,496.72959208488464,497.2206771373749,2,8,3,lightness,readingArea,realistic,75,2023-03-28_15h27.37.195,tripletExp_regina_11082022,2022.2.4,119.79789497736458,
3,10,4,0,0.444444444444444,0.298245614035088,0,0.694444444444444,1.0,0,0.694444444444444,0.298245614035088,ReadingArea_rsl0-rcl44-esl29-rsm0-rcm69-esm100-rsr0-rcr69-esr29,exr/ReadingArea_rsl0-rcl44-esl29-rsm0-rcm69-esm100-rsr0-rcr69-esr29.exr,ReadingArea_rsl0-rcl44-esl29-rsm0-rcm69-esm100-rsr0-rcr69-esr29.npz,,,,,0,146,146,435,,right,red,3.06,500.6743190288544,501.121689081192,2,8,3,lightness,readingArea,realistic,75,2023-03-28_15h27.37.195,tripletExp_regina_11082022,2022.2.4,119.79789497736458,
4,3,11,0,0.694444444444444,0.298245614035088,0,0.444444444444444,0.298245614035088,0,1.0,1.0,ReadingArea_rsl0-rcl69-esl29-rsm0-rcm44-esm29-rsr0-rcr100-esr100,exr/ReadingArea_rsl0-rcl69-esl29-rsm0-rcm44-esm29-rsr0-rcr100-esr100.exr,ReadingArea_rsl0-rcl69-esl29-rsm0-rcm44-esm29-rsr0-rcr100-esr100.npz,,,,,0,147,147,439,,left,green,0.86,502.8245730400085,503.3518850803375,2,8,3,lightness,readingArea,realistic,75,2023-03-28_15h27.37.195,tripletExp_regina_11082022,2022.2.4,119.79789497736458,
7,13,12,0,0.111111111111111,1.0,0,0.111111111111111,3.10526315789474,0,0.027777777777778,3.10526315789474,ReadingArea_rsl0-rcl11-esl100-rsm0-rcm11-esm310-rsr0-rcr2-esr310,exr/ReadingArea_rsl0-rcl11-esl100-rsm0-rcm11-esm310-rsr0-rcr2-esr310.exr,ReadingArea_rsl0-rcl11-esl100-rsm0-rcm11-esm310-rsr0-rcr2-esr310.npz,,,,,0,148,148,438,,right,red,3.1,506.8150510787964,,2,8,3,lightness,readingArea,realistic,75,2023-03-28_15h27.37.195,tripletExp_regina_11082022,2022.2.4,119.79789497736458,
13,1,4,0,0.111111111111111,3.10526315789474,0,0.111111111111111,0.298245614035088,0,0.694444444444444,0.298245614035088,ReadingArea_rsl0-rcl11-esl310-rsm0-rcm11-esm29-rsr0-rcr69-esr29,exr/ReadingArea_rsl0-rcl11-esl310-rsm0-rcm11-esm29-rsr0-rcr69-esr29.exr,ReadingArea_rsl0-rcl11-esl310-rsm0-rcm11-esm29-rsr0-rcr69-esr29.npz,,,,,0,149,149,396,,right,red,4.43,512.6042330265045,512.8062670230865,2,8,3,lightness,readingArea,realistic,75,2023-03-28_15h27.37.195,tripletExp_regina_11082022,2022.2.4,119.79789497736458,
9,0,11,0,0.444444444444444,1.0,0,0.027777777777778,0.298245614035088,0,1.0,1.0,ReadingArea_rsl0-rcl44-esl100-rsm0-rcm2-esm29-rsr0-rcr100-esr100,exr/ReadingArea_rsl0-rcl44-esl100-rsm0-rcm2-esm29-rsr0-rcr100-esr100.exr,ReadingArea_rsl0-rcl44-esl100-rsm0-rcm2-esm29-rsr0-rcr100-esr100.npz,,,,,0,150,150,319,,left,green,1.41,541.3153891563416,541.806657075882,3,8,3,lightness,readingArea,realistic,75,2023-03-28_15h27.37.195,tripletExp_regina_11082022,2022.2.4,119.79789497736458,
10,2,0,0,0.694444444444444,1.0,0,0.25,0.298245614035088,0,0.027777777777778,0.298245614035088,ReadingArea_rsl0-rcl69-esl100-rsm0-rcm25-esm29-rsr0-rcr2-esr29,exr/ReadingArea_rsl0-rcl69-esl100-rsm0-rcm25-esm29-rsr0-rcr2-esr29.exr,ReadingArea_rsl0-rcl69-esl100-rsm0-rcm25-esm29-rsr0-rcr2-esr29.npz,,,,,0,151,151,427,,right,red,1.15,543.4967360496521,543.955708026886,3,8,3,lightness,readingArea,realistic,75,2023-03-28_15h27.37.195,tripletExp_regina_11082022,2022.2.4,119.79789497736458,
14,2,6,0,0.25,3.10526315789474,0,0.25,0.298245614035088,0,0.027777777777778,1.0,ReadingArea_rsl0-rcl25-esl310-rsm0-rcm25-esm29-rsr0-rcr2-esr100,exr/ReadingArea_rsl0-rcl25-esl310-rsm0-rcm25-esm29-rsr0-rcr2-esr100.exr,ReadingArea_rsl0-rcl25-esl310-rsm0-rcm25-esm29-rsr0-rcr2-esr100.npz,,,,,0,152,152,350,,right,red,0.84,545.6446890830994,546.1477670669556,3,8,3,lightness,readingArea,realistic,75,2023-03-28_15h27.37.195,tripletExp_regina_11082022,2022.2.4,119.79789497736458,
14,7,0,0,0.25,3.10526315789474,0,0.111111111111111,1.0,0,0.027777777777778,0.298245614035088,ReadingArea_rsl0-rcl25-esl310-rsm0-rcm11-esm100-rsr0-rcr2-esr29,exr/ReadingArea_rsl0-rcl25-esl310-rsm0-rcm11-esm100-rsr0-rcr2-esr29.exr,ReadingArea_rsl0-rcl25-esl310-rsm0-rcm11-esm100-rsr0-rcr2-esr29.npz,,,,,0,153,153,412,,right,red,2.43,549.6254110336304,550.2140300273895,3,8,3,lightness,readingArea,realistic,75,2023-03-28_15h27.37.195,tripletExp_regina_11082022,2022.2.4,119.79789497736458,
13,10,7,0,0.111111111111111,3.10526315789474,0,0.694444444444444,1.0,0,0.111111111111111,1.0,ReadingArea_rsl0-rcl11-esl310-rsm0-rcm69-esm100-rsr0-rcr11-esr100,exr/ReadingArea_rsl0-rcl11-esl310-rsm0-rcm69-esm100-rsr0-rcr11-esr100.exr,ReadingArea_rsl0-rcl11-esl310-rsm0-rcm69-esm100-rsr0-rcr11-esr100.npz,,,,,0,154,154,385,,left,green,2.74,553.7036831378937,554.2323791980743,3,8,3,lightness,readingArea,realistic,75,2023-03-28_15h27.37.195,tripletExp_regina_11082022,2022.2.4,119.79789497736458,
5,2,7,0,1.0,0.298245614035088,0,0.25,0.298245614035088,0,0.111111111111111,1.0,ReadingArea_rsl0-rcl100-esl29-rsm0-rcm25-esm29-rsr0-rcr11-esr100,exr/ReadingArea_rsl0-rcl100-esl29-rsm0-rcm25-esm29-rsr0-rcr11-esr100.exr,ReadingArea_rsl0-rcl100-esl29-rsm0-rcm25-esm29-rsr0-rcr11-esr100.npz,,,,,0,155,155,179,,right,red,0.86,555.9451429843903,556.4590611457825,3,8,3,lightness,readingArea,realistic,75,2023-03-28_15h27.37.195,tripletExp_regina_11082022,2022.2.4,119.79789497736458,
12,8,9,0,0.027777777777778,3.10526315789474,0,0.25,1.0,0,0.444444444444444,1.0,ReadingArea_rsl0-rcl2-esl310-rsm0-rcm25-esm100-rsr0-rcr44-esr100,exr/ReadingArea_rsl0-rcl2-esl310-rsm0-rcm25-esm100-rsr0-rcr44-esr100.exr,ReadingArea_rsl0-rcl2-esl310-rsm0-rcm25-esm100-rsr0-rcr44-esr100.npz,,,,,0,156,156,517,,right,red,1.32,558.1638281345367,558.6181111335754,3,8,3,lightness,readingArea,realistic,75,2023-03-28_15h27.37.195,tripletExp_regina_11082022,2022.2.4,119.79789497736458,
3,6,10,0,0.444444444444444,0.298245614035088,0,0.027777777777778,1.0,0,0.694444444444444,1.0,ReadingArea_rsl0-rcl44-esl29-rsm0-rcm2-esm100-rsr0-rcr69-esr100,exr/ReadingArea_rsl0-rcl44-esl29-rsm0-rcm2-esm100-rsr0-rcr69-esr100.exr,ReadingArea_rsl0-rcl44-esl29-rsm0-rcm2-esm100-rsr0-rcr69-esr100.npz,,,,,0,157,157,138,,left,green,1.33,560.3406660556793,,3,8,3,lightness,readingArea,realistic,75,2023-03-28_15h27.37.195,tripletExp_regina_11082022,2022.2.4,119.79789497736458,
9,0,6,0,0.444444444444444,1.0,0,0.027777777777778,0.298245614035088,0,0.027777777777778,1.0,ReadingArea_rsl0-rcl44-esl100-rsm0-rcm2-esm29-rsr0-rcr2-esr100,exr/ReadingArea_rsl0-rcl44-esl100-rsm0-rcm2-esm29-rsr0-rcr2-esr100.exr,ReadingArea_rsl0-rcl44-esl100-rsm0-rcm2-esm29-rsr0-rcr2-esr100.npz,,,,,0,158,158,362,,right,red,0.75,562.5129930973053,563.0293509960175,3,8,3,lightness,readingArea,realistic,75,2023-03-28_15h27.37.195,tripletExp_regina_11082022,2022.2.4,119.79789497736458,
1,5,7,0,0.111111111111111,0.298245614035088,0,1.0,0.298245614035088,0,0.111111111111111,1.0,ReadingArea_rsl0-rcl11-esl29-rsm0-rcm100-esm29-rsr0-rcr11-esr100,exr/ReadingArea_rsl0-rcl11-esl29-rsm0-rcm100-esm29-rsr0-rcr11-esr100.exr,ReadingArea_rsl0-rcl11-esl29-rsm0-rcm100-esm29-rsr0-rcr11-esr100.npz,,,,,0,159,159,197,,right,red,2.48,566.4947040081024,566.9802281856537,3,8,3,lightness,readingArea,realistic,75,2023-03-28_15h27.37.195,tripletExp_regina_11082022,2022.2.4,119.79789497736458,
9,13,5,0,0.444444444444444,1.0,0,0.111111111111111,3.10526315789474,0,1.0,0.298245614035088,ReadingArea_rsl0-rcl44-esl100-rsm0-rcm11-esm310-rsr0-rcr100-esr29,exr/ReadingArea_rsl0-rcl44-esl100-rsm0-rcm11-esm310-rsr0-rcr100-esr29.exr,ReadingArea_rsl0-rcl44-esl100-rsm0-rcm11-esm310-rsr0-rcr100-esr29.npz,,,,,0,160,160,349,,right,red,4.36,572.2372560501099,572.7132790088654,3,8,3,lightness,readingArea,realistic,75,2023-03-28_15h27.37.195,tripletExp_regina_11082022,2022.2.4,119.79789497736458,
4,7,5,0,0.694444444444444,0.298245614035088,0,0.111111111111111,1.0,0,1.0,0.298245614035088,ReadingArea_rsl0-rcl69-esl29-rsm0-rcm11-esm100-rsr0-rcr100-esr29,exr/ReadingArea_rsl0-rcl69-esl29-rsm0-rcm11-esm100-rsr0-rcr100-esr29.exr,ReadingArea_rsl0-rcl69-esl29-rsm0-rcm11-esm100-rsr0-rcr100-esr29.npz,,,,,0,161,161,195,,left,green,3.12,576.1956551074982,576.673397064209,3,8,3,lightness,readingArea,realistic,75,2023-03-28_15h27.37.195,tripletExp_regina_11082022,2022.2.4,119.79789497736458,
9,8,0,0,0.444444444444444,1.0,0,0.25,1.0,0,0.027777777777778,0.298245614035088,ReadingArea_rsl0-rcl44-esl100-rsm0-rcm25-esm100-rsr0-rcr2-esr29,exr/ReadingArea_rsl0-rcl44-esl100-rsm0-rcm25-esm100-rsr0-rcr2-esr29.exr,ReadingArea_rsl0-rcl44-esl100-rsm0-rcm25-esm100-rsr0-rcr2-esr29.npz,,,,,0,162,162,66,,left,green,0.96,578.3793749809265,578.9064791202545,3,8,3,lightness,readingArea,realistic,75,2023-03-28_15h27.37.195,tripletExp_regina_11082022,2022.2.4,119.79789497736458,
5,2,8,0,1.0,0.298245614035088,0,0.25,0.298245614035088,0,0.25,1.0,ReadingArea_rsl0-rcl100-esl29-rsm0-rcm25-esm29-rsr0-rcr25-esr100,exr/ReadingArea_rsl0-rcl100-esl29-rsm0-rcm25-esm29-rsr0-rcr25-esr100.exr,ReadingArea_rsl0-rcl100-esl29-rsm0-rcm25-esm29-rsr0-rcr25-esr100.npz,,,,,0,163,163,538,,right,red,1.15,580.6146221160889,581.1247081756592,3,8,3,lightness,readingArea,realistic,75,2023-03-28_15h27.37.195,tripletExp_regina_11082022,2022.2.4,119.79789497736458,
2,4,14,0,0.25,0.298245614035088,0,0.694444444444444,0.298245614035088,0,0.25,3.10526315789474,ReadingArea_rsl0-rcl25-esl29-rsm0-rcm69-esm29-rsr0-rcr25-esr310,exr/ReadingArea_rsl0-rcl25-esl29-rsm0-rcm69-esm29-rsr0-rcr25-esr310.exr,ReadingArea_rsl0-rcl25-esl29-rsm0-rcm69-esm29-rsr0-rcr25-esr310.npz,,,,,0,164,164,356,,right,red,2.23,584.5648431777954,585.0456211566925,3,8,3,lightness,readingArea,realistic,75,2023-03-28_15h27.37.195,tripletExp_regina_11082022,2022.2.4,119.79789497736458,
8,7,13,0,0.25,1.0,0,0.111111111111111,1.0,0,0.111111111111111,3.10526315789474,ReadingArea_rsl0-rcl25-esl100-rsm0-rcm11-esm100-rsr0-rcr11-esr310,exr/ReadingArea_rsl0-rcl25-esl100-rsm0-rcm11-esm100-rsr0-rcr11-esr310.exr,ReadingArea_rsl0-rcl25-esl100-rsm0-rcm11-esm100-rsr0-rcr11-esr310.npz,,,,,0,165,165,512,,right,red,1.64,586.7455739974976,587.2725920677185,3,8,3,lightness,readingArea,realistic,75,2023-03-28_15h27.37.195,tripletExp_regina_11082022,2022.2.4,119.79789497736458,
13,3,5,0,0.111111111111111,3.10526315789474,0,0.444444444444444,0.298245614035088,0,1.0,0.298245614035088,ReadingArea_rsl0-rcl11-esl310-rsm0-rcm44-esm29-rsr0-rcr100-esr29,exr/ReadingArea_rsl0-rcl11-esl310-rsm0-rcm44-esm29-rsr0-rcr100-esr29.exr,ReadingArea_rsl0-rcl11-esl310-rsm0-rcm44-esm29-rsr0-rcr100-esr29.npz,,,,,0,166,166,398,,right,red,4.31,592.4972131252289,593.0144112110138,3,8,3,lightness,readingArea,realistic,75,2023-03-28_15h27.37.195,tripletExp_regina_11082022,2022.2.4,119.79789497736458,
7,0,3,0,0.111111111111111,1.0,0,0.027777777777778,0.298245614035088,0,0.444444444444444,0.298245614035088,ReadingArea_rsl0-rcl11-esl100-rsm0-rcm2-esm29-rsr0-rcr44-esr29,exr/ReadingArea_rsl0-rcl11-esl100-rsm0-rcm2-esm29-rsr0-rcr44-esr29.exr,ReadingArea_rsl0-rcl11-esl100-rsm0-rcm2-esm29-rsr0-rcr44-esr29.npz,,,,,0,167,167,237,,left,green,4.14,598.2573761940002,598.7685000896454,3,8,3,lightness,readingArea,realistic,75,2023-03-28_15h27.37.195,tripletExp_regina_11082022,2022.2.4,119.79789497736458,
0,10,14,0,0.027777777777778,0.298245614035088,0,0.694444444444444,1.0,0,0.25,3.10526315789474,ReadingArea_rsl0-rcl2-esl29-rsm0-rcm69-esm100-rsr0-rcr25-esr310,exr/ReadingArea_rsl0-rcl2-esl29-rsm0-rcm69-esm100-rsr0-rcr25-esr310.exr,ReadingArea_rsl0-rcl2-esl29-rsm0-rcm69-esm100-rsr0-rcr25-esr310.npz,,,,,0,168,168,31,,right,red,0.97,600.4678020477295,600.9508330821991,3,8,3,lightness,readingArea,realistic,75,2023-03-28_15h27.37.195,tripletExp_regina_11082022,2022.2.4,119.79789497736458,
12,6,9,0,0.027777777777778,3.10526315789474,0,0.027777777777778,1.0,0,0.444444444444444,1.0,ReadingArea_rsl0-rcl2-esl310-rsm0-rcm2-esm100-rsr0-rcr44-esr100,exr/ReadingArea_rsl0-rcl2-esl310-rsm0-rcm2-esm100-rsr0-rcr44-esr100.exr,ReadingArea_rsl0-rcl2-esl310-rsm0-rcm2-esm100-rsr0-rcr44-esr100.npz,,,,,0,169,169,177,,left,green,2.55,604.4123351573944,604.8784670829773,3,8,3,lightness,readingArea,realistic,75,2023-03-28_15h27.37.195,tripletExp_regina_11082022,2022.2.4,119.79789497736458,
14,8,5,0,0.25,3.10526315789474,0,0.25,1.0,0,1.0,0.298245614035088,ReadingArea_rsl0-rcl25-esl310-rsm0-rcm25-esm100-rsr0-rcr100-esr29,exr/ReadingArea_rsl0-rcl25-esl310-rsm0-rcm25-esm100-rsr0-rcr100-esr29.exr,ReadingArea_rsl0-rcl25-esl310-rsm0-rcm25-esm100-rsr0-rcr100-esr29.npz,,,,,0,170,170,28,,right,red,1.1,606.5931861400604,607.0567610263824,3,8,3,lightness,readingArea,realistic,75,2023-03-28_15h27.37.195,tripletExp_regina_11082022,2022.2.4,119.79789497736458,
10,3,0,0,0.694444444444444,1.0,0,0.444444444444444,0.298245614035088,0,0.027777777777778,0.298245614035088,ReadingArea_rsl0-rcl69-esl100-rsm0-rcm44-esm29-rsr0-rcr2-esr29,exr/ReadingArea_rsl0-rcl69-esl100-rsm0-rcm44-esm29-rsr0-rcr2-esr29.exr,ReadingArea_rsl0-rcl69-esl100-rsm0-rcm44-esm29-rsr0-rcr2-esr29.npz,,,,,0,171,171,203,,right,red,2.92,610.5327160358429,611.1436450481415,3,8,3,lightness,readingArea,realistic,75,2023-03-28_15h27.37.195,tripletExp_regina_11082022,2022.2.4,119.79789497736458,
1,2,12,0,0.111111111111111,0.298245614035088,0,0.25,0.298245614035088,0,0.027777777777778,3.10526315789474,ReadingArea_rsl0-rcl11-esl29-rsm0-rcm25-esm29-rsr0-rcr2-esr310,exr/ReadingArea_rsl0-rcl11-esl29-rsm0-rcm25-esm29-rsr0-rcr2-esr310.exr,ReadingArea_rsl0-rcl11-esl29-rsm0-rcm25-esm29-rsr0-rcr2-esr310.npz,,,,,0,172,172,229,,right,red,1.71,612.8505589962006,613.3921480178833,3,8,3,lightness,readingArea,realistic,75,2023-03-28_15h27.37.195,tripletExp_regina_11082022,2022.2.4,119.79789497736458,
0,7,13,0,0.027777777777778,0.298245614035088,0,0.111111111111111,1.0,0,0.111111111111111,3.10526315789474,ReadingArea_rsl0-rcl2-esl29-rsm0-rcm11-esm100-rsr0-rcr11-esr310,exr/ReadingArea_rsl0-rcl2-esl29-rsm0-rcm11-esm100-rsr0-rcr11-esr310.exr,ReadingArea_rsl0-rcl2-esl29-rsm0-rcm11-esm100-rsr0-rcr11-esr310.npz,,,,,0,173,173,159,,right,red,1.69,615.1056141853333,615.5707352161407,3,8,3,lightness,readingArea,realistic,75,2023-03-28_15h27.37.195,tripletExp_regina_11082022,2022.2.4,119.79789497736458,
1,0,4,0,0.111111111111111,0.298245614035088,0,0.027777777777778,0.298245614035088,0,0.694444444444444,0.298245614035088,ReadingArea_rsl0-rcl11-esl29-rsm0-rcm2-esm29-rsr0-rcr69-esr29,exr/ReadingArea_rsl0-rcl11-esl29-rsm0-rcm2-esm29-rsr0-rcr69-esr29.exr,ReadingArea_rsl0-rcl11-esl29-rsm0-rcm2-esm29-rsr0-rcr69-esr29.npz,,,,,0,174,174,494,,left,green,2.31,619.0640339851379,619.5734970569611,3,8,3,lightness,readingArea,realistic,75,2023-03-28_15h27.37.195,tripletExp_regina_11082022,2022.2.4,119.79789497736458,
0,7,9,0,0.027777777777778,0.298245614035088,0,0.111111111111111,1.0,0,0.444444444444444,1.0,ReadingArea_rsl0-rcl2-esl29-rsm0-rcm11-esm100-rsr0-rcr44-esr100,exr/ReadingArea_rsl0-rcl2-esl29-rsm0-rcm11-esm100-rsr0-rcr44-esr100.exr,ReadingArea_rsl0-rcl2-esl29-rsm0-rcm11-esm100-rsr0-rcr44-esr100.npz,,,,,0,175,175,463,,right,red,4.05,624.8010079860687,625.3490390777588,3,8,3,lightness,readingArea,realistic,75,2023-03-28_15h27.37.195,tripletExp_regina_11082022,2022.2.4,119.79789497736458,
1,13,11,0,0.111111111111111,0.298245614035088,0,0.111111111111111,3.10526315789474,0,1.0,1.0,ReadingArea_rsl0-rcl11-esl29-rsm0-rcm11-esm310-rsr0-rcr100-esr100,exr/ReadingArea_rsl0-rcl11-esl29-rsm0-rcm11-esm310-rsr0-rcr100-esr100.exr,ReadingArea_rsl0-rcl11-esl29-rsm0-rcm11-esm310-rsr0-rcr100-esr100.npz,,,,,0,176,176,333,,left,green,1.18,627.0551540851593,627.5404670238495,3,8,3,lightness,readingArea,realistic,75,2023-03-28_15h27.37.195,tripletExp_regina_11082022,2022.2.4,119.79789497736458,
11,5,1,0,1.0,1.0,0,1.0,0.298245614035088,0,0.111111111111111,0.298245614035088,ReadingArea_rsl0-rcl100-esl100-rsm0-rcm100-esm29-rsr0-rcr11-esr29,exr/ReadingArea_rsl0-rcl100-esl100-rsm0-rcm100-esm29-rsr0-rcr11-esr29.exr,ReadingArea_rsl0-rcl100-esl100-rsm0-rcm100-esm29-rsr0-rcr11-esr29.npz,,,,,0,177,177,48,,right,red,1.41,629.2529871463776,629.8026871681213,3,8,3,lightness,readingArea,realistic,75,2023-03-28_15h27.37.195,tripletExp_regina_11082022,2022.2.4,119.79789497736458,
12,4,9,0,0.027777777777778,3.10526315789474,0,0.694444444444444,0.298245614035088,0,0.444444444444444,1.0,ReadingArea_rsl0-rcl2-esl310-rsm0-rcm69-esm29-rsr0-rcr44-esr100,exr/ReadingArea_rsl0-rcl2-esl310-rsm0-rcm69-esm29-rsr0-rcr44-esr100.exr,ReadingArea_rsl0-rcl2-esl310-rsm0-rcm69-esm29-rsr0-rcr44-esr100.npz,,,,,0,178,178,380,,right,red,1.17,631.5135061740875,631.9851200580597,3,8,3,lightness,readingArea,realistic,75,2023-03-28_15h27.37.195,tripletExp_regina_11082022,2022.2.4,119.79789497736458,
9,6,8,0,0.444444444444444,1.0,0,0.027777777777778,1.0,0,0.25,1.0,ReadingArea_rsl0-rcl44-esl100-rsm0-rcm2-esm100-rsr0-rcr25-esr100,exr/ReadingArea_rsl0-rcl44-esl100-rsm0-rcm2-esm100-rsr0-rcr25-esr100.exr,ReadingArea_rsl0-rcl44-esl100-rsm0-rcm2-esm100-rsr0-rcr25-esr100.npz,,,,,0,179,179,312,,right,red,1.43,633.700572013855,634.1584610939026,3,8,3,lightness,readingArea,realistic,75,2023-03-28_15h27.37.195,tripletExp_regina_11082022,2022.2.4,119.79789497736458,
9,8,7,0,0.444444444444444,1.0,0,0.25,1.0,0,0.111111111111111,1.0,ReadingArea_rsl0-rcl44-esl100-rsm0-rcm25-esm100-rsr0-rcr11-esr100,exr/ReadingArea_rsl0-rcl44-esl100-rsm0-rcm25-esm100-rsr0-rcr11-esr100.exr,ReadingArea_rsl0-rcl44-esl100-rsm0-rcm25-esm100-rsr0-rcr11-esr100.npz,,,,,0,180,180,368,,right,red,1.19,635.8710501194,636.432489156723,3,8,3,lightness,readingArea,realistic,75,2023-03-28_15h27.37.195,tripletExp_regina_11082022,2022.2.4,119.79789497736458,
12,10,9,0,0.027777777777778,3.10526315789474,0,0.694444444444444,1.0,0,0.444444444444444,1.0,ReadingArea_rsl0-rcl2-esl310-rsm0-rcm69-esm100-rsr0-rcr44-esr100,exr/ReadingArea_rsl0-rcl2-esl310-rsm0-rcm69-esm100-rsr0-rcr44-esr100.exr,ReadingArea_rsl0-rcl2-esl310-rsm0-rcm69-esm100-rsr0-rcr44-esr100.npz,,,,,0,181,181,126,,right,red,1.24,638.1417281627655,638.6735610961914,3,8,3,lightness,readingArea,realistic,75,2023-03-28_15h27.37.195,tripletExp_regina_11082022,2022.2.4,119.79789497736458,
5,14,4,0,1.0,0.298245614035088,0,0.25,3.10526315789474,0,0.694444444444444,0.298245614035088,ReadingArea_rsl0-rcl100-esl29-rsm0-rcm25-esm310-rsr0-rcr69-esr29,exr/ReadingArea_rsl0-rcl100-esl29-rsm0-rcm25-esm310-rsr0-rcr69-esr29.exr,ReadingArea_rsl0-rcl100-esl29-rsm0-rcm25-esm310-rsr0-rcr69-esr29.npz,,,,,0,182,182,69,,right,red,2.72,642.1688392162323,642.6756629943848,3,8,3,lightness,readingArea,realistic,75,2023-03-28_15h27.37.195,tripletExp_regina_11082022,2022.2.4,119.79789497736458,
8,12,7,0,0.25,1.0,0,0.027777777777778,3.10526315789474,0,0.111111111111111,1.0,ReadingArea_rsl0-rcl25-esl100-rsm0-rcm2-esm310-rsr0-rcr11-esr100,exr/ReadingArea_rsl0-rcl25-esl100-rsm0-rcm2-esm310-rsr0-rcr11-esr100.exr,ReadingArea_rsl0-rcl25-esl100-rsm0-rcm2-esm310-rsr0-rcr11-esr100.npz,,,,,0,183,183,467,,right,red,1.17,644.3640921115875,644.9074511528015,3,8,3,lightness,readingArea,realistic,75,2023-03-28_15h27.37.195,tripletExp_regina_11082022,2022.2.4,119.79789497736458,
13,6,12,0,0.111111111111111,3.10526315789474,0,0.027777777777778,1.0,0,0.027777777777778,3.10526315789474,ReadingArea_rsl0-rcl11-esl310-rsm0-rcm2-esm100-rsr0-rcr2-esr310,exr/ReadingArea_rsl0-rcl11-esl310-rsm0-rcm2-esm100-rsr0-rcr2-esr310.exr,ReadingArea_rsl0-rcl11-esl310-rsm0-rcm2-esm100-rsr0-rcr2-esr310.npz,,,,,0,184,184,147,,right,red,1.31,646.5922040939331,647.1048021316528,3,8,3,lightness,readingArea,realistic,75,2023-03-28_15h27.37.195,tripletExp_regina_11082022,2022.2.4,119.79789497736458,
6,12,8,0,0.027777777777778,1.0,0,0.027777777777778,3.10526315789474,0,0.25,1.0,ReadingArea_rsl0-rcl2-esl100-rsm0-rcm2-esm310-rsr0-rcr25-esr100,exr/ReadingArea_rsl0-rcl2-esl100-rsm0-rcm2-esm310-rsr0-rcr25-esr100.exr,ReadingArea_rsl0-rcl2-esl100-rsm0-rcm2-esm310-rsr0-rcr25-esr100.npz,,,,,0,185,185,186,,left,green,1.27,648.8105330467224,649.288938999176,3,8,3,lightness,readingArea,realistic,75,2023-03-28_15h27.37.195,tripletExp_regina_11082022,2022.2.4,119.79789497736458,
10,6,13,0,0.694444444444444,1.0,0,0.027777777777778,1.0,0,0.111111111111111,3.10526315789474,ReadingArea_rsl0-rcl69-esl100-rsm0-rcm2-esm100-rsr0-rcr11-esr310,exr/ReadingArea_rsl0-rcl69-esl100-rsm0-rcm2-esm100-rsr0-rcr11-esr310.exr,ReadingArea_rsl0-rcl69-esl100-rsm0-rcm2-esm100-rsr0-rcr11-esr310.npz,,,,,0,186,186,41,,right,red,1.51,651.012510061264,,3,8,3,lightness,readingArea,realistic,75,2023-03-28_15h27.37.195,tripletExp_regina_11082022,2022.2.4,119.79789497736458,
0,14,11,0,0.027777777777778,0.298245614035088,0,0.25,3.10526315789474,0,1.0,1.0,ReadingArea_rsl0-rcl2-esl29-rsm0-rcm25-esm310-rsr0-rcr100-esr100,exr/ReadingArea_rsl0-rcl2-esl29-rsm0-rcm25-esm310-rsr0-rcr100-esr100.exr,ReadingArea_rsl0-rcl2-esl29-rsm0-rcm25-esm310-rsr0-rcr100-esr100.npz,,,,,0,187,187,557,,right,red,0.93,653.2463190555573,,3,8,3,lightness,readingArea,realistic,75,2023-03-28_15h27.37.195,tripletExp_regina_11082022,2022.2.4,119.79789497736458,
8,1,9,0,0.25,1.0,0,0.111111111111111,0.298245614035088,0,0.444444444444444,1.0,ReadingArea_rsl0-rcl25-esl100-rsm0-rcm11-esm29-rsr0-rcr44-esr100,exr/ReadingArea_rsl0-rcl25-esl100-rsm0-rcm11-esm29-rsr0-rcr44-esr100.exr,ReadingArea_rsl0-rcl25-esl100-rsm0-rcm11-esm29-rsr0-rcr44-esr100.npz,,,,,0,188,188,432,,right,red,1.38,655.4141681194305,655.8798019886017,3,8,3,lightness,readingArea,realistic,75,2023-03-28_15h27.37.195,tripletExp_regina_11082022,2022.2.4,119.79789497736458,
12,5,14,0,0.027777777777778,3.10526315789474,0,1.0,0.298245614035088,0,0.25,3.10526315789474,ReadingArea_rsl0-rcl2-esl310-rsm0-rcm100-esm29-rsr0-rcr25-esr310,exr/ReadingArea_rsl0-rcl2-esl310-rsm0-rcm100-esm29-rsr0-rcr25-esr310.exr,ReadingArea_rsl0-rcl2-esl310-rsm0-rcm100-esm29-rsr0-rcr25-esr310.npz,,,,,0,189,189,193,,right,red,1.14,657.5950281620026,658.1296360492706,3,8,3,lightness,readingArea,realistic,75,2023-03-28_15h27.37.195,tripletExp_regina_11082022,2022.2.4,119.79789497736458,
1,14,6,0,0.111111111111111,0.298245614035088,0,0.25,3.10526315789474,0,0.027777777777778,1.0,ReadingArea_rsl0-rcl11-esl29-rsm0-rcm25-esm310-rsr0-rcr2-esr100,exr/ReadingArea_rsl0-rcl11-esl29-rsm0-rcm25-esm310-rsr0-rcr2-esr100.exr,ReadingArea_rsl0-rcl11-esl29-rsm0-rcm25-esm310-rsr0-rcr2-esr100.npz,,,,,0,190,190,475,,left,green,4.54,663.3461880683899,663.929591178894,3,8,3,lightness,readingArea,realistic,75,2023-03-28_15h27.37.195,tripletExp_regina_11082022,2022.2.4,119.79789497736458,
5,3,4,0,1.0,0.298245614035088,0,0.444444444444444,0.298245614035088,0,0.694444444444444,0.298245614035088,ReadingArea_rsl0-rcl100-esl29-rsm0-rcm44-esm29-rsr0-rcr69-esr29,exr/ReadingArea_rsl0-rcl100-esl29-rsm0-rcm44-esm29-rsr0-rcr69-esr29.exr,ReadingArea_rsl0-rcl100-esl29-rsm0-rcm44-esm29-rsr0-rcr69-esr29.npz,,,,,0,191,191,201,,right,red,1.35,665.6411662101746,666.1133980751038,3,8,3,lightness,readingArea,realistic,75,2023-03-28_15h27.37.195,tripletExp_regina_11082022,2022.2.4,119.79789497736458,
8,12,13,0,0.25,1.0,0,0.027777777777778,3.10526315789474,0,0.111111111111111,3.10526315789474,ReadingArea_rsl0-rcl25-esl100-rsm0-rcm2-esm310-rsr0-rcr11-esr310,exr/ReadingArea_rsl0-rcl25-esl100-rsm0-rcm2-esm310-rsr0-rcr11-esr310.exr,ReadingArea_rsl0-rcl25-esl100-rsm0-rcm2-esm310-rsr0-rcr11-esr310.npz,,,,,0,192,192,275,,right,red,4.57,671.3995981216431,,3,8,3,lightness,readingArea,realistic,75,2023-03-28_15h27.37.195,tripletExp_regina_11082022,2022.2.4,119.79789497736458,
11,4,0,0,1.0,1.0,0,0.694444444444444,0.298245614035088,0,0.027777777777778,0.298245614035088,ReadingArea_rsl0-rcl100-esl100-rsm0-rcm69-esm29-rsr0-rcr2-esr29,exr/ReadingArea_rsl0-rcl100-esl100-rsm0-rcm69-esm29-rsr0-rcr2-esr29.exr,ReadingArea_rsl0-rcl100-esl100-rsm0-rcm69-esm29-rsr0-rcr2-esr29.npz,,,,,0,193,193,219,,left,green,2.66,675.3884401321411,675.9326491355896,3,8,3,lightness,readingArea,realistic,75,2023-03-28_15h27.37.195,tripletExp_regina_11082022,2022.2.4,119.79789497736458,
0,5,1,0,0.027777777777778,0.298245614035088,0,1.0,0.298245614035088,0,0.111111111111111,0.298245614035088,ReadingArea_rsl0-rcl2-esl29-rsm0-rcm100-esm29-rsr0-rcr11-esr29,exr/ReadingArea_rsl0-rcl2-esl29-rsm0-rcm100-esm29-rsr0-rcr11-esr29.exr,ReadingArea_rsl0-rcl2-esl29-rsm0-rcm100-esm29-rsr0-rcr11-esr29.npz,,,,,0,194,194,367,,right,red,2.58,679.369567155838,679.9707870483398,3,8,3,lightness,readingArea,realistic,75,2023-03-28_15h27.37.195,tripletExp_regina_11082022,2022.2.4,119.79789497736458,
14,5,13,0,0.25,3.10526315789474,0,1.0,0.298245614035088,0,0.111111111111111,3.10526315789474,ReadingArea_rsl0-rcl25-esl310-rsm0-rcm100-esm29-rsr0-rcr11-esr310,exr/ReadingArea_rsl0-rcl25-esl310-rsm0-rcm100-esm29-rsr0-rcr11-esr310.exr,ReadingArea_rsl0-rcl25-esl310-rsm0-rcm100-esm29-rsr0-rcr11-esr310.npz,,,,,0,195,195,524,,right,red,4.41,685.2089540958405,685.694845199585,3,8,3,lightness,readingArea,realistic,75,2023-03-28_15h27.37.195,tripletExp_regina_11082022,2022.2.4,119.79789497736458,
10,5,2,0,0.694444444444444,1.0,0,1.0,0.298245614035088,0,0.25,0.298245614035088,ReadingArea_rsl0-rcl69-esl100-rsm0-rcm100-esm29-rsr0-rcr25-esr29,exr/ReadingArea_rsl0-rcl69-esl100-rsm0-rcm100-esm29-rsr0-rcr25-esr29.exr,ReadingArea_rsl0-rcl69-esl100-rsm0-rcm100-esm29-rsr0-rcr25-esr29.npz,,,,,0,196,196,299,,right,red,1.67,687.4044110774994,687.8865849971771,3,8,3,lightness,readingArea,realistic,75,2023-03-28_15h27.37.195,tripletExp_regina_11082022,2022.2.4,119.79789497736458,
10,14,13,0,0.694444444444444,1.0,0,0.25,3.10526315789474,0,0.111111111111111,3.10526315789474,ReadingArea_rsl0-rcl69-esl100-rsm0-rcm25-esm310-rsr0-rcr11-esr310,exr/ReadingArea_rsl0-rcl69-esl100-rsm0-rcm25-esm310-rsr0-rcr11-esr310.exr,ReadingArea_rsl0-rcl69-esl100-rsm0-rcm25-esm310-rsr0-rcr11-esr310.npz,,,,,0,197,197,168,,left,green,2.97,691.3848621845245,691.8893032073975,3,8,3,lightness,readingArea,realistic,75,2023-03-28_15h27.37.195,tripletExp_regina_11082022,2022.2.4,119.79789497736458,
2,11,7,0,0.25,0.298245614035088,0,1.0,1.0,0,0.111111111111111,1.0,ReadingArea_rsl0-rcl25-esl29-rsm0-rcm100-esm100-rsr0-rcr11-esr100,exr/ReadingArea_rsl0-rcl25-esl29-rsm0-rcm100-esm100-rsr0-rcr11-esr100.exr,ReadingArea_rsl0-rcl25-esl29-rsm0-rcm100-esm100-rsr0-rcr11-esr100.npz,,,,,0,198,198,576,,right,red,3.18,695.3725490570068,695.8901200294495,3,8,3,lightness,readingArea,realistic,75,2023-03-28_15h27.37.195,tripletExp_regina_11082022,2022.2.4,119.79789497736458,
12,7,9,0,0.027777777777778,3.10526315789474,0,0.111111111111111,1.0,0,0.444444444444444,1.0,ReadingArea_rsl0-rcl2-esl310-rsm0-rcm11-esm100-rsr0-rcr44-esr100,exr/ReadingArea_rsl0-rcl2-esl310-rsm0-rcm11-esm100-rsr0-rcr44-esr100.exr,ReadingArea_rsl0-rcl2-esl310-rsm0-rcm11-esm100-rsr0-rcr44-esr100.npz,,,,,0,199,199,124,,left,green,1.81,697.5997860431671,698.0647671222687,3,8,3,lightness,readingArea,realistic,75,2023-03-28_15h27.37.195,tripletExp_regina_11082022,2022.2.4,119.79789497736458,
12,7,1,0,0.027777777777778,3.10526315789474,0,0.111111111111111,1.0,0,0.111111111111111,0.298245614035088,ReadingArea_rsl0-rcl2-esl310-rsm0-rcm11-esm100-rsr0-rcr11-esr29,exr/ReadingArea_rsl0-rcl2-esl310-rsm0-rcm11-esm100-rsr0-rcr11-esr29.exr,ReadingArea_rsl0-rcl2-esl310-rsm0-rcm11-esm100-rsr0-rcr11-esr29.npz,,,,,0,200,200,264,,left,green,1.48,699.7705821990967,,3,8,3,lightness,readingArea,realistic,75,2023-03-28_15h27.37.195,tripletExp_regina_11082022,2022.2.4,119.79789497736458,
6,14,10,0,0.027777777777778,1.0,0,0.25,3.10526315789474,0,0.694444444444444,1.0,ReadingArea_rsl0-rcl2-esl100-rsm0-rcm25-esm310-rsr0-rcr69-esr100,exr/ReadingArea_rsl0-rcl2-esl100-rsm0-rcm25-esm310-rsr0-rcr69-esr100.exr,ReadingArea_rsl0-rcl2-esl100-rsm0-rcm25-esm310-rsr0-rcr69-esr100.npz,,,,,0,201,201,413,,right,red,1.05,702.0094921588898,702.4992690086365,3,8,3,lightness,readingArea,realistic,75,2023-03-28_15h27.37.195,tripletExp_regina_11082022,2022.2.4,119.79789497736458,
2,9,8,0,0.25,0.298245614035088,0,0.444444444444444,1.0,0,0.25,1.0,ReadingArea_rsl0-rcl25-esl29-rsm0-rcm44-esm100-rsr0-rcr25-esr100,exr/ReadingArea_rsl0-rcl25-esl29-rsm0-rcm44-esm100-rsr0-rcr25-esr100.exr,ReadingArea_rsl0-rcl25-esl29-rsm0-rcm44-esm100-rsr0-rcr25-esr100.npz,,,,,0,202,202,407,,right,red,3.14,705.9608380794525,706.4760730266571,3,8,3,lightness,readingArea,realistic,75,2023-03-28_15h27.37.195,tripletExp_regina_11082022,2022.2.4,119.79789497736458,
0,4,7,0,0.027777777777778,0.298245614035088,0,0.694444444444444,0.298245614035088,0,0.111111111111111,1.0,ReadingArea_rsl0-rcl2-esl29-rsm0-rcm69-esm29-rsr0-rcr11-esr100,exr/ReadingArea_rsl0-rcl2-esl29-rsm0-rcm69-esm29-rsr0-rcr11-esr100.exr,ReadingArea_rsl0-rcl2-esl29-rsm0-rcm69-esm29-rsr0-rcr11-esr100.npz,,,,,0,203,203,200,,right,red,2.44,709.9649410247803,710.491128206253,3,8,3,lightness,readingArea,realistic,75,2023-03-28_15h27.37.195,tripletExp_regina_11082022,2022.2.4,119.79789497736458,
1,14,7,0,0.111111111111111,0.298245614035088,0,0.25,3.10526315789474,0,0.111111111111111,1.0,ReadingArea_rsl0-rcl11-esl29-rsm0-rcm25-esm310-rsr0-rcr11-esr100,exr/ReadingArea_rsl0-rcl11-esl29-rsm0-rcm25-esm310-rsr0-rcr11-esr100.exr,ReadingArea_rsl0-rcl11-esl29-rsm0-rcm25-esm310-rsr0-rcr11-esr100.npz,,,,,0,204,204,583,,right,red,2.83,713.9643731117249,,3,8,3,lightness,readingArea,realistic,75,2023-03-28_15h27.37.195,tripletExp_regina_11082022,2022.2.4,119.79789497736458,
