index_left,index_middle,index_right,reflectance_surround_left,reflectance_center_left,emission_spot_left,reflectance_surround_middle,reflectance_center_middle,emission_spot_middle,reflectance_surround_right,reflectance_center_right,emission_spot_right,ImageName,ImageExr,ImageNpy,trials_2.thisRepN,trials_2.thisTrialN,trials_2.thisN,trials_2.thisIndex,trials.thisRepN,trials.thisTrialN,trials.thisN,trials.thisIndex,sound_1.started,BB_Trial.resp,BB_Trial.color,BB_Trial.rt,text.started,text.stopped,block,participant,session,L/B,scene,condition,nTrialsPerBlock,date,expName,psychopyVersion,frameRate,Unnamed: 40
8,3,9,0,0.25,1.0,0,0.444444444444444,0.298245614035088,0,0.444444444444444,1.0,ReadingArea_rsl0-rcl25-esl100-rsm0-rcm44-esm29-rsr0-rcr44-esr100,exr/ReadingArea_rsl0-rcl25-esl100-rsm0-rcm44-esm29-rsr0-rcr44-esr100.exr,ReadingArea_rsl0-rcl25-esl100-rsm0-rcm44-esm29-rsr0-rcr44-esr100.npz,,,,,0,0,0,15,55.88726785182953,left,green,1.06,60.12468791007996,57.30500292778015,1,1,7,lightness,readingArea,realistic,75,2023-03-25_14h03.26.258,tripletExp_regina_11082022,2022.2.4,120.4152503445108,
2,3,9,0,0.25,0.298245614035088,0,0.444444444444444,0.298245614035088,0,0.444444444444444,1.0,ReadingArea_rsl0-rcl25-esl29-rsm0-rcm44-esm29-rsr0-rcr44-esr100,exr/ReadingArea_rsl0-rcl25-esl29-rsm0-rcm44-esm29-rsr0-rcr44-esr100.exr,ReadingArea_rsl0-rcl25-esl29-rsm0-rcm44-esm29-rsr0-rcr44-esr100.npz,,,,,0,1,1,190,,left,green,3.17,64.13178491592407,64.7794828414917,1,1,7,lightness,readingArea,realistic,75,2023-03-25_14h03.26.258,tripletExp_regina_11082022,2022.2.4,120.4152503445108,
10,11,9,0,0.694444444444444,1.0,0,1.0,1.0,0,0.444444444444444,1.0,ReadingArea_rsl0-rcl69-esl100-rsm0-rcm100-esm100-rsr0-rcr44-esr100,exr/ReadingArea_rsl0-rcl69-esl100-rsm0-rcm100-esm100-rsr0-rcr44-esr100.exr,ReadingArea_rsl0-rcl69-esl100-rsm0-rcm100-esm100-rsr0-rcr44-esr100.npz,,,,,0,2,2,492,,left,green,1.07,66.48924899101257,66.96188187599182,1,1,7,lightness,readingArea,realistic,75,2023-03-25_14h03.26.258,tripletExp_regina_11082022,2022.2.4,120.4152503445108,
4,3,10,0,0.694444444444444,0.298245614035088,0,0.444444444444444,0.298245614035088,0,0.694444444444444,1.0,ReadingArea_rsl0-rcl69-esl29-rsm0-rcm44-esm29-rsr0-rcr69-esr100,exr/ReadingArea_rsl0-rcl69-esl29-rsm0-rcm44-esm29-rsr0-rcr69-esr100.exr,ReadingArea_rsl0-rcl69-esl29-rsm0-rcm44-esm29-rsr0-rcr69-esr100.npz,,,,,0,3,3,371,,left,green,0.74,68.67557096481323,69.13437485694885,1,1,7,lightness,readingArea,realistic,75,2023-03-25_14h03.26.258,tripletExp_regina_11082022,2022.2.4,120.4152503445108,
13,8,5,0,0.111111111111111,3.10526315789474,0,0.25,1.0,0,1.0,0.298245614035088,ReadingArea_rsl0-rcl11-esl310-rsm0-rcm25-esm100-rsr0-rcr100-esr29,exr/ReadingArea_rsl0-rcl11-esl310-rsm0-rcm25-esm100-rsr0-rcr100-esr29.exr,ReadingArea_rsl0-rcl11-esl310-rsm0-rcm25-esm100-rsr0-rcr100-esr29.npz,,,,,0,4,4,209,,left,green,0.99,70.83915996551514,71.29213285446167,1,1,7,lightness,readingArea,realistic,75,2023-03-25_14h03.26.258,tripletExp_regina_11082022,2022.2.4,120.4152503445108,
9,11,6,0,0.444444444444444,1.0,0,1.0,1.0,0,0.027777777777778,1.0,ReadingArea_rsl0-rcl44-esl100-rsm0-rcm100-esm100-rsr0-rcr2-esr100,exr/ReadingArea_rsl0-rcl44-esl100-rsm0-rcm100-esm100-rsr0-rcr2-esr100.exr,ReadingArea_rsl0-rcl44-esl100-rsm0-rcm100-esm100-rsr0-rcr2-esr100.npz,,,,,0,5,5,404,,left,green,0.7,72.99114799499512,73.44410586357117,1,1,7,lightness,readingArea,realistic,75,2023-03-25_14h03.26.258,tripletExp_regina_11082022,2022.2.4,120.4152503445108,
6,10,8,0,0.027777777777778,1.0,0,0.694444444444444,1.0,0,0.25,1.0,ReadingArea_rsl0-rcl2-esl100-rsm0-rcm69-esm100-rsr0-rcr25-esr100,exr/ReadingArea_rsl0-rcl2-esl100-rsm0-rcm69-esm100-rsr0-rcr25-esr100.exr,ReadingArea_rsl0-rcl2-esl100-rsm0-rcm69-esm100-rsr0-rcr25-esr100.npz,,,,,0,6,6,167,,right,red,0.73,75.16699194908142,,1,1,7,lightness,readingArea,realistic,75,2023-03-25_14h03.26.258,tripletExp_regina_11082022,2022.2.4,120.4152503445108,
14,8,2,0,0.25,3.10526315789474,0,0.25,1.0,0,0.25,0.298245614035088,ReadingArea_rsl0-rcl25-esl310-rsm0-rcm25-esm100-rsr0-rcr25-esr29,exr/ReadingArea_rsl0-rcl25-esl310-rsm0-rcm25-esm100-rsr0-rcr25-esr29.exr,ReadingArea_rsl0-rcl25-esl310-rsm0-rcm25-esm100-rsr0-rcr25-esr29.npz,,,,,0,7,7,251,,right,red,0.99,77.349191904068,77.82809901237488,1,1,7,lightness,readingArea,realistic,75,2023-03-25_14h03.26.258,tripletExp_regina_11082022,2022.2.4,120.4152503445108,
7,9,8,0,0.111111111111111,1.0,0,0.444444444444444,1.0,0,0.25,1.0,ReadingArea_rsl0-rcl11-esl100-rsm0-rcm44-esm100-rsr0-rcr25-esr100,exr/ReadingArea_rsl0-rcl11-esl100-rsm0-rcm44-esm100-rsr0-rcr25-esr100.exr,ReadingArea_rsl0-rcl11-esl100-rsm0-rcm44-esm100-rsr0-rcr25-esr100.npz,,,,,0,8,8,515,,right,red,0.89,79.53658103942871,79.97765588760376,1,1,7,lightness,readingArea,realistic,75,2023-03-25_14h03.26.258,tripletExp_regina_11082022,2022.2.4,120.4152503445108,
2,8,4,0,0.25,0.298245614035088,0,0.25,1.0,0,0.694444444444444,0.298245614035088,ReadingArea_rsl0-rcl25-esl29-rsm0-rcm25-esm100-rsr0-rcr69-esr29,exr/ReadingArea_rsl0-rcl25-esl29-rsm0-rcm25-esm100-rsr0-rcr69-esr29.exr,ReadingArea_rsl0-rcl25-esl29-rsm0-rcm25-esm100-rsr0-rcr69-esr29.npz,,,,,0,9,9,507,,right,red,0.91,81.6980299949646,82.22975301742554,1,1,7,lightness,readingArea,realistic,75,2023-03-25_14h03.26.258,tripletExp_regina_11082022,2022.2.4,120.4152503445108,
14,8,3,0,0.25,3.10526315789474,0,0.25,1.0,0,0.444444444444444,0.298245614035088,ReadingArea_rsl0-rcl25-esl310-rsm0-rcm25-esm100-rsr0-rcr44-esr29,exr/ReadingArea_rsl0-rcl25-esl310-rsm0-rcm25-esm100-rsr0-rcr44-esr29.exr,ReadingArea_rsl0-rcl25-esl310-rsm0-rcm25-esm100-rsr0-rcr44-esr29.npz,,,,,0,10,10,100,,right,red,0.92,83.93150782585144,84.3779079914093,1,1,7,lightness,readingArea,realistic,75,2023-03-25_14h03.26.258,tripletExp_regina_11082022,2022.2.4,120.4152503445108,
8,11,1,0,0.25,1.0,0,1.0,1.0,0,0.111111111111111,0.298245614035088,ReadingArea_rsl0-rcl25-esl100-rsm0-rcm100-esm100-rsr0-rcr11-esr29,exr/ReadingArea_rsl0-rcl25-esl100-rsm0-rcm100-esm100-rsr0-rcr11-esr29.exr,ReadingArea_rsl0-rcl25-esl100-rsm0-rcm100-esm100-rsr0-rcr11-esr29.npz,,,,,0,11,11,132,,left,green,1.16,86.09986805915833,86.57232189178467,1,1,7,lightness,readingArea,realistic,75,2023-03-25_14h03.26.258,tripletExp_regina_11082022,2022.2.4,120.4152503445108,
12,6,3,0,0.027777777777778,3.10526315789474,0,0.027777777777778,1.0,0,0.444444444444444,0.298245614035088,ReadingArea_rsl0-rcl2-esl310-rsm0-rcm2-esm100-rsr0-rcr44-esr29,exr/ReadingArea_rsl0-rcl2-esl310-rsm0-rcm2-esm100-rsr0-rcr44-esr29.exr,ReadingArea_rsl0-rcl2-esl310-rsm0-rcm2-esm100-rsr0-rcr44-esr29.npz,,,,,0,12,12,139,,left,green,0.83,88.2638258934021,88.72788882255554,1,1,7,lightness,readingArea,realistic,75,2023-03-25_14h03.26.258,tripletExp_regina_11082022,2022.2.4,120.4152503445108,
10,7,4,0,0.694444444444444,1.0,0,0.111111111111111,1.0,0,0.694444444444444,0.298245614035088,ReadingArea_rsl0-rcl69-esl100-rsm0-rcm11-esm100-rsr0-rcr69-esr29,exr/ReadingArea_rsl0-rcl69-esl100-rsm0-rcm11-esm100-rsr0-rcr69-esr29.exr,ReadingArea_rsl0-rcl69-esl100-rsm0-rcm11-esm100-rsr0-rcr69-esr29.npz,,,,,0,13,13,223,,right,red,0.7,90.43908405303956,90.93831586837769,1,1,7,lightness,readingArea,realistic,75,2023-03-25_14h03.26.258,tripletExp_regina_11082022,2022.2.4,120.4152503445108,
9,7,3,0,0.444444444444444,1.0,0,0.111111111111111,1.0,0,0.444444444444444,0.298245614035088,ReadingArea_rsl0-rcl44-esl100-rsm0-rcm11-esm100-rsr0-rcr44-esr29,exr/ReadingArea_rsl0-rcl44-esl100-rsm0-rcm11-esm100-rsr0-rcr44-esr29.exr,ReadingArea_rsl0-rcl44-esl100-rsm0-rcm11-esm100-rsr0-rcr44-esr29.npz,,,,,0,14,14,235,,right,red,0.63,92.652685880661,93.11101198196413,1,1,7,lightness,readingArea,realistic,75,2023-03-25_14h03.26.258,tripletExp_regina_11082022,2022.2.4,120.4152503445108,
7,14,5,0,0.111111111111111,1.0,0,0.25,3.10526315789474,0,1.0,0.298245614035088,ReadingArea_rsl0-rcl11-esl100-rsm0-rcm25-esm310-rsr0-rcr100-esr29,exr/ReadingArea_rsl0-rcl11-esl100-rsm0-rcm25-esm310-rsr0-rcr100-esr29.exr,ReadingArea_rsl0-rcl11-esl100-rsm0-rcm25-esm310-rsr0-rcr100-esr29.npz,,,,,0,15,15,372,,right,red,0.64,94.80674886703493,95.23295497894289,1,1,7,lightness,readingArea,realistic,75,2023-03-25_14h03.26.258,tripletExp_regina_11082022,2022.2.4,120.4152503445108,
5,2,14,0,1.0,0.298245614035088,0,0.25,0.298245614035088,0,0.25,3.10526315789474,ReadingArea_rsl0-rcl100-esl29-rsm0-rcm25-esm29-rsr0-rcr25-esr310,exr/ReadingArea_rsl0-rcl100-esl29-rsm0-rcm25-esm29-rsr0-rcr25-esr310.exr,ReadingArea_rsl0-rcl100-esl29-rsm0-rcm25-esm29-rsr0-rcr25-esr310.npz,,,,,0,16,16,462,,left,green,2.19,98.72231698036194,99.17631196975708,1,1,7,lightness,readingArea,realistic,75,2023-03-25_14h03.26.258,tripletExp_regina_11082022,2022.2.4,120.4152503445108,
1,5,14,0,0.111111111111111,0.298245614035088,0,1.0,0.298245614035088,0,0.25,3.10526315789474,ReadingArea_rsl0-rcl11-esl29-rsm0-rcm100-esm29-rsr0-rcr25-esr310,exr/ReadingArea_rsl0-rcl11-esl29-rsm0-rcm100-esm29-rsr0-rcr25-esr310.exr,ReadingArea_rsl0-rcl11-esl29-rsm0-rcm100-esm29-rsr0-rcr25-esr310.npz,,,,,0,17,17,191,,right,red,0.81,100.87891793251038,101.36110401153564,1,1,7,lightness,readingArea,realistic,75,2023-03-25_14h03.26.258,tripletExp_regina_11082022,2022.2.4,120.4152503445108,
9,8,0,0,0.444444444444444,1.0,0,0.25,1.0,0,0.027777777777778,0.298245614035088,ReadingArea_rsl0-rcl44-esl100-rsm0-rcm25-esm100-rsr0-rcr2-esr29,exr/ReadingArea_rsl0-rcl44-esl100-rsm0-rcm25-esm100-rsr0-rcr2-esr29.exr,ReadingArea_rsl0-rcl44-esl100-rsm0-rcm25-esm100-rsr0-rcr2-esr29.npz,,,,,0,18,18,66,,left,green,2.87,104.85620403289796,,1,1,7,lightness,readingArea,realistic,75,2023-03-25_14h03.26.258,tripletExp_regina_11082022,2022.2.4,120.4152503445108,
4,3,11,0,0.694444444444444,0.298245614035088,0,0.444444444444444,0.298245614035088,0,1.0,1.0,ReadingArea_rsl0-rcl69-esl29-rsm0-rcm44-esm29-rsr0-rcr100-esr100,exr/ReadingArea_rsl0-rcl69-esl29-rsm0-rcm44-esm29-rsr0-rcr100-esr100.exr,ReadingArea_rsl0-rcl69-esl29-rsm0-rcm44-esm29-rsr0-rcr100-esr100.npz,,,,,0,19,19,439,,left,green,0.91,107.10402989387512,107.53272485733032,1,1,7,lightness,readingArea,realistic,75,2023-03-25_14h03.26.258,tripletExp_regina_11082022,2022.2.4,120.4152503445108,
2,1,14,0,0.25,0.298245614035088,0,0.111111111111111,0.298245614035088,0,0.25,3.10526315789474,ReadingArea_rsl0-rcl25-esl29-rsm0-rcm11-esm29-rsr0-rcr25-esr310,exr/ReadingArea_rsl0-rcl25-esl29-rsm0-rcm11-esm29-rsr0-rcr25-esr310.exr,ReadingArea_rsl0-rcl25-esl29-rsm0-rcm11-esm29-rsr0-rcr25-esr310.npz,,,,,0,20,20,59,,left,green,0.56,109.24583101272584,109.68020796775818,1,1,7,lightness,readingArea,realistic,75,2023-03-25_14h03.26.258,tripletExp_regina_11082022,2022.2.4,120.4152503445108,
6,5,0,0,0.027777777777778,1.0,0,1.0,0.298245614035088,0,0.027777777777778,0.298245614035088,ReadingArea_rsl0-rcl2-esl100-rsm0-rcm100-esm29-rsr0-rcr2-esr29,exr/ReadingArea_rsl0-rcl2-esl100-rsm0-rcm100-esm29-rsr0-rcr2-esr29.exr,ReadingArea_rsl0-rcl2-esl100-rsm0-rcm100-esm29-rsr0-rcr2-esr29.npz,,,,,0,21,21,558,,left,green,2.17,113.17652702331544,113.73902082443236,1,1,7,lightness,readingArea,realistic,75,2023-03-25_14h03.26.258,tripletExp_regina_11082022,2022.2.4,120.4152503445108,
6,0,11,0,0.027777777777778,1.0,0,0.027777777777778,0.298245614035088,0,1.0,1.0,ReadingArea_rsl0-rcl2-esl100-rsm0-rcm2-esm29-rsr0-rcr100-esr100,exr/ReadingArea_rsl0-rcl2-esl100-rsm0-rcm2-esm29-rsr0-rcr100-esr100.exr,ReadingArea_rsl0-rcl2-esl100-rsm0-rcm2-esm29-rsr0-rcr100-esr100.npz,,,,,0,22,22,245,,left,green,0.78,115.42224287986755,115.87481594085692,1,1,7,lightness,readingArea,realistic,75,2023-03-25_14h03.26.258,tripletExp_regina_11082022,2022.2.4,120.4152503445108,
5,3,6,0,1.0,0.298245614035088,0,0.444444444444444,0.298245614035088,0,0.027777777777778,1.0,ReadingArea_rsl0-rcl100-esl29-rsm0-rcm44-esm29-rsr0-rcr2-esr100,exr/ReadingArea_rsl0-rcl100-esl29-rsm0-rcm44-esm29-rsr0-rcr2-esr100.exr,ReadingArea_rsl0-rcl100-esl29-rsm0-rcm44-esm29-rsr0-rcr2-esr100.npz,,,,,0,23,23,316,,left,green,1.28,117.5818738937378,,1,1,7,lightness,readingArea,realistic,75,2023-03-25_14h03.26.258,tripletExp_regina_11082022,2022.2.4,120.4152503445108,
2,1,10,0,0.25,0.298245614035088,0,0.111111111111111,0.298245614035088,0,0.694444444444444,1.0,ReadingArea_rsl0-rcl25-esl29-rsm0-rcm11-esm29-rsr0-rcr69-esr100,exr/ReadingArea_rsl0-rcl25-esl29-rsm0-rcm11-esm29-rsr0-rcr69-esr100.exr,ReadingArea_rsl0-rcl25-esl29-rsm0-rcm11-esm29-rsr0-rcr69-esr100.npz,,,,,0,24,24,585,,left,green,0.8,119.7973699569702,120.34073185920715,1,1,7,lightness,readingArea,realistic,75,2023-03-25_14h03.26.258,tripletExp_regina_11082022,2022.2.4,120.4152503445108,
8,1,14,0,0.25,1.0,0,0.111111111111111,0.298245614035088,0,0.25,3.10526315789474,ReadingArea_rsl0-rcl25-esl100-rsm0-rcm11-esm29-rsr0-rcr25-esr310,exr/ReadingArea_rsl0-rcl25-esl100-rsm0-rcm11-esm29-rsr0-rcr25-esr310.exr,ReadingArea_rsl0-rcl25-esl100-rsm0-rcm11-esm29-rsr0-rcr25-esr310.npz,,,,,0,25,25,500,,left,green,0.91,122.05478382110596,122.48506903648376,1,1,7,lightness,readingArea,realistic,75,2023-03-25_14h03.26.258,tripletExp_regina_11082022,2022.2.4,120.4152503445108,
8,6,11,0,0.25,1.0,0,0.027777777777778,1.0,0,1.0,1.0,ReadingArea_rsl0-rcl25-esl100-rsm0-rcm2-esm100-rsr0-rcr100-esr100,exr/ReadingArea_rsl0-rcl25-esl100-rsm0-rcm2-esm100-rsr0-rcr100-esr100.exr,ReadingArea_rsl0-rcl25-esl100-rsm0-rcm2-esm100-rsr0-rcr100-esr100.npz,,,,,0,26,26,236,,left,green,0.71,124.17457389831544,,1,1,7,lightness,readingArea,realistic,75,2023-03-25_14h03.26.258,tripletExp_regina_11082022,2022.2.4,120.4152503445108,
13,6,10,0,0.111111111111111,3.10526315789474,0,0.027777777777778,1.0,0,0.694444444444444,1.0,ReadingArea_rsl0-rcl11-esl310-rsm0-rcm2-esm100-rsr0-rcr69-esr100,exr/ReadingArea_rsl0-rcl11-esl310-rsm0-rcm2-esm100-rsr0-rcr69-esr100.exr,ReadingArea_rsl0-rcl11-esl310-rsm0-rcm2-esm100-rsr0-rcr69-esr100.npz,,,,,0,27,27,593,,left,green,0.58,126.36826801300047,126.83389401435852,1,1,7,lightness,readingArea,realistic,75,2023-03-25_14h03.26.258,tripletExp_regina_11082022,2022.2.4,120.4152503445108,
11,5,2,0,1.0,1.0,0,1.0,0.298245614035088,0,0.25,0.298245614035088,ReadingArea_rsl0-rcl100-esl100-rsm0-rcm100-esm29-rsr0-rcr25-esr29,exr/ReadingArea_rsl0-rcl100-esl100-rsm0-rcm100-esm29-rsr0-rcr25-esr29.exr,ReadingArea_rsl0-rcl100-esl100-rsm0-rcm100-esm29-rsr0-rcr25-esr29.npz,,,,,0,28,28,596,,left,green,0.77,128.52894496917725,128.9864649772644,1,1,7,lightness,readingArea,realistic,75,2023-03-25_14h03.26.258,tripletExp_regina_11082022,2022.2.4,120.4152503445108,
8,1,10,0,0.25,1.0,0,0.111111111111111,0.298245614035088,0,0.694444444444444,1.0,ReadingArea_rsl0-rcl25-esl100-rsm0-rcm11-esm29-rsr0-rcr69-esr100,exr/ReadingArea_rsl0-rcl25-esl100-rsm0-rcm11-esm29-rsr0-rcr69-esr100.exr,ReadingArea_rsl0-rcl25-esl100-rsm0-rcm11-esm29-rsr0-rcr69-esr100.npz,,,,,0,29,29,442,,left,green,0.67,130.68242692947388,131.13903093338013,1,1,7,lightness,readingArea,realistic,75,2023-03-25_14h03.26.258,tripletExp_regina_11082022,2022.2.4,120.4152503445108,
9,3,14,0,0.444444444444444,1.0,0,0.444444444444444,0.298245614035088,0,0.25,3.10526315789474,ReadingArea_rsl0-rcl44-esl100-rsm0-rcm44-esm29-rsr0-rcr25-esr310,exr/ReadingArea_rsl0-rcl44-esl100-rsm0-rcm44-esm29-rsr0-rcr25-esr310.exr,ReadingArea_rsl0-rcl44-esl100-rsm0-rcm44-esm29-rsr0-rcr25-esr310.npz,,,,,0,30,30,17,,left,green,0.78,132.84965586662292,133.29614782333374,1,1,7,lightness,readingArea,realistic,75,2023-03-25_14h03.26.258,tripletExp_regina_11082022,2022.2.4,120.4152503445108,
9,13,5,0,0.444444444444444,1.0,0,0.111111111111111,3.10526315789474,0,1.0,0.298245614035088,ReadingArea_rsl0-rcl44-esl100-rsm0-rcm11-esm310-rsr0-rcr100-esr29,exr/ReadingArea_rsl0-rcl44-esl100-rsm0-rcm11-esm310-rsr0-rcr100-esr29.exr,ReadingArea_rsl0-rcl44-esl100-rsm0-rcm11-esm310-rsr0-rcr100-esr29.npz,,,,,0,31,31,349,,left,green,0.64,135.01292490959167,135.49756288528442,1,1,7,lightness,readingArea,realistic,75,2023-03-25_14h03.26.258,tripletExp_regina_11082022,2022.2.4,120.4152503445108,
4,12,7,0,0.694444444444444,0.298245614035088,0,0.027777777777778,3.10526315789474,0,0.111111111111111,1.0,ReadingArea_rsl0-rcl69-esl29-rsm0-rcm2-esm310-rsr0-rcr11-esr100,exr/ReadingArea_rsl0-rcl69-esl29-rsm0-rcm2-esm310-rsr0-rcr11-esr100.exr,ReadingArea_rsl0-rcl69-esl29-rsm0-rcm2-esm310-rsr0-rcr11-esr100.npz,,,,,0,32,32,112,,right,red,0.94,137.22233605384827,137.67220902442932,1,1,7,lightness,readingArea,realistic,75,2023-03-25_14h03.26.258,tripletExp_regina_11082022,2022.2.4,120.4152503445108,
0,14,6,0,0.027777777777778,0.298245614035088,0,0.25,3.10526315789474,0,0.027777777777778,1.0,ReadingArea_rsl0-rcl2-esl29-rsm0-rcm25-esm310-rsr0-rcr2-esr100,exr/ReadingArea_rsl0-rcl2-esl29-rsm0-rcm25-esm310-rsr0-rcr2-esr100.exr,ReadingArea_rsl0-rcl2-esl29-rsm0-rcm25-esm310-rsr0-rcr2-esr100.npz,,,,,0,33,33,499,,right,red,1.17,139.3660650253296,139.84355187416077,1,1,7,lightness,readingArea,realistic,75,2023-03-25_14h03.26.258,tripletExp_regina_11082022,2022.2.4,120.4152503445108,
7,4,2,0,0.111111111111111,1.0,0,0.694444444444444,0.298245614035088,0,0.25,0.298245614035088,ReadingArea_rsl0-rcl11-esl100-rsm0-rcm69-esm29-rsr0-rcr25-esr29,exr/ReadingArea_rsl0-rcl11-esl100-rsm0-rcm69-esm29-rsr0-rcr25-esr29.exr,ReadingArea_rsl0-rcl11-esl100-rsm0-rcm69-esm29-rsr0-rcr25-esr29.npz,,,,,0,34,34,146,,left,green,2.81,143.29925799369812,143.78457188606262,1,1,7,lightness,readingArea,realistic,75,2023-03-25_14h03.26.258,tripletExp_regina_11082022,2022.2.4,120.4152503445108,
14,10,13,0,0.25,3.10526315789474,0,0.694444444444444,1.0,0,0.111111111111111,3.10526315789474,ReadingArea_rsl0-rcl25-esl310-rsm0-rcm69-esm100-rsr0-rcr11-esr310,exr/ReadingArea_rsl0-rcl25-esl310-rsm0-rcm69-esm100-rsr0-rcr11-esr310.exr,ReadingArea_rsl0-rcl25-esl310-rsm0-rcm69-esm100-rsr0-rcr11-esr310.npz,,,,,0,35,35,204,,left,green,0.68,145.4836299419403,145.94320392608645,1,1,7,lightness,readingArea,realistic,75,2023-03-25_14h03.26.258,tripletExp_regina_11082022,2022.2.4,120.4152503445108,
14,7,1,0,0.25,3.10526315789474,0,0.111111111111111,1.0,0,0.111111111111111,0.298245614035088,ReadingArea_rsl0-rcl25-esl310-rsm0-rcm11-esm100-rsr0-rcr11-esr29,exr/ReadingArea_rsl0-rcl25-esl310-rsm0-rcm11-esm100-rsr0-rcr11-esr29.exr,ReadingArea_rsl0-rcl25-esl310-rsm0-rcm11-esm100-rsr0-rcr11-esr29.npz,,,,,0,36,36,298,,right,red,0.68,147.6639699935913,148.13625693321228,1,1,7,lightness,readingArea,realistic,75,2023-03-25_14h03.26.258,tripletExp_regina_11082022,2022.2.4,120.4152503445108,
5,4,1,0,1.0,0.298245614035088,0,0.694444444444444,0.298245614035088,0,0.111111111111111,0.298245614035088,ReadingArea_rsl0-rcl100-esl29-rsm0-rcm69-esm29-rsr0-rcr11-esr29,exr/ReadingArea_rsl0-rcl100-esl29-rsm0-rcm69-esm29-rsr0-rcr11-esr29.exr,ReadingArea_rsl0-rcl100-esl29-rsm0-rcm69-esm29-rsr0-rcr11-esr29.npz,,,,,0,37,37,560,,left,green,0.74,149.85609889030457,150.40959095954895,1,1,7,lightness,readingArea,realistic,75,2023-03-25_14h03.26.258,tripletExp_regina_11082022,2022.2.4,120.4152503445108,
6,12,7,0,0.027777777777778,1.0,0,0.027777777777778,3.10526315789474,0,0.111111111111111,1.0,ReadingArea_rsl0-rcl2-esl100-rsm0-rcm2-esm310-rsr0-rcr11-esr100,exr/ReadingArea_rsl0-rcl2-esl100-rsm0-rcm2-esm310-rsr0-rcr11-esr100.exr,ReadingArea_rsl0-rcl2-esl100-rsm0-rcm2-esm310-rsr0-rcr11-esr100.npz,,,,,0,38,38,157,,left,green,0.97,152.09571194648743,,1,1,7,lightness,readingArea,realistic,75,2023-03-25_14h03.26.258,tripletExp_regina_11082022,2022.2.4,120.4152503445108,
2,6,13,0,0.25,0.298245614035088,0,0.027777777777778,1.0,0,0.111111111111111,3.10526315789474,ReadingArea_rsl0-rcl25-esl29-rsm0-rcm2-esm100-rsr0-rcr11-esr310,exr/ReadingArea_rsl0-rcl25-esl29-rsm0-rcm2-esm100-rsr0-rcr11-esr310.exr,ReadingArea_rsl0-rcl25-esl29-rsm0-rcm2-esm100-rsr0-rcr11-esr310.npz,,,,,0,39,39,388,,left,green,0.74,154.31178092956543,154.76489782333374,1,1,7,lightness,readingArea,realistic,75,2023-03-25_14h03.26.258,tripletExp_regina_11082022,2022.2.4,120.4152503445108,
14,13,2,0,0.25,3.10526315789474,0,0.111111111111111,3.10526315789474,0,0.25,0.298245614035088,ReadingArea_rsl0-rcl25-esl310-rsm0-rcm11-esm310-rsr0-rcr25-esr29,exr/ReadingArea_rsl0-rcl25-esl310-rsm0-rcm11-esm310-rsr0-rcr25-esr29.exr,ReadingArea_rsl0-rcl25-esl310-rsm0-rcm11-esm310-rsr0-rcr25-esr29.npz,,,,,0,40,40,377,,right,red,2.29,158.25045800209045,158.71028685569763,1,1,7,lightness,readingArea,realistic,75,2023-03-25_14h03.26.258,tripletExp_regina_11082022,2022.2.4,120.4152503445108,
3,9,10,0,0.444444444444444,0.298245614035088,0,0.444444444444444,1.0,0,0.694444444444444,1.0,ReadingArea_rsl0-rcl44-esl29-rsm0-rcm44-esm100-rsr0-rcr69-esr100,exr/ReadingArea_rsl0-rcl44-esl29-rsm0-rcm44-esm100-rsr0-rcr69-esr100.exr,ReadingArea_rsl0-rcl44-esl29-rsm0-rcm44-esm100-rsr0-rcr69-esr100.npz,,,,,0,41,41,581,,right,red,1.08,160.4015769958496,160.85640501976013,1,1,7,lightness,readingArea,realistic,75,2023-03-25_14h03.26.258,tripletExp_regina_11082022,2022.2.4,120.4152503445108,
3,6,10,0,0.444444444444444,0.298245614035088,0,0.027777777777778,1.0,0,0.694444444444444,1.0,ReadingArea_rsl0-rcl44-esl29-rsm0-rcm2-esm100-rsr0-rcr69-esr100,exr/ReadingArea_rsl0-rcl44-esl29-rsm0-rcm2-esm100-rsr0-rcr69-esr100.exr,ReadingArea_rsl0-rcl44-esl29-rsm0-rcm2-esm100-rsr0-rcr69-esr100.npz,,,,,0,42,42,138,,left,green,0.63,162.58003997802734,163.04020190238953,1,1,7,lightness,readingArea,realistic,75,2023-03-25_14h03.26.258,tripletExp_regina_11082022,2022.2.4,120.4152503445108,
5,2,0,0,1.0,0.298245614035088,0,0.25,0.298245614035088,0,0.027777777777778,0.298245614035088,ReadingArea_rsl0-rcl100-esl29-rsm0-rcm25-esm29-rsr0-rcr2-esr29,exr/ReadingArea_rsl0-rcl100-esl29-rsm0-rcm25-esm29-rsr0-rcr2-esr29.exr,ReadingArea_rsl0-rcl100-esl29-rsm0-rcm25-esm29-rsr0-rcr2-esr29.npz,,,,,0,43,43,476,,right,red,1.16,164.74591588974,165.17355799674988,1,1,7,lightness,readingArea,realistic,75,2023-03-25_14h03.26.258,tripletExp_regina_11082022,2022.2.4,120.4152503445108,
5,10,0,0,1.0,0.298245614035088,0,0.694444444444444,1.0,0,0.027777777777778,0.298245614035088,ReadingArea_rsl0-rcl100-esl29-rsm0-rcm69-esm100-rsr0-rcr2-esr29,exr/ReadingArea_rsl0-rcl100-esl29-rsm0-rcm69-esm100-rsr0-rcr2-esr29.exr,ReadingArea_rsl0-rcl100-esl29-rsm0-rcm69-esm100-rsr0-rcr2-esr29.npz,,,,,0,44,44,293,,left,green,0.69,166.8857619762421,167.34192204475403,1,1,7,lightness,readingArea,realistic,75,2023-03-25_14h03.26.258,tripletExp_regina_11082022,2022.2.4,120.4152503445108,
10,4,9,0,0.694444444444444,1.0,0,0.694444444444444,0.298245614035088,0,0.444444444444444,1.0,ReadingArea_rsl0-rcl69-esl100-rsm0-rcm69-esm29-rsr0-rcr44-esr100,exr/ReadingArea_rsl0-rcl69-esl100-rsm0-rcm69-esm29-rsr0-rcr44-esr100.exr,ReadingArea_rsl0-rcl69-esl100-rsm0-rcm69-esm29-rsr0-rcr44-esr100.npz,,,,,0,45,45,452,,right,red,0.88,169.0559539794922,169.4888949394226,1,1,7,lightness,readingArea,realistic,75,2023-03-25_14h03.26.258,tripletExp_regina_11082022,2022.2.4,120.4152503445108,
6,4,10,0,0.027777777777778,1.0,0,0.694444444444444,0.298245614035088,0,0.694444444444444,1.0,ReadingArea_rsl0-rcl2-esl100-rsm0-rcm69-esm29-rsr0-rcr69-esr100,exr/ReadingArea_rsl0-rcl2-esl100-rsm0-rcm69-esm29-rsr0-rcr69-esr100.exr,ReadingArea_rsl0-rcl2-esl100-rsm0-rcm69-esm29-rsr0-rcr69-esr100.npz,,,,,0,46,46,554,,right,red,0.67,171.188560962677,171.6711230278015,1,1,7,lightness,readingArea,realistic,75,2023-03-25_14h03.26.258,tripletExp_regina_11082022,2022.2.4,120.4152503445108,
0,5,1,0,0.027777777777778,0.298245614035088,0,1.0,0.298245614035088,0,0.111111111111111,0.298245614035088,ReadingArea_rsl0-rcl2-esl29-rsm0-rcm100-esm29-rsr0-rcr11-esr29,exr/ReadingArea_rsl0-rcl2-esl29-rsm0-rcm100-esm29-rsr0-rcr11-esr29.exr,ReadingArea_rsl0-rcl2-esl29-rsm0-rcm100-esm29-rsr0-rcr11-esr29.npz,,,,,0,47,47,367,,right,red,0.92,173.36467385292053,173.8262038230896,1,1,7,lightness,readingArea,realistic,75,2023-03-25_14h03.26.258,tripletExp_regina_11082022,2022.2.4,120.4152503445108,
1,9,11,0,0.111111111111111,0.298245614035088,0,0.444444444444444,1.0,0,1.0,1.0,ReadingArea_rsl0-rcl11-esl29-rsm0-rcm44-esm100-rsr0-rcr100-esr100,exr/ReadingArea_rsl0-rcl11-esl29-rsm0-rcm44-esm100-rsr0-rcr100-esr100.exr,ReadingArea_rsl0-rcl11-esl29-rsm0-rcm44-esm100-rsr0-rcr100-esr100.npz,,,,,0,48,48,215,,right,red,0.73,175.53431391716003,176.00705003738403,1,1,7,lightness,readingArea,realistic,75,2023-03-25_14h03.26.258,tripletExp_regina_11082022,2022.2.4,120.4152503445108,
4,10,6,0,0.694444444444444,0.298245614035088,0,0.694444444444444,1.0,0,0.027777777777778,1.0,ReadingArea_rsl0-rcl69-esl29-rsm0-rcm69-esm100-rsr0-rcr2-esr100,exr/ReadingArea_rsl0-rcl69-esl29-rsm0-rcm69-esm100-rsr0-rcr2-esr100.exr,ReadingArea_rsl0-rcl69-esl29-rsm0-rcm69-esm100-rsr0-rcr2-esr100.npz,,,,,0,49,49,468,,left,green,0.65,177.73061299324036,178.1855959892273,1,1,7,lightness,readingArea,realistic,75,2023-03-25_14h03.26.258,tripletExp_regina_11082022,2022.2.4,120.4152503445108,
12,3,0,0,0.027777777777778,3.10526315789474,0,0.444444444444444,0.298245614035088,0,0.027777777777778,0.298245614035088,ReadingArea_rsl0-rcl2-esl310-rsm0-rcm44-esm29-rsr0-rcr2-esr29,exr/ReadingArea_rsl0-rcl2-esl310-rsm0-rcm44-esm29-rsr0-rcr2-esr29.exr,ReadingArea_rsl0-rcl2-esl310-rsm0-rcm44-esm29-rsr0-rcr2-esr29.npz,,,,,0,50,50,502,,left,green,0.87,179.90595889091492,180.3873789310456,1,1,7,lightness,readingArea,realistic,75,2023-03-25_14h03.26.258,tripletExp_regina_11082022,2022.2.4,120.4152503445108,
11,5,1,0,1.0,1.0,0,1.0,0.298245614035088,0,0.111111111111111,0.298245614035088,ReadingArea_rsl0-rcl100-esl100-rsm0-rcm100-esm29-rsr0-rcr11-esr29,exr/ReadingArea_rsl0-rcl100-esl100-rsm0-rcm100-esm29-rsr0-rcr11-esr29.exr,ReadingArea_rsl0-rcl100-esl100-rsm0-rcm100-esm29-rsr0-rcr11-esr29.npz,,,,,0,51,51,48,,left,green,0.87,182.1090650558472,,1,1,7,lightness,readingArea,realistic,75,2023-03-25_14h03.26.258,tripletExp_regina_11082022,2022.2.4,120.4152503445108,
3,7,8,0,0.444444444444444,0.298245614035088,0,0.111111111111111,1.0,0,0.25,1.0,ReadingArea_rsl0-rcl44-esl29-rsm0-rcm11-esm100-rsr0-rcr25-esr100,exr/ReadingArea_rsl0-rcl44-esl29-rsm0-rcm11-esm100-rsr0-rcr25-esr100.exr,ReadingArea_rsl0-rcl44-esl29-rsm0-rcm11-esm100-rsr0-rcr25-esr100.npz,,,,,0,52,52,246,,left,green,2.23,186.1572799682617,186.6146628856659,1,1,7,lightness,readingArea,realistic,75,2023-03-25_14h03.26.258,tripletExp_regina_11082022,2022.2.4,120.4152503445108,
0,14,11,0,0.027777777777778,0.298245614035088,0,0.25,3.10526315789474,0,1.0,1.0,ReadingArea_rsl0-rcl2-esl29-rsm0-rcm25-esm310-rsr0-rcr100-esr100,exr/ReadingArea_rsl0-rcl2-esl29-rsm0-rcm25-esm310-rsr0-rcr100-esr100.exr,ReadingArea_rsl0-rcl2-esl29-rsm0-rcm25-esm310-rsr0-rcr100-esr100.npz,,,,,0,53,53,557,,right,red,0.71,188.30375289916992,188.9631879329681,1,1,7,lightness,readingArea,realistic,75,2023-03-25_14h03.26.258,tripletExp_regina_11082022,2022.2.4,120.4152503445108,
2,12,6,0,0.25,0.298245614035088,0,0.027777777777778,3.10526315789474,0,0.027777777777778,1.0,ReadingArea_rsl0-rcl25-esl29-rsm0-rcm2-esm310-rsr0-rcr2-esr100,exr/ReadingArea_rsl0-rcl25-esl29-rsm0-rcm2-esm310-rsr0-rcr2-esr100.exr,ReadingArea_rsl0-rcl25-esl29-rsm0-rcm2-esm310-rsr0-rcr2-esr100.npz,,,,,0,54,54,400,,right,red,1.1,190.6623358726501,191.10777592659,1,1,7,lightness,readingArea,realistic,75,2023-03-25_14h03.26.258,tripletExp_regina_11082022,2022.2.4,120.4152503445108,
4,14,12,0,0.694444444444444,0.298245614035088,0,0.25,3.10526315789474,0,0.027777777777778,3.10526315789474,ReadingArea_rsl0-rcl69-esl29-rsm0-rcm25-esm310-rsr0-rcr2-esr310,exr/ReadingArea_rsl0-rcl69-esl29-rsm0-rcm25-esm310-rsr0-rcr2-esr310.exr,ReadingArea_rsl0-rcl69-esl29-rsm0-rcm25-esm310-rsr0-rcr2-esr310.npz,,,,,0,55,55,392,,left,green,0.72,192.8226408958435,193.29145097732544,1,1,7,lightness,readingArea,realistic,75,2023-03-25_14h03.26.258,tripletExp_regina_11082022,2022.2.4,120.4152503445108,
9,6,1,0,0.444444444444444,1.0,0,0.027777777777778,1.0,0,0.111111111111111,0.298245614035088,ReadingArea_rsl0-rcl44-esl100-rsm0-rcm2-esm100-rsr0-rcr11-esr29,exr/ReadingArea_rsl0-rcl44-esl100-rsm0-rcm2-esm100-rsr0-rcr11-esr29.exr,ReadingArea_rsl0-rcl44-esl100-rsm0-rcm2-esm100-rsr0-rcr11-esr29.npz,,,,,0,56,56,526,,right,red,0.63,195.00889992713928,195.47308087348927,1,1,7,lightness,readingArea,realistic,75,2023-03-25_14h03.26.258,tripletExp_regina_11082022,2022.2.4,120.4152503445108,
10,0,11,0,0.694444444444444,1.0,0,0.027777777777778,0.298245614035088,0,1.0,1.0,ReadingArea_rsl0-rcl69-esl100-rsm0-rcm2-esm29-rsr0-rcr100-esr100,exr/ReadingArea_rsl0-rcl69-esl100-rsm0-rcm2-esm29-rsr0-rcr100-esr100.exr,ReadingArea_rsl0-rcl69-esl100-rsm0-rcm2-esm29-rsr0-rcr100-esr100.npz,,,,,0,57,57,573,,left,green,1.39,197.17450785636905,197.62395191192627,1,1,7,lightness,readingArea,realistic,75,2023-03-25_14h03.26.258,tripletExp_regina_11082022,2022.2.4,120.4152503445108,
4,8,11,0,0.694444444444444,0.298245614035088,0,0.25,1.0,0,1.0,1.0,ReadingArea_rsl0-rcl69-esl29-rsm0-rcm25-esm100-rsr0-rcr100-esr100,exr/ReadingArea_rsl0-rcl69-esl29-rsm0-rcm25-esm100-rsr0-rcr100-esr100.exr,ReadingArea_rsl0-rcl69-esl29-rsm0-rcm25-esm100-rsr0-rcr100-esr100.npz,,,,,0,58,58,403,,left,green,0.69,199.3352739810944,199.8218560218811,1,1,7,lightness,readingArea,realistic,75,2023-03-25_14h03.26.258,tripletExp_regina_11082022,2022.2.4,120.4152503445108,
3,7,9,0,0.444444444444444,0.298245614035088,0,0.111111111111111,1.0,0,0.444444444444444,1.0,ReadingArea_rsl0-rcl44-esl29-rsm0-rcm11-esm100-rsr0-rcr44-esr100,exr/ReadingArea_rsl0-rcl44-esl29-rsm0-rcm11-esm100-rsr0-rcr44-esr100.exr,ReadingArea_rsl0-rcl44-esl29-rsm0-rcm11-esm100-rsr0-rcr44-esr100.npz,,,,,0,59,59,382,,left,green,0.65,201.54147291183472,202.0046730041504,1,1,7,lightness,readingArea,realistic,75,2023-03-25_14h03.26.258,tripletExp_regina_11082022,2022.2.4,120.4152503445108,
11,4,2,0,1.0,1.0,0,0.694444444444444,0.298245614035088,0,0.25,0.298245614035088,ReadingArea_rsl0-rcl100-esl100-rsm0-rcm69-esm29-rsr0-rcr25-esr29,exr/ReadingArea_rsl0-rcl100-esl100-rsm0-rcm69-esm29-rsr0-rcr25-esr29.exr,ReadingArea_rsl0-rcl100-esl100-rsm0-rcm69-esm29-rsr0-rcr25-esr29.npz,,,,,0,60,60,280,,right,red,0.64,203.6982429027557,204.17367887496948,1,1,7,lightness,readingArea,realistic,75,2023-03-25_14h03.26.258,tripletExp_regina_11082022,2022.2.4,120.4152503445108,
6,13,8,0,0.027777777777778,1.0,0,0.111111111111111,3.10526315789474,0,0.25,1.0,ReadingArea_rsl0-rcl2-esl100-rsm0-rcm11-esm310-rsr0-rcr25-esr100,exr/ReadingArea_rsl0-rcl2-esl100-rsm0-rcm11-esm310-rsr0-rcr25-esr100.exr,ReadingArea_rsl0-rcl2-esl100-rsm0-rcm11-esm310-rsr0-rcr25-esr100.npz,,,,,0,61,61,535,,right,red,0.76,205.86203289031985,206.33663988113403,1,1,7,lightness,readingArea,realistic,75,2023-03-25_14h03.26.258,tripletExp_regina_11082022,2022.2.4,120.4152503445108,
8,10,6,0,0.25,1.0,0,0.694444444444444,1.0,0,0.027777777777778,1.0,ReadingArea_rsl0-rcl25-esl100-rsm0-rcm69-esm100-rsr0-rcr2-esr100,exr/ReadingArea_rsl0-rcl25-esl100-rsm0-rcm69-esm100-rsr0-rcr2-esr100.exr,ReadingArea_rsl0-rcl25-esl100-rsm0-rcm69-esm100-rsr0-rcr2-esr100.npz,,,,,0,62,62,129,,left,green,0.77,208.05234289169312,208.53268003463745,1,1,7,lightness,readingArea,realistic,75,2023-03-25_14h03.26.258,tripletExp_regina_11082022,2022.2.4,120.4152503445108,
7,8,6,0,0.111111111111111,1.0,0,0.25,1.0,0,0.027777777777778,1.0,ReadingArea_rsl0-rcl11-esl100-rsm0-rcm25-esm100-rsr0-rcr2-esr100,exr/ReadingArea_rsl0-rcl11-esl100-rsm0-rcm25-esm100-rsr0-rcr2-esr100.exr,ReadingArea_rsl0-rcl11-esl100-rsm0-rcm25-esm100-rsr0-rcr2-esr100.npz,,,,,0,63,63,387,,left,green,0.72,210.22421598434448,210.6915409564972,1,1,7,lightness,readingArea,realistic,75,2023-03-25_14h03.26.258,tripletExp_regina_11082022,2022.2.4,120.4152503445108,
9,6,8,0,0.444444444444444,1.0,0,0.027777777777778,1.0,0,0.25,1.0,ReadingArea_rsl0-rcl44-esl100-rsm0-rcm2-esm100-rsr0-rcr25-esr100,exr/ReadingArea_rsl0-rcl44-esl100-rsm0-rcm2-esm100-rsr0-rcr25-esr100.exr,ReadingArea_rsl0-rcl44-esl100-rsm0-rcm2-esm100-rsr0-rcr25-esr100.npz,,,,,0,64,64,312,,right,red,0.83,212.3992660045624,212.86783289909363,1,1,7,lightness,readingArea,realistic,75,2023-03-25_14h03.26.258,tripletExp_regina_11082022,2022.2.4,120.4152503445108,
14,12,10,0,0.25,3.10526315789474,0,0.027777777777778,3.10526315789474,0,0.694444444444444,1.0,ReadingArea_rsl0-rcl25-esl310-rsm0-rcm2-esm310-rsr0-rcr69-esr100,exr/ReadingArea_rsl0-rcl25-esl310-rsm0-rcm2-esm310-rsr0-rcr69-esr100.exr,ReadingArea_rsl0-rcl25-esl310-rsm0-rcm2-esm310-rsr0-rcr69-esr100.npz,,,,,0,65,65,331,,right,red,0.98,214.5596690177917,215.06911182403564,1,1,7,lightness,readingArea,realistic,75,2023-03-25_14h03.26.258,tripletExp_regina_11082022,2022.2.4,120.4152503445108,
3,12,4,0,0.444444444444444,0.298245614035088,0,0.027777777777778,3.10526315789474,0,0.694444444444444,0.298245614035088,ReadingArea_rsl0-rcl44-esl29-rsm0-rcm2-esm310-rsr0-rcr69-esr29,exr/ReadingArea_rsl0-rcl44-esl29-rsm0-rcm2-esm310-rsr0-rcr69-esr29.exr,ReadingArea_rsl0-rcl44-esl29-rsm0-rcm2-esm310-rsr0-rcr69-esr29.npz,,,,,0,66,66,426,,left,green,0.78,216.75878596305847,217.199208021164,1,1,7,lightness,readingArea,realistic,75,2023-03-25_14h03.26.258,tripletExp_regina_11082022,2022.2.4,120.4152503445108,
9,11,13,0,0.444444444444444,1.0,0,1.0,1.0,0,0.111111111111111,3.10526315789474,ReadingArea_rsl0-rcl44-esl100-rsm0-rcm100-esm100-rsr0-rcr11-esr310,exr/ReadingArea_rsl0-rcl44-esl100-rsm0-rcm100-esm100-rsr0-rcr11-esr310.exr,ReadingArea_rsl0-rcl44-esl100-rsm0-rcm100-esm100-rsr0-rcr11-esr310.npz,,,,,0,67,67,254,,left,green,0.53,218.89850282669067,219.35737204551697,1,1,7,lightness,readingArea,realistic,75,2023-03-25_14h03.26.258,tripletExp_regina_11082022,2022.2.4,120.4152503445108,
8,14,3,0,0.25,1.0,0,0.25,3.10526315789474,0,0.444444444444444,0.298245614035088,ReadingArea_rsl0-rcl25-esl100-rsm0-rcm25-esm310-rsr0-rcr44-esr29,exr/ReadingArea_rsl0-rcl25-esl100-rsm0-rcm25-esm310-rsr0-rcr44-esr29.exr,ReadingArea_rsl0-rcl25-esl100-rsm0-rcm25-esm310-rsr0-rcr44-esr29.npz,,,,,0,68,68,503,,left,green,0.97,221.0661919116974,221.5198190212249,1,1,7,lightness,readingArea,realistic,75,2023-03-25_14h03.26.258,tripletExp_regina_11082022,2022.2.4,120.4152503445108,
2,4,14,0,0.25,0.298245614035088,0,0.694444444444444,0.298245614035088,0,0.25,3.10526315789474,ReadingArea_rsl0-rcl25-esl29-rsm0-rcm69-esm29-rsr0-rcr25-esr310,exr/ReadingArea_rsl0-rcl25-esl29-rsm0-rcm69-esm29-rsr0-rcr25-esr310.exr,ReadingArea_rsl0-rcl25-esl29-rsm0-rcm69-esm29-rsr0-rcr25-esr310.npz,,,,,0,69,69,356,,right,red,0.52,223.2283999919892,223.65666484832764,1,1,7,lightness,readingArea,realistic,75,2023-03-25_14h03.26.258,tripletExp_regina_11082022,2022.2.4,120.4152503445108,
9,0,11,0,0.444444444444444,1.0,0,0.027777777777778,0.298245614035088,0,1.0,1.0,ReadingArea_rsl0-rcl44-esl100-rsm0-rcm2-esm29-rsr0-rcr100-esr100,exr/ReadingArea_rsl0-rcl44-esl100-rsm0-rcm2-esm29-rsr0-rcr100-esr100.exr,ReadingArea_rsl0-rcl44-esl100-rsm0-rcm2-esm29-rsr0-rcr100-esr100.npz,,,,,0,70,70,319,,left,green,0.93,225.35829997062683,225.8211109638214,1,1,7,lightness,readingArea,realistic,75,2023-03-25_14h03.26.258,tripletExp_regina_11082022,2022.2.4,120.4152503445108,
11,7,8,0,1.0,1.0,0,0.111111111111111,1.0,0,0.25,1.0,ReadingArea_rsl0-rcl100-esl100-rsm0-rcm11-esm100-rsr0-rcr25-esr100,exr/ReadingArea_rsl0-rcl100-esl100-rsm0-rcm11-esm100-rsr0-rcr25-esr100.exr,ReadingArea_rsl0-rcl100-esl100-rsm0-rcm11-esm100-rsr0-rcr25-esr100.npz,,,,,0,71,71,37,,right,red,0.72,227.51639485359192,,1,1,7,lightness,readingArea,realistic,75,2023-03-25_14h03.26.258,tripletExp_regina_11082022,2022.2.4,120.4152503445108,
13,9,6,0,0.111111111111111,3.10526315789474,0,0.444444444444444,1.0,0,0.027777777777778,1.0,ReadingArea_rsl0-rcl11-esl310-rsm0-rcm44-esm100-rsr0-rcr2-esr100,exr/ReadingArea_rsl0-rcl11-esl310-rsm0-rcm44-esm100-rsr0-rcr2-esr100.exr,ReadingArea_rsl0-rcl11-esl310-rsm0-rcm44-esm100-rsr0-rcr2-esr100.npz,,,,,0,72,72,19,,left,green,0.59,229.67161393165588,230.11994791030884,1,1,7,lightness,readingArea,realistic,75,2023-03-25_14h03.26.258,tripletExp_regina_11082022,2022.2.4,120.4152503445108,
11,5,4,0,1.0,1.0,0,1.0,0.298245614035088,0,0.694444444444444,0.298245614035088,ReadingArea_rsl0-rcl100-esl100-rsm0-rcm100-esm29-rsr0-rcr69-esr29,exr/ReadingArea_rsl0-rcl100-esl100-rsm0-rcm100-esm29-rsr0-rcr69-esr29.exr,ReadingArea_rsl0-rcl100-esl100-rsm0-rcm100-esm29-rsr0-rcr69-esr29.npz,,,,,0,73,73,564,,right,red,0.8,231.8088450431824,,1,1,7,lightness,readingArea,realistic,75,2023-03-25_14h03.26.258,tripletExp_regina_11082022,2022.2.4,120.4152503445108,
3,6,5,0,0.444444444444444,0.298245614035088,0,0.027777777777778,1.0,0,1.0,0.298245614035088,ReadingArea_rsl0-rcl44-esl29-rsm0-rcm2-esm100-rsr0-rcr100-esr29,exr/ReadingArea_rsl0-rcl44-esl29-rsm0-rcm2-esm100-rsr0-rcr100-esr29.exr,ReadingArea_rsl0-rcl44-esl29-rsm0-rcm2-esm100-rsr0-rcr100-esr29.npz,,,,,0,74,74,274,,left,green,0.7,233.98239493370056,234.1824209690094,1,1,7,lightness,readingArea,realistic,75,2023-03-25_14h03.26.258,tripletExp_regina_11082022,2022.2.4,120.4152503445108,
1,3,12,0,0.111111111111111,0.298245614035088,0,0.444444444444444,0.298245614035088,0,0.027777777777778,3.10526315789474,ReadingArea_rsl0-rcl11-esl29-rsm0-rcm44-esm29-rsr0-rcr2-esr310,exr/ReadingArea_rsl0-rcl11-esl29-rsm0-rcm44-esm29-rsr0-rcr2-esr310.exr,ReadingArea_rsl0-rcl11-esl29-rsm0-rcm44-esm29-rsr0-rcr2-esr310.npz,,,,,0,75,75,323,,right,red,2.38,238.67450094223025,239.1366708278656,2,1,7,lightness,readingArea,realistic,75,2023-03-25_14h03.26.258,tripletExp_regina_11082022,2022.2.4,120.4152503445108,
14,2,6,0,0.25,3.10526315789474,0,0.25,0.298245614035088,0,0.027777777777778,1.0,ReadingArea_rsl0-rcl25-esl310-rsm0-rcm25-esm29-rsr0-rcr2-esr100,exr/ReadingArea_rsl0-rcl25-esl310-rsm0-rcm25-esm29-rsr0-rcr2-esr100.exr,ReadingArea_rsl0-rcl25-esl310-rsm0-rcm25-esm29-rsr0-rcr2-esr100.npz,,,,,0,76,76,350,,right,red,0.64,240.8605818748474,241.3272490501404,2,1,7,lightness,readingArea,realistic,75,2023-03-25_14h03.26.258,tripletExp_regina_11082022,2022.2.4,120.4152503445108,
12,14,8,0,0.027777777777778,3.10526315789474,0,0.25,3.10526315789474,0,0.25,1.0,ReadingArea_rsl0-rcl2-esl310-rsm0-rcm25-esm310-rsr0-rcr25-esr100,exr/ReadingArea_rsl0-rcl2-esl310-rsm0-rcm25-esm310-rsr0-rcr25-esr100.exr,ReadingArea_rsl0-rcl2-esl310-rsm0-rcm25-esm310-rsr0-rcr25-esr100.npz,,,,,0,77,77,466,,right,red,0.71,243.05082201957703,243.67169189453125,2,1,7,lightness,readingArea,realistic,75,2023-03-25_14h03.26.258,tripletExp_regina_11082022,2022.2.4,120.4152503445108,
4,12,5,0,0.694444444444444,0.298245614035088,0,0.027777777777778,3.10526315789474,0,1.0,0.298245614035088,ReadingArea_rsl0-rcl69-esl29-rsm0-rcm2-esm310-rsr0-rcr100-esr29,exr/ReadingArea_rsl0-rcl69-esl29-rsm0-rcm2-esm310-rsr0-rcr100-esr29.exr,ReadingArea_rsl0-rcl69-esl29-rsm0-rcm2-esm310-rsr0-rcr100-esr29.npz,,,,,0,78,78,296,,left,green,1.03,245.3924369812012,245.82828187942505,2,1,7,lightness,readingArea,realistic,75,2023-03-25_14h03.26.258,tripletExp_regina_11082022,2022.2.4,120.4152503445108,
0,12,7,0,0.027777777777778,0.298245614035088,0,0.027777777777778,3.10526315789474,0,0.111111111111111,1.0,ReadingArea_rsl0-rcl2-esl29-rsm0-rcm2-esm310-rsr0-rcr11-esr100,exr/ReadingArea_rsl0-rcl2-esl29-rsm0-rcm2-esm310-rsr0-rcr11-esr100.exr,ReadingArea_rsl0-rcl2-esl29-rsm0-rcm2-esm310-rsr0-rcr11-esr100.npz,,,,,0,79,79,481,,right,red,0.6,247.54334902763367,248.0151419639588,2,1,7,lightness,readingArea,realistic,75,2023-03-25_14h03.26.258,tripletExp_regina_11082022,2022.2.4,120.4152503445108,
4,5,1,0,0.694444444444444,0.298245614035088,0,1.0,0.298245614035088,0,0.111111111111111,0.298245614035088,ReadingArea_rsl0-rcl69-esl29-rsm0-rcm100-esm29-rsr0-rcr11-esr29,exr/ReadingArea_rsl0-rcl69-esl29-rsm0-rcm100-esm29-rsr0-rcr11-esr29.exr,ReadingArea_rsl0-rcl69-esl29-rsm0-rcm100-esm29-rsr0-rcr11-esr29.npz,,,,,0,80,80,240,,left,green,0.59,249.709568977356,250.1680438518524,2,1,7,lightness,readingArea,realistic,75,2023-03-25_14h03.26.258,tripletExp_regina_11082022,2022.2.4,120.4152503445108,
14,11,0,0,0.25,3.10526315789474,0,1.0,1.0,0,0.027777777777778,0.298245614035088,ReadingArea_rsl0-rcl25-esl310-rsm0-rcm100-esm100-rsr0-rcr2-esr29,exr/ReadingArea_rsl0-rcl25-esl310-rsm0-rcm100-esm100-rsr0-rcr2-esr29.exr,ReadingArea_rsl0-rcl25-esl310-rsm0-rcm100-esm100-rsr0-rcr2-esr29.npz,,,,,0,81,81,227,,left,green,0.62,251.8813428878784,252.3328168392181,2,1,7,lightness,readingArea,realistic,75,2023-03-25_14h03.26.258,tripletExp_regina_11082022,2022.2.4,120.4152503445108,
5,14,8,0,1.0,0.298245614035088,0,0.25,3.10526315789474,0,0.25,1.0,ReadingArea_rsl0-rcl100-esl29-rsm0-rcm25-esm310-rsr0-rcr25-esr100,exr/ReadingArea_rsl0-rcl100-esl29-rsm0-rcm25-esm310-rsr0-rcr25-esr100.exr,ReadingArea_rsl0-rcl100-esl29-rsm0-rcm25-esm310-rsr0-rcr25-esr100.npz,,,,,0,82,82,14,,left,green,0.82,254.0211989879608,254.4894769191742,2,1,7,lightness,readingArea,realistic,75,2023-03-25_14h03.26.258,tripletExp_regina_11082022,2022.2.4,120.4152503445108,
10,11,5,0,0.694444444444444,1.0,0,1.0,1.0,0,1.0,0.298245614035088,ReadingArea_rsl0-rcl69-esl100-rsm0-rcm100-esm100-rsr0-rcr100-esr29,exr/ReadingArea_rsl0-rcl69-esl100-rsm0-rcm100-esm100-rsr0-rcr100-esr29.exr,ReadingArea_rsl0-rcl69-esl100-rsm0-rcm100-esm100-rsr0-rcr100-esr29.npz,,,,,0,83,83,514,,left,green,0.79,256.1780400276184,256.62633204460144,2,1,7,lightness,readingArea,realistic,75,2023-03-25_14h03.26.258,tripletExp_regina_11082022,2022.2.4,120.4152503445108,
5,1,4,0,1.0,0.298245614035088,0,0.111111111111111,0.298245614035088,0,0.694444444444444,0.298245614035088,ReadingArea_rsl0-rcl100-esl29-rsm0-rcm11-esm29-rsr0-rcr69-esr29,exr/ReadingArea_rsl0-rcl100-esl29-rsm0-rcm11-esm29-rsr0-rcr69-esr29.exr,ReadingArea_rsl0-rcl100-esl29-rsm0-rcm11-esm29-rsr0-rcr69-esr29.npz,,,,,0,84,84,287,,right,red,2.13,260.095577955246,260.561625957489,2,1,7,lightness,readingArea,realistic,75,2023-03-25_14h03.26.258,tripletExp_regina_11082022,2022.2.4,120.4152503445108,
7,4,6,0,0.111111111111111,1.0,0,0.694444444444444,0.298245614035088,0,0.027777777777778,1.0,ReadingArea_rsl0-rcl11-esl100-rsm0-rcm69-esm29-rsr0-rcr2-esr100,exr/ReadingArea_rsl0-rcl11-esl100-rsm0-rcm69-esm29-rsr0-rcr2-esr100.exr,ReadingArea_rsl0-rcl11-esl100-rsm0-rcm69-esm29-rsr0-rcr2-esr100.npz,,,,,0,85,85,528,,left,green,0.94,262.2526609897613,262.71574783325195,2,1,7,lightness,readingArea,realistic,75,2023-03-25_14h03.26.258,tripletExp_regina_11082022,2022.2.4,120.4152503445108,
10,5,2,0,0.694444444444444,1.0,0,1.0,0.298245614035088,0,0.25,0.298245614035088,ReadingArea_rsl0-rcl69-esl100-rsm0-rcm100-esm29-rsr0-rcr25-esr29,exr/ReadingArea_rsl0-rcl69-esl100-rsm0-rcm100-esm29-rsr0-rcr25-esr29.exr,ReadingArea_rsl0-rcl69-esl100-rsm0-rcm100-esm29-rsr0-rcr25-esr29.npz,,,,,0,86,86,299,,left,green,0.62,264.4302990436554,,2,1,7,lightness,readingArea,realistic,75,2023-03-25_14h03.26.258,tripletExp_regina_11082022,2022.2.4,120.4152503445108,
3,4,11,0,0.444444444444444,0.298245614035088,0,0.694444444444444,0.298245614035088,0,1.0,1.0,ReadingArea_rsl0-rcl44-esl29-rsm0-rcm69-esm29-rsr0-rcr100-esr100,exr/ReadingArea_rsl0-rcl44-esl29-rsm0-rcm69-esm29-rsr0-rcr100-esr100.exr,ReadingArea_rsl0-rcl44-esl29-rsm0-rcm69-esm29-rsr0-rcr100-esr100.npz,,,,,0,87,87,207,,left,green,0.82,266.58617401123047,267.08970499038696,2,1,7,lightness,readingArea,realistic,75,2023-03-25_14h03.26.258,tripletExp_regina_11082022,2022.2.4,120.4152503445108,
14,13,6,0,0.25,3.10526315789474,0,0.111111111111111,3.10526315789474,0,0.027777777777778,1.0,ReadingArea_rsl0-rcl25-esl310-rsm0-rcm11-esm310-rsr0-rcr2-esr100,exr/ReadingArea_rsl0-rcl25-esl310-rsm0-rcm11-esm310-rsr0-rcr2-esr100.exr,ReadingArea_rsl0-rcl25-esl310-rsm0-rcm11-esm310-rsr0-rcr2-esr100.npz,,,,,0,88,88,102,,right,red,3.93,272.3269999027252,272.79406690597534,2,1,7,lightness,readingArea,realistic,75,2023-03-25_14h03.26.258,tripletExp_regina_11082022,2022.2.4,120.4152503445108,
12,9,14,0,0.027777777777778,3.10526315789474,0,0.444444444444444,1.0,0,0.25,3.10526315789474,ReadingArea_rsl0-rcl2-esl310-rsm0-rcm44-esm100-rsr0-rcr25-esr310,exr/ReadingArea_rsl0-rcl2-esl310-rsm0-rcm44-esm100-rsr0-rcr25-esr310.exr,ReadingArea_rsl0-rcl2-esl310-rsm0-rcm44-esm100-rsr0-rcr25-esr310.npz,,,,,0,89,89,123,,right,red,1.15,274.5175850391388,274.9731559753418,2,1,7,lightness,readingArea,realistic,75,2023-03-25_14h03.26.258,tripletExp_regina_11082022,2022.2.4,120.4152503445108,
9,0,8,0,0.444444444444444,1.0,0,0.027777777777778,0.298245614035088,0,0.25,1.0,ReadingArea_rsl0-rcl44-esl100-rsm0-rcm2-esm29-rsr0-rcr25-esr100,exr/ReadingArea_rsl0-rcl44-esl100-rsm0-rcm2-esm29-rsr0-rcr25-esr100.exr,ReadingArea_rsl0-rcl44-esl100-rsm0-rcm2-esm29-rsr0-rcr25-esr100.npz,,,,,0,90,90,27,,right,red,0.9,276.6949260234833,277.1324908733368,2,1,7,lightness,readingArea,realistic,75,2023-03-25_14h03.26.258,tripletExp_regina_11082022,2022.2.4,120.4152503445108,
6,0,14,0,0.027777777777778,1.0,0,0.027777777777778,0.298245614035088,0,0.25,3.10526315789474,ReadingArea_rsl0-rcl2-esl100-rsm0-rcm2-esm29-rsr0-rcr25-esr310,exr/ReadingArea_rsl0-rcl2-esl100-rsm0-rcm2-esm29-rsr0-rcr25-esr310.exr,ReadingArea_rsl0-rcl2-esl100-rsm0-rcm2-esm29-rsr0-rcr25-esr310.npz,,,,,0,91,91,169,,left,green,0.62,278.8519129753113,279.32211685180664,2,1,7,lightness,readingArea,realistic,75,2023-03-25_14h03.26.258,tripletExp_regina_11082022,2022.2.4,120.4152503445108,
10,3,1,0,0.694444444444444,1.0,0,0.444444444444444,0.298245614035088,0,0.111111111111111,0.298245614035088,ReadingArea_rsl0-rcl69-esl100-rsm0-rcm44-esm29-rsr0-rcr11-esr29,exr/ReadingArea_rsl0-rcl69-esl100-rsm0-rcm44-esm29-rsr0-rcr11-esr29.exr,ReadingArea_rsl0-rcl69-esl100-rsm0-rcm44-esm29-rsr0-rcr11-esr29.npz,,,,,0,92,92,420,,right,red,0.79,281.0370819568634,281.50686597824097,2,1,7,lightness,readingArea,realistic,75,2023-03-25_14h03.26.258,tripletExp_regina_11082022,2022.2.4,120.4152503445108,
11,1,4,0,1.0,1.0,0,0.111111111111111,0.298245614035088,0,0.694444444444444,0.298245614035088,ReadingArea_rsl0-rcl100-esl100-rsm0-rcm11-esm29-rsr0-rcr69-esr29,exr/ReadingArea_rsl0-rcl100-esl100-rsm0-rcm11-esm29-rsr0-rcr69-esr29.exr,ReadingArea_rsl0-rcl100-esl100-rsm0-rcm11-esm29-rsr0-rcr69-esr29.npz,,,,,0,93,93,110,,right,red,0.78,283.2037818431854,283.8061139583588,2,1,7,lightness,readingArea,realistic,75,2023-03-25_14h03.26.258,tripletExp_regina_11082022,2022.2.4,120.4152503445108,
4,5,8,0,0.694444444444444,0.298245614035088,0,1.0,0.298245614035088,0,0.25,1.0,ReadingArea_rsl0-rcl69-esl29-rsm0-rcm100-esm29-rsr0-rcr25-esr100,exr/ReadingArea_rsl0-rcl69-esl29-rsm0-rcm100-esm29-rsr0-rcr25-esr100.exr,ReadingArea_rsl0-rcl69-esl29-rsm0-rcm100-esm29-rsr0-rcr25-esr100.npz,,,,,0,94,94,54,,left,green,1.03,285.50777101516724,286.0244069099426,2,1,7,lightness,readingArea,realistic,75,2023-03-25_14h03.26.258,tripletExp_regina_11082022,2022.2.4,120.4152503445108,
2,7,11,0,0.25,0.298245614035088,0,0.111111111111111,1.0,0,1.0,1.0,ReadingArea_rsl0-rcl25-esl29-rsm0-rcm11-esm100-rsr0-rcr100-esr100,exr/ReadingArea_rsl0-rcl25-esl29-rsm0-rcm11-esm100-rsr0-rcr100-esr100.exr,ReadingArea_rsl0-rcl25-esl29-rsm0-rcm11-esm100-rsr0-rcr100-esr100.npz,,,,,0,95,95,194,,left,green,0.72,287.7513749599457,,2,1,7,lightness,readingArea,realistic,75,2023-03-25_14h03.26.258,tripletExp_regina_11082022,2022.2.4,120.4152503445108,
12,3,5,0,0.027777777777778,3.10526315789474,0,0.444444444444444,0.298245614035088,0,1.0,0.298245614035088,ReadingArea_rsl0-rcl2-esl310-rsm0-rcm44-esm29-rsr0-rcr100-esr29,exr/ReadingArea_rsl0-rcl2-esl310-rsm0-rcm44-esm29-rsr0-rcr100-esr29.exr,ReadingArea_rsl0-rcl2-esl310-rsm0-rcm44-esm29-rsr0-rcr100-esr29.npz,,,,,0,96,96,188,,left,green,2.1,291.6877589225769,292.15360283851624,2,1,7,lightness,readingArea,realistic,75,2023-03-25_14h03.26.258,tripletExp_regina_11082022,2022.2.4,120.4152503445108,
6,10,9,0,0.027777777777778,1.0,0,0.694444444444444,1.0,0,0.444444444444444,1.0,ReadingArea_rsl0-rcl2-esl100-rsm0-rcm69-esm100-rsr0-rcr44-esr100,exr/ReadingArea_rsl0-rcl2-esl100-rsm0-rcm69-esm100-rsr0-rcr44-esr100.exr,ReadingArea_rsl0-rcl2-esl100-rsm0-rcm69-esm100-rsr0-rcr44-esr100.npz,,,,,0,97,97,148,,right,red,0.8,293.849308013916,294.28832483291626,2,1,7,lightness,readingArea,realistic,75,2023-03-25_14h03.26.258,tripletExp_regina_11082022,2022.2.4,120.4152503445108,
6,0,4,0,0.027777777777778,1.0,0,0.027777777777778,0.298245614035088,0,0.694444444444444,0.298245614035088,ReadingArea_rsl0-rcl2-esl100-rsm0-rcm2-esm29-rsr0-rcr69-esr29,exr/ReadingArea_rsl0-rcl2-esl100-rsm0-rcm2-esm29-rsr0-rcr69-esr29.exr,ReadingArea_rsl0-rcl2-esl100-rsm0-rcm2-esm29-rsr0-rcr69-esr29.npz,,,,,0,98,98,555,,left,green,0.63,295.9930548667908,296.43709993362427,2,1,7,lightness,readingArea,realistic,75,2023-03-25_14h03.26.258,tripletExp_regina_11082022,2022.2.4,120.4152503445108,
14,2,1,0,0.25,3.10526315789474,0,0.25,0.298245614035088,0,0.111111111111111,0.298245614035088,ReadingArea_rsl0-rcl25-esl310-rsm0-rcm25-esm29-rsr0-rcr11-esr29,exr/ReadingArea_rsl0-rcl25-esl310-rsm0-rcm25-esm29-rsr0-rcr11-esr29.exr,ReadingArea_rsl0-rcl25-esl310-rsm0-rcm25-esm29-rsr0-rcr11-esr29.npz,,,,,0,99,99,321,,right,red,0.63,298.1266620159149,298.75937485694885,2,1,7,lightness,readingArea,realistic,75,2023-03-25_14h03.26.258,tripletExp_regina_11082022,2022.2.4,120.4152503445108,
11,7,13,0,1.0,1.0,0,0.111111111111111,1.0,0,0.111111111111111,3.10526315789474,ReadingArea_rsl0-rcl100-esl100-rsm0-rcm11-esm100-rsr0-rcr11-esr310,exr/ReadingArea_rsl0-rcl100-esl100-rsm0-rcm11-esm100-rsr0-rcr11-esr310.exr,ReadingArea_rsl0-rcl100-esl100-rsm0-rcm11-esm100-rsr0-rcr11-esr310.npz,,,,,0,100,100,431,,right,red,0.87,300.4442310333252,,2,1,7,lightness,readingArea,realistic,75,2023-03-25_14h03.26.258,tripletExp_regina_11082022,2022.2.4,120.4152503445108,
9,3,0,0,0.444444444444444,1.0,0,0.444444444444444,0.298245614035088,0,0.027777777777778,0.298245614035088,ReadingArea_rsl0-rcl44-esl100-rsm0-rcm44-esm29-rsr0-rcr2-esr29,exr/ReadingArea_rsl0-rcl44-esl100-rsm0-rcm44-esm29-rsr0-rcr2-esr29.exr,ReadingArea_rsl0-rcl44-esl100-rsm0-rcm44-esm29-rsr0-rcr2-esr29.npz,,,,,0,101,101,120,,left,green,1.06,302.64178586006165,303.1917748451233,2,1,7,lightness,readingArea,realistic,75,2023-03-25_14h03.26.258,tripletExp_regina_11082022,2022.2.4,120.4152503445108,
8,9,6,0,0.25,1.0,0,0.444444444444444,1.0,0,0.027777777777778,1.0,ReadingArea_rsl0-rcl25-esl100-rsm0-rcm44-esm100-rsr0-rcr2-esr100,exr/ReadingArea_rsl0-rcl25-esl100-rsm0-rcm44-esm100-rsr0-rcr2-esr100.exr,ReadingArea_rsl0-rcl25-esl100-rsm0-rcm44-esm100-rsr0-rcr2-esr100.npz,,,,,0,102,102,3,,left,green,0.64,304.8870179653168,,2,1,7,lightness,readingArea,realistic,75,2023-03-25_14h03.26.258,tripletExp_regina_11082022,2022.2.4,120.4152503445108,
12,6,2,0,0.027777777777778,3.10526315789474,0,0.027777777777778,1.0,0,0.25,0.298245614035088,ReadingArea_rsl0-rcl2-esl310-rsm0-rcm2-esm100-rsr0-rcr25-esr29,exr/ReadingArea_rsl0-rcl2-esl310-rsm0-rcm2-esm100-rsr0-rcr25-esr29.exr,ReadingArea_rsl0-rcl2-esl310-rsm0-rcm2-esm100-rsr0-rcr25-esr29.npz,,,,,0,103,103,106,,left,green,0.62,307.098249912262,307.54739904403687,2,1,7,lightness,readingArea,realistic,75,2023-03-25_14h03.26.258,tripletExp_regina_11082022,2022.2.4,120.4152503445108,
7,14,11,0,0.111111111111111,1.0,0,0.25,3.10526315789474,0,1.0,1.0,ReadingArea_rsl0-rcl11-esl100-rsm0-rcm25-esm310-rsr0-rcr100-esr100,exr/ReadingArea_rsl0-rcl11-esl100-rsm0-rcm25-esm310-rsr0-rcr100-esr100.exr,ReadingArea_rsl0-rcl11-esl100-rsm0-rcm25-esm310-rsr0-rcr100-esr100.npz,,,,,0,104,104,252,,right,red,1.09,309.2449119091034,309.70716404914856,2,1,7,lightness,readingArea,realistic,75,2023-03-25_14h03.26.258,tripletExp_regina_11082022,2022.2.4,120.4152503445108,
9,11,5,0,0.444444444444444,1.0,0,1.0,1.0,0,1.0,0.298245614035088,ReadingArea_rsl0-rcl44-esl100-rsm0-rcm100-esm100-rsr0-rcr100-esr29,exr/ReadingArea_rsl0-rcl44-esl100-rsm0-rcm100-esm100-rsr0-rcr100-esr29.exr,ReadingArea_rsl0-rcl44-esl100-rsm0-rcm100-esm100-rsr0-rcr100-esr29.npz,,,,,0,105,105,142,,left,green,0.72,311.3989899158478,311.8465609550476,2,1,7,lightness,readingArea,realistic,75,2023-03-25_14h03.26.258,tripletExp_regina_11082022,2022.2.4,120.4152503445108,
13,1,7,0,0.111111111111111,3.10526315789474,0,0.111111111111111,0.298245614035088,0,0.111111111111111,1.0,ReadingArea_rsl0-rcl11-esl310-rsm0-rcm11-esm29-rsr0-rcr11-esr100,exr/ReadingArea_rsl0-rcl11-esl310-rsm0-rcm11-esm29-rsr0-rcr11-esr100.exr,ReadingArea_rsl0-rcl11-esl310-rsm0-rcm11-esm29-rsr0-rcr11-esr100.npz,,,,,0,106,106,206,,right,red,0.68,313.56291604042053,,2,1,7,lightness,readingArea,realistic,75,2023-03-25_14h03.26.258,tripletExp_regina_11082022,2022.2.4,120.4152503445108,
14,12,0,0,0.25,3.10526315789474,0,0.027777777777778,3.10526315789474,0,0.027777777777778,0.298245614035088,ReadingArea_rsl0-rcl25-esl310-rsm0-rcm2-esm310-rsr0-rcr2-esr29,exr/ReadingArea_rsl0-rcl25-esl310-rsm0-rcm2-esm310-rsr0-rcr2-esr29.exr,ReadingArea_rsl0-rcl25-esl310-rsm0-rcm2-esm310-rsr0-rcr2-esr29.npz,,,,,0,107,107,409,,right,red,0.78,315.8335838317871,316.37442803382874,2,1,7,lightness,readingArea,realistic,75,2023-03-25_14h03.26.258,tripletExp_regina_11082022,2022.2.4,120.4152503445108,
11,10,0,0,1.0,1.0,0,0.694444444444444,1.0,0,0.027777777777778,0.298245614035088,ReadingArea_rsl0-rcl100-esl100-rsm0-rcm69-esm100-rsr0-rcr2-esr29,exr/ReadingArea_rsl0-rcl100-esl100-rsm0-rcm69-esm100-rsr0-rcr2-esr29.exr,ReadingArea_rsl0-rcl100-esl100-rsm0-rcm69-esm100-rsr0-rcr2-esr29.npz,,,,,0,108,108,549,,left,green,0.73,318.06216382980347,318.52021193504333,2,1,7,lightness,readingArea,realistic,75,2023-03-25_14h03.26.258,tripletExp_regina_11082022,2022.2.4,120.4152503445108,
2,11,14,0,0.25,0.298245614035088,0,1.0,1.0,0,0.25,3.10526315789474,ReadingArea_rsl0-rcl25-esl29-rsm0-rcm100-esm100-rsr0-rcr25-esr310,exr/ReadingArea_rsl0-rcl25-esl29-rsm0-rcm100-esm100-rsr0-rcr25-esr310.exr,ReadingArea_rsl0-rcl25-esl29-rsm0-rcm100-esm100-rsr0-rcr25-esr310.npz,,,,,0,109,109,534,,right,red,0.55,320.23888993263245,,2,1,7,lightness,readingArea,realistic,75,2023-03-25_14h03.26.258,tripletExp_regina_11082022,2022.2.4,120.4152503445108,
8,9,2,0,0.25,1.0,0,0.444444444444444,1.0,0,0.25,0.298245614035088,ReadingArea_rsl0-rcl25-esl100-rsm0-rcm44-esm100-rsr0-rcr25-esr29,exr/ReadingArea_rsl0-rcl25-esl100-rsm0-rcm44-esm100-rsr0-rcr25-esr29.exr,ReadingArea_rsl0-rcl25-esl100-rsm0-rcm44-esm100-rsr0-rcr25-esr29.npz,,,,,0,110,110,559,,left,green,0.76,322.39534997940063,322.8397288322449,2,1,7,lightness,readingArea,realistic,75,2023-03-25_14h03.26.258,tripletExp_regina_11082022,2022.2.4,120.4152503445108,
3,9,0,0,0.444444444444444,0.298245614035088,0,0.444444444444444,1.0,0,0.027777777777778,0.298245614035088,ReadingArea_rsl0-rcl44-esl29-rsm0-rcm44-esm100-rsr0-rcr2-esr29,exr/ReadingArea_rsl0-rcl44-esl29-rsm0-rcm44-esm100-rsr0-rcr2-esr29.exr,ReadingArea_rsl0-rcl44-esl29-rsm0-rcm44-esm100-rsr0-rcr2-esr29.npz,,,,,0,111,111,551,,left,green,0.63,324.52986192703247,324.9993908405304,2,1,7,lightness,readingArea,realistic,75,2023-03-25_14h03.26.258,tripletExp_regina_11082022,2022.2.4,120.4152503445108,
7,14,10,0,0.111111111111111,1.0,0,0.25,3.10526315789474,0,0.694444444444444,1.0,ReadingArea_rsl0-rcl11-esl100-rsm0-rcm25-esm310-rsr0-rcr69-esr100,exr/ReadingArea_rsl0-rcl11-esl100-rsm0-rcm25-esm310-rsr0-rcr69-esr100.exr,ReadingArea_rsl0-rcl11-esl100-rsm0-rcm25-esm310-rsr0-rcr69-esr100.npz,,,,,0,112,112,472,,right,red,0.61,326.72304797172546,,2,1,7,lightness,readingArea,realistic,75,2023-03-25_14h03.26.258,tripletExp_regina_11082022,2022.2.4,120.4152503445108,
6,3,1,0,0.027777777777778,1.0,0,0.444444444444444,0.298245614035088,0,0.111111111111111,0.298245614035088,ReadingArea_rsl0-rcl2-esl100-rsm0-rcm44-esm29-rsr0-rcr11-esr29,exr/ReadingArea_rsl0-rcl2-esl100-rsm0-rcm44-esm29-rsr0-rcr11-esr29.exr,ReadingArea_rsl0-rcl2-esl100-rsm0-rcm44-esm29-rsr0-rcr11-esr29.npz,,,,,0,113,113,430,,right,red,2.07,330.66906690597534,331.11560797691345,2,1,7,lightness,readingArea,realistic,75,2023-03-25_14h03.26.258,tripletExp_regina_11082022,2022.2.4,120.4152503445108,
3,10,9,0,0.444444444444444,0.298245614035088,0,0.694444444444444,1.0,0,0.444444444444444,1.0,ReadingArea_rsl0-rcl44-esl29-rsm0-rcm69-esm100-rsr0-rcr44-esr100,exr/ReadingArea_rsl0-rcl44-esl29-rsm0-rcm69-esm100-rsr0-rcr44-esr100.exr,ReadingArea_rsl0-rcl44-esl29-rsm0-rcm69-esm100-rsr0-rcr44-esr100.npz,,,,,0,114,114,222,,right,red,0.53,332.8192808628082,333.29502987861633,2,1,7,lightness,readingArea,realistic,75,2023-03-25_14h03.26.258,tripletExp_regina_11082022,2022.2.4,120.4152503445108,
6,13,0,0,0.027777777777778,1.0,0,0.111111111111111,3.10526315789474,0,0.027777777777778,0.298245614035088,ReadingArea_rsl0-rcl2-esl100-rsm0-rcm11-esm310-rsr0-rcr2-esr29,exr/ReadingArea_rsl0-rcl2-esl100-rsm0-rcm11-esm310-rsr0-rcr2-esr29.exr,ReadingArea_rsl0-rcl2-esl100-rsm0-rcm11-esm310-rsr0-rcr2-esr29.npz,,,,,0,115,115,580,,left,green,2.17,336.77867102622986,337.34266996383667,2,1,7,lightness,readingArea,realistic,75,2023-03-25_14h03.26.258,tripletExp_regina_11082022,2022.2.4,120.4152503445108,
6,12,0,0,0.027777777777778,1.0,0,0.027777777777778,3.10526315789474,0,0.027777777777778,0.298245614035088,ReadingArea_rsl0-rcl2-esl100-rsm0-rcm2-esm310-rsr0-rcr2-esr29,exr/ReadingArea_rsl0-rcl2-esl100-rsm0-rcm2-esm310-rsr0-rcr2-esr29.exr,ReadingArea_rsl0-rcl2-esl100-rsm0-rcm2-esm310-rsr0-rcr2-esr29.npz,,,,,0,116,116,23,,left,green,1.03,339.03907585144043,339.54287004470825,2,1,7,lightness,readingArea,realistic,75,2023-03-25_14h03.26.258,tripletExp_regina_11082022,2022.2.4,120.4152503445108,
5,3,0,0,1.0,0.298245614035088,0,0.444444444444444,0.298245614035088,0,0.027777777777778,0.298245614035088,ReadingArea_rsl0-rcl100-esl29-rsm0-rcm44-esm29-rsr0-rcr2-esr29,exr/ReadingArea_rsl0-rcl100-esl29-rsm0-rcm44-esm29-rsr0-rcr2-esr29.exr,ReadingArea_rsl0-rcl100-esl29-rsm0-rcm44-esm29-rsr0-rcr2-esr29.npz,,,,,0,117,117,303,,left,green,2.55,343.0056388378144,343.51093101501465,2,1,7,lightness,readingArea,realistic,75,2023-03-25_14h03.26.258,tripletExp_regina_11082022,2022.2.4,120.4152503445108,
14,5,13,0,0.25,3.10526315789474,0,1.0,0.298245614035088,0,0.111111111111111,3.10526315789474,ReadingArea_rsl0-rcl25-esl310-rsm0-rcm100-esm29-rsr0-rcr11-esr310,exr/ReadingArea_rsl0-rcl25-esl310-rsm0-rcm100-esm29-rsr0-rcr11-esr310.exr,ReadingArea_rsl0-rcl25-esl310-rsm0-rcm100-esm29-rsr0-rcr11-esr310.npz,,,,,0,118,118,524,,right,red,0.92,345.21282386779785,345.6651840209961,2,1,7,lightness,readingArea,realistic,75,2023-03-25_14h03.26.258,tripletExp_regina_11082022,2022.2.4,120.4152503445108,
12,3,10,0,0.027777777777778,3.10526315789474,0,0.444444444444444,0.298245614035088,0,0.694444444444444,1.0,ReadingArea_rsl0-rcl2-esl310-rsm0-rcm44-esm29-rsr0-rcr69-esr100,exr/ReadingArea_rsl0-rcl2-esl310-rsm0-rcm44-esm29-rsr0-rcr69-esr100.exr,ReadingArea_rsl0-rcl2-esl310-rsm0-rcm44-esm29-rsr0-rcr69-esr100.npz,,,,,0,119,119,437,,left,green,0.85,347.3645479679108,347.91978788375854,2,1,7,lightness,readingArea,realistic,75,2023-03-25_14h03.26.258,tripletExp_regina_11082022,2022.2.4,120.4152503445108,
11,5,3,0,1.0,1.0,0,1.0,0.298245614035088,0,0.444444444444444,0.298245614035088,ReadingArea_rsl0-rcl100-esl100-rsm0-rcm100-esm29-rsr0-rcr44-esr29,exr/ReadingArea_rsl0-rcl100-esl100-rsm0-rcm100-esm29-rsr0-rcr44-esr29.exr,ReadingArea_rsl0-rcl100-esl100-rsm0-rcm100-esm29-rsr0-rcr44-esr29.npz,,,,,0,120,120,172,,left,green,0.78,349.623183965683,350.08362197875977,2,1,7,lightness,readingArea,realistic,75,2023-03-25_14h03.26.258,tripletExp_regina_11082022,2022.2.4,120.4152503445108,
10,6,8,0,0.694444444444444,1.0,0,0.027777777777778,1.0,0,0.25,1.0,ReadingArea_rsl0-rcl69-esl100-rsm0-rcm2-esm100-rsr0-rcr25-esr100,exr/ReadingArea_rsl0-rcl69-esl100-rsm0-rcm2-esm100-rsr0-rcr25-esr100.exr,ReadingArea_rsl0-rcl69-esl100-rsm0-rcm2-esm100-rsr0-rcr25-esr100.npz,,,,,0,121,121,145,,right,red,0.82,351.80699586868286,352.24676489830017,2,1,7,lightness,readingArea,realistic,75,2023-03-25_14h03.26.258,tripletExp_regina_11082022,2022.2.4,120.4152503445108,
12,10,5,0,0.027777777777778,3.10526315789474,0,0.694444444444444,1.0,0,1.0,0.298245614035088,ReadingArea_rsl0-rcl2-esl310-rsm0-rcm69-esm100-rsr0-rcr100-esr29,exr/ReadingArea_rsl0-rcl2-esl310-rsm0-rcm69-esm100-rsr0-rcr100-esr29.exr,ReadingArea_rsl0-rcl2-esl310-rsm0-rcm69-esm100-rsr0-rcr100-esr29.npz,,,,,0,122,122,470,,right,red,0.56,353.9407260417938,354.44940185546875,2,1,7,lightness,readingArea,realistic,75,2023-03-25_14h03.26.258,tripletExp_regina_11082022,2022.2.4,120.4152503445108,
2,1,3,0,0.25,0.298245614035088,0,0.111111111111111,0.298245614035088,0,0.444444444444444,0.298245614035088,ReadingArea_rsl0-rcl25-esl29-rsm0-rcm11-esm29-rsr0-rcr44-esr29,exr/ReadingArea_rsl0-rcl25-esl29-rsm0-rcm11-esm29-rsr0-rcr44-esr29.exr,ReadingArea_rsl0-rcl25-esl29-rsm0-rcm11-esm29-rsr0-rcr44-esr29.npz,,,,,0,123,123,85,,left,green,0.69,356.14317202568054,356.60603404045105,2,1,7,lightness,readingArea,realistic,75,2023-03-25_14h03.26.258,tripletExp_regina_11082022,2022.2.4,120.4152503445108,
6,7,3,0,0.027777777777778,1.0,0,0.111111111111111,1.0,0,0.444444444444444,0.298245614035088,ReadingArea_rsl0-rcl2-esl100-rsm0-rcm11-esm100-rsr0-rcr44-esr29,exr/ReadingArea_rsl0-rcl2-esl100-rsm0-rcm11-esm100-rsr0-rcr44-esr29.exr,ReadingArea_rsl0-rcl2-esl100-rsm0-rcm11-esm100-rsr0-rcr44-esr29.npz,,,,,0,124,124,47,,right,red,0.86,358.3158710002899,358.76070404052734,2,1,7,lightness,readingArea,realistic,75,2023-03-25_14h03.26.258,tripletExp_regina_11082022,2022.2.4,120.4152503445108,
2,12,13,0,0.25,0.298245614035088,0,0.027777777777778,3.10526315789474,0,0.111111111111111,3.10526315789474,ReadingArea_rsl0-rcl25-esl29-rsm0-rcm2-esm310-rsr0-rcr11-esr310,exr/ReadingArea_rsl0-rcl25-esl29-rsm0-rcm2-esm310-rsr0-rcr11-esr310.exr,ReadingArea_rsl0-rcl25-esl29-rsm0-rcm2-esm310-rsr0-rcr11-esr310.npz,,,,,0,125,125,232,,left,green,0.66,360.4832129478455,360.9488308429718,2,1,7,lightness,readingArea,realistic,75,2023-03-25_14h03.26.258,tripletExp_regina_11082022,2022.2.4,120.4152503445108,
3,4,5,0,0.444444444444444,0.298245614035088,0,0.694444444444444,0.298245614035088,0,1.0,0.298245614035088,ReadingArea_rsl0-rcl44-esl29-rsm0-rcm69-esm29-rsr0-rcr100-esr29,exr/ReadingArea_rsl0-rcl44-esl29-rsm0-rcm69-esm29-rsr0-rcr100-esr29.exr,ReadingArea_rsl0-rcl44-esl29-rsm0-rcm69-esm29-rsr0-rcr100-esr29.npz,,,,,0,126,126,233,,right,red,0.72,362.667398929596,363.1296579837799,2,1,7,lightness,readingArea,realistic,75,2023-03-25_14h03.26.258,tripletExp_regina_11082022,2022.2.4,120.4152503445108,
9,12,0,0,0.444444444444444,1.0,0,0.027777777777778,3.10526315789474,0,0.027777777777778,0.298245614035088,ReadingArea_rsl0-rcl44-esl100-rsm0-rcm2-esm310-rsr0-rcr2-esr29,exr/ReadingArea_rsl0-rcl44-esl100-rsm0-rcm2-esm310-rsr0-rcr2-esr29.exr,ReadingArea_rsl0-rcl44-esl100-rsm0-rcm2-esm310-rsr0-rcr2-esr29.npz,,,,,0,127,127,175,,right,red,0.67,364.8294839859009,,2,1,7,lightness,readingArea,realistic,75,2023-03-25_14h03.26.258,tripletExp_regina_11082022,2022.2.4,120.4152503445108,
13,0,9,0,0.111111111111111,3.10526315789474,0,0.027777777777778,0.298245614035088,0,0.444444444444444,1.0,ReadingArea_rsl0-rcl11-esl310-rsm0-rcm2-esm29-rsr0-rcr44-esr100,exr/ReadingArea_rsl0-rcl11-esl310-rsm0-rcm2-esm29-rsr0-rcr44-esr100.exr,ReadingArea_rsl0-rcl11-esl310-rsm0-rcm2-esm29-rsr0-rcr44-esr100.npz,,,,,0,128,128,373,,left,green,0.76,366.9812228679657,367.6162960529328,2,1,7,lightness,readingArea,realistic,75,2023-03-25_14h03.26.258,tripletExp_regina_11082022,2022.2.4,120.4152503445108,
10,14,1,0,0.694444444444444,1.0,0,0.25,3.10526315789474,0,0.111111111111111,0.298245614035088,ReadingArea_rsl0-rcl69-esl100-rsm0-rcm25-esm310-rsr0-rcr11-esr29,exr/ReadingArea_rsl0-rcl69-esl100-rsm0-rcm25-esm310-rsr0-rcr11-esr29.exr,ReadingArea_rsl0-rcl69-esl100-rsm0-rcm25-esm310-rsr0-rcr11-esr29.npz,,,,,0,129,129,544,,left,green,0.79,369.3088090419769,369.76509404182434,2,1,7,lightness,readingArea,realistic,75,2023-03-25_14h03.26.258,tripletExp_regina_11082022,2022.2.4,120.4152503445108,
7,8,3,0,0.111111111111111,1.0,0,0.25,1.0,0,0.444444444444444,0.298245614035088,ReadingArea_rsl0-rcl11-esl100-rsm0-rcm25-esm100-rsr0-rcr44-esr29,exr/ReadingArea_rsl0-rcl11-esl100-rsm0-rcm25-esm100-rsr0-rcr44-esr29.exr,ReadingArea_rsl0-rcl11-esl100-rsm0-rcm25-esm100-rsr0-rcr44-esr29.npz,,,,,0,130,130,459,,right,red,2.1,373.2220129966736,,2,1,7,lightness,readingArea,realistic,75,2023-03-25_14h03.26.258,tripletExp_regina_11082022,2022.2.4,120.4152503445108,
0,5,11,0,0.027777777777778,0.298245614035088,0,1.0,0.298245614035088,0,1.0,1.0,ReadingArea_rsl0-rcl2-esl29-rsm0-rcm100-esm29-rsr0-rcr100-esr100,exr/ReadingArea_rsl0-rcl2-esl29-rsm0-rcm100-esm29-rsr0-rcr100-esr100.exr,ReadingArea_rsl0-rcl2-esl29-rsm0-rcm100-esm29-rsr0-rcr100-esr100.npz,,,,,0,131,131,422,,right,red,0.6,375.388375043869,375.8277540206909,2,1,7,lightness,readingArea,realistic,75,2023-03-25_14h03.26.258,tripletExp_regina_11082022,2022.2.4,120.4152503445108,
2,4,6,0,0.25,0.298245614035088,0,0.694444444444444,0.298245614035088,0,0.027777777777778,1.0,ReadingArea_rsl0-rcl25-esl29-rsm0-rcm69-esm29-rsr0-rcr2-esr100,exr/ReadingArea_rsl0-rcl25-esl29-rsm0-rcm69-esm29-rsr0-rcr2-esr100.exr,ReadingArea_rsl0-rcl25-esl29-rsm0-rcm69-esm29-rsr0-rcr2-esr100.npz,,,,,0,132,132,563,,left,green,0.59,377.5538768768311,378.0172669887543,2,1,7,lightness,readingArea,realistic,75,2023-03-25_14h03.26.258,tripletExp_regina_11082022,2022.2.4,120.4152503445108,
10,11,0,0,0.694444444444444,1.0,0,1.0,1.0,0,0.027777777777778,0.298245614035088,ReadingArea_rsl0-rcl69-esl100-rsm0-rcm100-esm100-rsr0-rcr2-esr29,exr/ReadingArea_rsl0-rcl69-esl100-rsm0-rcm100-esm100-rsr0-rcr2-esr29.exr,ReadingArea_rsl0-rcl69-esl100-rsm0-rcm100-esm100-rsr0-rcr2-esr29.npz,,,,,0,133,133,58,,left,green,0.6,379.7180368900299,380.1750109195709,2,1,7,lightness,readingArea,realistic,75,2023-03-25_14h03.26.258,tripletExp_regina_11082022,2022.2.4,120.4152503445108,
8,10,9,0,0.25,1.0,0,0.694444444444444,1.0,0,0.444444444444444,1.0,ReadingArea_rsl0-rcl25-esl100-rsm0-rcm69-esm100-rsr0-rcr44-esr100,exr/ReadingArea_rsl0-rcl25-esl100-rsm0-rcm69-esm100-rsr0-rcr44-esr100.exr,ReadingArea_rsl0-rcl25-esl100-rsm0-rcm69-esm100-rsr0-rcr44-esr100.npz,,,,,0,134,134,342,,right,red,2.46,383.65362095832825,384.153128862381,2,1,7,lightness,readingArea,realistic,75,2023-03-25_14h03.26.258,tripletExp_regina_11082022,2022.2.4,120.4152503445108,
12,13,10,0,0.027777777777778,3.10526315789474,0,0.111111111111111,3.10526315789474,0,0.694444444444444,1.0,ReadingArea_rsl0-rcl2-esl310-rsm0-rcm11-esm310-rsr0-rcr69-esr100,exr/ReadingArea_rsl0-rcl2-esl310-rsm0-rcm11-esm310-rsr0-rcr69-esr100.exr,ReadingArea_rsl0-rcl2-esl310-rsm0-rcm11-esm310-rsr0-rcr69-esr100.npz,,,,,0,135,135,295,,left,green,2.61,387.5990509986877,388.0629630088806,2,1,7,lightness,readingArea,realistic,75,2023-03-25_14h03.26.258,tripletExp_regina_11082022,2022.2.4,120.4152503445108,
4,0,1,0,0.694444444444444,0.298245614035088,0,0.027777777777778,0.298245614035088,0,0.111111111111111,0.298245614035088,ReadingArea_rsl0-rcl69-esl29-rsm0-rcm2-esm29-rsr0-rcr11-esr29,exr/ReadingArea_rsl0-rcl69-esl29-rsm0-rcm2-esm29-rsr0-rcr11-esr29.exr,ReadingArea_rsl0-rcl69-esl29-rsm0-rcm2-esm29-rsr0-rcr11-esr29.npz,,,,,0,136,136,173,,right,red,1.25,389.7541630268097,390.2217848300934,2,1,7,lightness,readingArea,realistic,75,2023-03-25_14h03.26.258,tripletExp_regina_11082022,2022.2.4,120.4152503445108,
1,5,7,0,0.111111111111111,0.298245614035088,0,1.0,0.298245614035088,0,0.111111111111111,1.0,ReadingArea_rsl0-rcl11-esl29-rsm0-rcm100-esm29-rsr0-rcr11-esr100,exr/ReadingArea_rsl0-rcl11-esl29-rsm0-rcm100-esm29-rsr0-rcr11-esr100.exr,ReadingArea_rsl0-rcl11-esl29-rsm0-rcm100-esm29-rsr0-rcr11-esr100.npz,,,,,0,137,137,197,,right,red,2.75,393.7108519077301,394.21406292915344,2,1,7,lightness,readingArea,realistic,75,2023-03-25_14h03.26.258,tripletExp_regina_11082022,2022.2.4,120.4152503445108,
14,9,0,0,0.25,3.10526315789474,0,0.444444444444444,1.0,0,0.027777777777778,0.298245614035088,ReadingArea_rsl0-rcl25-esl310-rsm0-rcm44-esm100-rsr0-rcr2-esr29,exr/ReadingArea_rsl0-rcl25-esl310-rsm0-rcm44-esm100-rsr0-rcr2-esr29.exr,ReadingArea_rsl0-rcl25-esl310-rsm0-rcm44-esm100-rsr0-rcr2-esr29.npz,,,,,0,138,138,313,,left,green,1.01,395.90083599090576,,2,1,7,lightness,readingArea,realistic,75,2023-03-25_14h03.26.258,tripletExp_regina_11082022,2022.2.4,120.4152503445108,
14,8,5,0,0.25,3.10526315789474,0,0.25,1.0,0,1.0,0.298245614035088,ReadingArea_rsl0-rcl25-esl310-rsm0-rcm25-esm100-rsr0-rcr100-esr29,exr/ReadingArea_rsl0-rcl25-esl310-rsm0-rcm25-esm100-rsr0-rcr100-esr29.exr,ReadingArea_rsl0-rcl25-esl310-rsm0-rcm25-esm100-rsr0-rcr100-esr29.npz,,,,,0,139,139,28,,right,red,1.07,398.0696909427643,398.546679019928,2,1,7,lightness,readingArea,realistic,75,2023-03-25_14h03.26.258,tripletExp_regina_11082022,2022.2.4,120.4152503445108,
0,5,2,0,0.027777777777778,0.298245614035088,0,1.0,0.298245614035088,0,0.25,0.298245614035088,ReadingArea_rsl0-rcl2-esl29-rsm0-rcm100-esm29-rsr0-rcr25-esr29,exr/ReadingArea_rsl0-rcl2-esl29-rsm0-rcm100-esm29-rsr0-rcr25-esr29.exr,ReadingArea_rsl0-rcl2-esl29-rsm0-rcm100-esm29-rsr0-rcr25-esr29.npz,,,,,0,140,140,25,,right,red,0.77,400.2657878398895,400.7143349647522,2,1,7,lightness,readingArea,realistic,75,2023-03-25_14h03.26.258,tripletExp_regina_11082022,2022.2.4,120.4152503445108,
1,7,8,0,0.111111111111111,0.298245614035088,0,0.111111111111111,1.0,0,0.25,1.0,ReadingArea_rsl0-rcl11-esl29-rsm0-rcm11-esm100-rsr0-rcr25-esr100,exr/ReadingArea_rsl0-rcl11-esl29-rsm0-rcm11-esm100-rsr0-rcr25-esr100.exr,ReadingArea_rsl0-rcl11-esl29-rsm0-rcm11-esm100-rsr0-rcr25-esr100.npz,,,,,0,141,141,260,,left,green,0.64,402.4032859802246,402.9234299659729,2,1,7,lightness,readingArea,realistic,75,2023-03-25_14h03.26.258,tripletExp_regina_11082022,2022.2.4,120.4152503445108,
7,12,0,0,0.111111111111111,1.0,0,0.027777777777778,3.10526315789474,0,0.027777777777778,0.298245614035088,ReadingArea_rsl0-rcl11-esl100-rsm0-rcm2-esm310-rsr0-rcr2-esr29,exr/ReadingArea_rsl0-rcl11-esl100-rsm0-rcm2-esm310-rsr0-rcr2-esr29.exr,ReadingArea_rsl0-rcl11-esl100-rsm0-rcm2-esm310-rsr0-rcr2-esr29.npz,,,,,0,142,142,425,,left,green,1.0,404.63393092155457,405.13783502578735,2,1,7,lightness,readingArea,realistic,75,2023-03-25_14h03.26.258,tripletExp_regina_11082022,2022.2.4,120.4152503445108,
3,0,8,0,0.444444444444444,0.298245614035088,0,0.027777777777778,0.298245614035088,0,0.25,1.0,ReadingArea_rsl0-rcl44-esl29-rsm0-rcm2-esm29-rsr0-rcr25-esr100,exr/ReadingArea_rsl0-rcl44-esl29-rsm0-rcm2-esm29-rsr0-rcr25-esr100.exr,ReadingArea_rsl0-rcl44-esl29-rsm0-rcm2-esm29-rsr0-rcr25-esr100.npz,,,,,0,143,143,510,,left,green,0.85,406.8504009246826,407.2999999523163,2,1,7,lightness,readingArea,realistic,75,2023-03-25_14h03.26.258,tripletExp_regina_11082022,2022.2.4,120.4152503445108,
7,3,5,0,0.111111111111111,1.0,0,0.444444444444444,0.298245614035088,0,1.0,0.298245614035088,ReadingArea_rsl0-rcl11-esl100-rsm0-rcm44-esm29-rsr0-rcr100-esr29,exr/ReadingArea_rsl0-rcl11-esl100-rsm0-rcm44-esm29-rsr0-rcr100-esr29.exr,ReadingArea_rsl0-rcl11-esl100-rsm0-rcm44-esm29-rsr0-rcr100-esr29.npz,,,,,0,144,144,589,,left,green,0.65,408.9920129776001,409.4714319705963,2,1,7,lightness,readingArea,realistic,75,2023-03-25_14h03.26.258,tripletExp_regina_11082022,2022.2.4,120.4152503445108,
9,4,11,0,0.444444444444444,1.0,0,0.694444444444444,0.298245614035088,0,1.0,1.0,ReadingArea_rsl0-rcl44-esl100-rsm0-rcm69-esm29-rsr0-rcr100-esr100,exr/ReadingArea_rsl0-rcl44-esl100-rsm0-rcm69-esm29-rsr0-rcr100-esr100.exr,ReadingArea_rsl0-rcl44-esl100-rsm0-rcm69-esm29-rsr0-rcr100-esr100.npz,,,,,0,145,145,133,,left,green,0.83,411.17867493629456,411.6335430145264,2,1,7,lightness,readingArea,realistic,75,2023-03-25_14h03.26.258,tripletExp_regina_11082022,2022.2.4,120.4152503445108,
3,0,4,0,0.444444444444444,0.298245614035088,0,0.027777777777778,0.298245614035088,0,0.694444444444444,0.298245614035088,ReadingArea_rsl0-rcl44-esl29-rsm0-rcm2-esm29-rsr0-rcr69-esr29,exr/ReadingArea_rsl0-rcl44-esl29-rsm0-rcm2-esm29-rsr0-rcr69-esr29.exr,ReadingArea_rsl0-rcl44-esl29-rsm0-rcm2-esm29-rsr0-rcr69-esr29.npz,,,,,0,146,146,111,,left,green,0.9,413.35448598861694,413.8438949584961,2,1,7,lightness,readingArea,realistic,75,2023-03-25_14h03.26.258,tripletExp_regina_11082022,2022.2.4,120.4152503445108,
14,1,13,0,0.25,3.10526315789474,0,0.111111111111111,0.298245614035088,0,0.111111111111111,3.10526315789474,ReadingArea_rsl0-rcl25-esl310-rsm0-rcm11-esm29-rsr0-rcr11-esr310,exr/ReadingArea_rsl0-rcl25-esl310-rsm0-rcm11-esm29-rsr0-rcr11-esr310.exr,ReadingArea_rsl0-rcl25-esl310-rsm0-rcm11-esm29-rsr0-rcr11-esr310.npz,,,,,0,147,147,265,,right,red,0.68,415.5698399543762,416.04203701019287,2,1,7,lightness,readingArea,realistic,75,2023-03-25_14h03.26.258,tripletExp_regina_11082022,2022.2.4,120.4152503445108,
14,6,12,0,0.25,3.10526315789474,0,0.027777777777778,1.0,0,0.027777777777778,3.10526315789474,ReadingArea_rsl0-rcl25-esl310-rsm0-rcm2-esm100-rsr0-rcr2-esr310,exr/ReadingArea_rsl0-rcl25-esl310-rsm0-rcm2-esm100-rsr0-rcr2-esr310.exr,ReadingArea_rsl0-rcl25-esl310-rsm0-rcm2-esm100-rsr0-rcr2-esr310.npz,,,,,0,148,148,242,,right,red,0.72,417.7434859275818,418.1934039592743,2,1,7,lightness,readingArea,realistic,75,2023-03-25_14h03.26.258,tripletExp_regina_11082022,2022.2.4,120.4152503445108,
11,2,4,0,1.0,1.0,0,0.25,0.298245614035088,0,0.694444444444444,0.298245614035088,ReadingArea_rsl0-rcl100-esl100-rsm0-rcm25-esm29-rsr0-rcr69-esr29,exr/ReadingArea_rsl0-rcl100-esl100-rsm0-rcm25-esm29-rsr0-rcr69-esr29.exr,ReadingArea_rsl0-rcl100-esl100-rsm0-rcm25-esm29-rsr0-rcr69-esr29.npz,,,,,0,149,149,359,,right,red,2.89,421.6538820266724,421.8536260128021,2,1,7,lightness,readingArea,realistic,75,2023-03-25_14h03.26.258,tripletExp_regina_11082022,2022.2.4,120.4152503445108,
10,7,2,0,0.694444444444444,1.0,0,0.111111111111111,1.0,0,0.25,0.298245614035088,ReadingArea_rsl0-rcl69-esl100-rsm0-rcm11-esm100-rsr0-rcr25-esr29,exr/ReadingArea_rsl0-rcl69-esl100-rsm0-rcm11-esm100-rsr0-rcr25-esr29.exr,ReadingArea_rsl0-rcl69-esl100-rsm0-rcm11-esm100-rsr0-rcr25-esr29.npz,,,,,0,150,150,523,,right,red,0.78,517.6470789909363,518.1157660484314,3,1,7,lightness,readingArea,realistic,75,2023-03-25_14h03.26.258,tripletExp_regina_11082022,2022.2.4,120.4152503445108,
13,10,9,0,0.111111111111111,3.10526315789474,0,0.694444444444444,1.0,0,0.444444444444444,1.0,ReadingArea_rsl0-rcl11-esl310-rsm0-rcm69-esm100-rsr0-rcr44-esr100,exr/ReadingArea_rsl0-rcl11-esl310-rsm0-rcm69-esm100-rsr0-rcr44-esr100.exr,ReadingArea_rsl0-rcl11-esl310-rsm0-rcm69-esm100-rsr0-rcr44-esr100.npz,,,,,0,151,151,330,,right,red,2.74,521.5768358707428,522.1738858222961,3,1,7,lightness,readingArea,realistic,75,2023-03-25_14h03.26.258,tripletExp_regina_11082022,2022.2.4,120.4152503445108,
2,5,0,0,0.25,0.298245614035088,0,1.0,0.298245614035088,0,0.027777777777778,0.298245614035088,ReadingArea_rsl0-rcl25-esl29-rsm0-rcm100-esm29-rsr0-rcr2-esr29,exr/ReadingArea_rsl0-rcl25-esl29-rsm0-rcm100-esm29-rsr0-rcr2-esr29.exr,ReadingArea_rsl0-rcl25-esl29-rsm0-rcm100-esm29-rsr0-rcr2-esr29.npz,,,,,0,152,152,414,,left,green,0.84,523.8862669467926,524.3558950424194,3,1,7,lightness,readingArea,realistic,75,2023-03-25_14h03.26.258,tripletExp_regina_11082022,2022.2.4,120.4152503445108,
14,3,6,0,0.25,3.10526315789474,0,0.444444444444444,0.298245614035088,0,0.027777777777778,1.0,ReadingArea_rsl0-rcl25-esl310-rsm0-rcm44-esm29-rsr0-rcr2-esr100,exr/ReadingArea_rsl0-rcl25-esl310-rsm0-rcm44-esm29-rsr0-rcr2-esr100.exr,ReadingArea_rsl0-rcl25-esl310-rsm0-rcm44-esm29-rsr0-rcr2-esr100.npz,,,,,0,153,153,244,,left,green,2.62,527.8499488830566,528.3212678432465,3,1,7,lightness,readingArea,realistic,75,2023-03-25_14h03.26.258,tripletExp_regina_11082022,2022.2.4,120.4152503445108,
4,8,7,0,0.694444444444444,0.298245614035088,0,0.25,1.0,0,0.111111111111111,1.0,ReadingArea_rsl0-rcl69-esl29-rsm0-rcm25-esm100-rsr0-rcr11-esr100,exr/ReadingArea_rsl0-rcl69-esl29-rsm0-rcm25-esm100-rsr0-rcr11-esr100.exr,ReadingArea_rsl0-rcl69-esl29-rsm0-rcm25-esm100-rsr0-rcr11-esr100.npz,,,,,0,154,154,461,,right,red,1.15,530.0145399570465,530.469526052475,3,1,7,lightness,readingArea,realistic,75,2023-03-25_14h03.26.258,tripletExp_regina_11082022,2022.2.4,120.4152503445108,
1,0,4,0,0.111111111111111,0.298245614035088,0,0.027777777777778,0.298245614035088,0,0.694444444444444,0.298245614035088,ReadingArea_rsl0-rcl11-esl29-rsm0-rcm2-esm29-rsr0-rcr69-esr29,exr/ReadingArea_rsl0-rcl11-esl29-rsm0-rcm2-esm29-rsr0-rcr69-esr29.exr,ReadingArea_rsl0-rcl11-esl29-rsm0-rcm2-esm29-rsr0-rcr69-esr29.npz,,,,,0,155,155,494,,left,green,0.62,532.181382894516,532.6820318698883,3,1,7,lightness,readingArea,realistic,75,2023-03-25_14h03.26.258,tripletExp_regina_11082022,2022.2.4,120.4152503445108,
0,5,6,0,0.027777777777778,0.298245614035088,0,1.0,0.298245614035088,0,0.027777777777778,1.0,ReadingArea_rsl0-rcl2-esl29-rsm0-rcm100-esm29-rsr0-rcr2-esr100,exr/ReadingArea_rsl0-rcl2-esl29-rsm0-rcm100-esm29-rsr0-rcr2-esr100.exr,ReadingArea_rsl0-rcl2-esl29-rsm0-rcm100-esm29-rsr0-rcr2-esr100.npz,,,,,0,156,156,374,,right,red,0.8,534.3761599063873,534.8393619060516,3,1,7,lightness,readingArea,realistic,75,2023-03-25_14h03.26.258,tripletExp_regina_11082022,2022.2.4,120.4152503445108,
2,6,0,0,0.25,0.298245614035088,0,0.027777777777778,1.0,0,0.027777777777778,0.298245614035088,ReadingArea_rsl0-rcl25-esl29-rsm0-rcm2-esm100-rsr0-rcr2-esr29,exr/ReadingArea_rsl0-rcl25-esl29-rsm0-rcm2-esm100-rsr0-rcr2-esr29.exr,ReadingArea_rsl0-rcl25-esl29-rsm0-rcm2-esm100-rsr0-rcr2-esr29.npz,,,,,0,157,157,525,,right,red,0.73,536.5309588909149,536.9904689788818,3,1,7,lightness,readingArea,realistic,75,2023-03-25_14h03.26.258,tripletExp_regina_11082022,2022.2.4,120.4152503445108,
1,14,6,0,0.111111111111111,0.298245614035088,0,0.25,3.10526315789474,0,0.027777777777778,1.0,ReadingArea_rsl0-rcl11-esl29-rsm0-rcm25-esm310-rsr0-rcr2-esr100,exr/ReadingArea_rsl0-rcl11-esl29-rsm0-rcm25-esm310-rsr0-rcr2-esr100.exr,ReadingArea_rsl0-rcl11-esl29-rsm0-rcm25-esm310-rsr0-rcr2-esr100.npz,,,,,0,158,158,475,,left,green,1.02,538.6796958446503,539.1503698825836,3,1,7,lightness,readingArea,realistic,75,2023-03-25_14h03.26.258,tripletExp_regina_11082022,2022.2.4,120.4152503445108,
2,9,12,0,0.25,0.298245614035088,0,0.444444444444444,1.0,0,0.027777777777778,3.10526315789474,ReadingArea_rsl0-rcl25-esl29-rsm0-rcm44-esm100-rsr0-rcr2-esr310,exr/ReadingArea_rsl0-rcl25-esl29-rsm0-rcm44-esm100-rsr0-rcr2-esr310.exr,ReadingArea_rsl0-rcl25-esl29-rsm0-rcm44-esm100-rsr0-rcr2-esr310.npz,,,,,0,159,159,354,,left,green,2.14,542.6102809906006,543.0745580196381,3,1,7,lightness,readingArea,realistic,75,2023-03-25_14h03.26.258,tripletExp_regina_11082022,2022.2.4,120.4152503445108,
12,5,14,0,0.027777777777778,3.10526315789474,0,1.0,0.298245614035088,0,0.25,3.10526315789474,ReadingArea_rsl0-rcl2-esl310-rsm0-rcm100-esm29-rsr0-rcr25-esr310,exr/ReadingArea_rsl0-rcl2-esl310-rsm0-rcm100-esm29-rsr0-rcr25-esr310.exr,ReadingArea_rsl0-rcl2-esl310-rsm0-rcm100-esm29-rsr0-rcr25-esr310.npz,,,,,0,160,160,193,,right,red,0.84,544.774505853653,,3,1,7,lightness,readingArea,realistic,75,2023-03-25_14h03.26.258,tripletExp_regina_11082022,2022.2.4,120.4152503445108,
7,3,12,0,0.111111111111111,1.0,0,0.444444444444444,0.298245614035088,0,0.027777777777778,3.10526315789474,ReadingArea_rsl0-rcl11-esl100-rsm0-rcm44-esm29-rsr0-rcr2-esr310,exr/ReadingArea_rsl0-rcl11-esl100-rsm0-rcm44-esm29-rsr0-rcr2-esr310.exr,ReadingArea_rsl0-rcl11-esl100-rsm0-rcm44-esm29-rsr0-rcr2-esr310.npz,,,,,0,161,161,443,,left,green,1.01,546.9407420158386,547.4135029315948,3,1,7,lightness,readingArea,realistic,75,2023-03-25_14h03.26.258,tripletExp_regina_11082022,2022.2.4,120.4152503445108,
3,10,4,0,0.444444444444444,0.298245614035088,0,0.694444444444444,1.0,0,0.694444444444444,0.298245614035088,ReadingArea_rsl0-rcl44-esl29-rsm0-rcm69-esm100-rsr0-rcr69-esr29,exr/ReadingArea_rsl0-rcl44-esl29-rsm0-rcm69-esm100-rsr0-rcr69-esr29.exr,ReadingArea_rsl0-rcl44-esl29-rsm0-rcm69-esm100-rsr0-rcr69-esr29.npz,,,,,0,162,162,435,,right,red,0.72,549.1043348312378,549.580775976181,3,1,7,lightness,readingArea,realistic,75,2023-03-25_14h03.26.258,tripletExp_regina_11082022,2022.2.4,120.4152503445108,
2,3,13,0,0.25,0.298245614035088,0,0.444444444444444,0.298245614035088,0,0.111111111111111,3.10526315789474,ReadingArea_rsl0-rcl25-esl29-rsm0-rcm44-esm29-rsr0-rcr11-esr310,exr/ReadingArea_rsl0-rcl25-esl29-rsm0-rcm44-esm29-rsr0-rcr11-esr310.exr,ReadingArea_rsl0-rcl25-esl29-rsm0-rcm44-esm29-rsr0-rcr11-esr310.npz,,,,,0,163,163,498,,left,green,2.27,553.0664188861847,553.5391800403595,3,1,7,lightness,readingArea,realistic,75,2023-03-25_14h03.26.258,tripletExp_regina_11082022,2022.2.4,120.4152503445108,
5,8,3,0,1.0,0.298245614035088,0,0.25,1.0,0,0.444444444444444,0.298245614035088,ReadingArea_rsl0-rcl100-esl29-rsm0-rcm25-esm100-rsr0-rcr44-esr29,exr/ReadingArea_rsl0-rcl100-esl29-rsm0-rcm25-esm100-rsr0-rcr44-esr29.exr,ReadingArea_rsl0-rcl100-esl29-rsm0-rcm25-esm100-rsr0-rcr44-esr29.npz,,,,,0,164,164,556,,right,red,0.71,555.2302279472351,555.6739389896393,3,1,7,lightness,readingArea,realistic,75,2023-03-25_14h03.26.258,tripletExp_regina_11082022,2022.2.4,120.4152503445108,
13,11,8,0,0.111111111111111,3.10526315789474,0,1.0,1.0,0,0.25,1.0,ReadingArea_rsl0-rcl11-esl310-rsm0-rcm100-esm100-rsr0-rcr25-esr100,exr/ReadingArea_rsl0-rcl11-esl310-rsm0-rcm100-esm100-rsr0-rcr25-esr100.exr,ReadingArea_rsl0-rcl11-esl310-rsm0-rcm100-esm100-rsr0-rcr25-esr100.npz,,,,,0,165,165,410,,right,red,0.78,557.3650288581848,557.8214638233185,3,1,7,lightness,readingArea,realistic,75,2023-03-25_14h03.26.258,tripletExp_regina_11082022,2022.2.4,120.4152503445108,
14,3,4,0,0.25,3.10526315789474,0,0.444444444444444,0.298245614035088,0,0.694444444444444,0.298245614035088,ReadingArea_rsl0-rcl25-esl310-rsm0-rcm44-esm29-rsr0-rcr69-esr29,exr/ReadingArea_rsl0-rcl25-esl310-rsm0-rcm44-esm29-rsr0-rcr69-esr29.exr,ReadingArea_rsl0-rcl25-esl310-rsm0-rcm44-esm29-rsr0-rcr69-esr29.npz,,,,,0,166,166,127,,right,red,0.72,559.5117089748383,559.9816858768463,3,1,7,lightness,readingArea,realistic,75,2023-03-25_14h03.26.258,tripletExp_regina_11082022,2022.2.4,120.4152503445108,
3,4,13,0,0.444444444444444,0.298245614035088,0,0.694444444444444,0.298245614035088,0,0.111111111111111,3.10526315789474,ReadingArea_rsl0-rcl44-esl29-rsm0-rcm69-esm29-rsr0-rcr11-esr310,exr/ReadingArea_rsl0-rcl44-esl29-rsm0-rcm69-esm29-rsr0-rcr11-esr310.exr,ReadingArea_rsl0-rcl44-esl29-rsm0-rcm69-esm29-rsr0-rcr11-esr310.npz,,,,,0,167,167,63,,right,red,0.75,561.6833128929138,562.1402380466461,3,1,7,lightness,readingArea,realistic,75,2023-03-25_14h03.26.258,tripletExp_regina_11082022,2022.2.4,120.4152503445108,
7,8,14,0,0.111111111111111,1.0,0,0.25,1.0,0,0.25,3.10526315789474,ReadingArea_rsl0-rcl11-esl100-rsm0-rcm25-esm100-rsr0-rcr25-esr310,exr/ReadingArea_rsl0-rcl11-esl100-rsm0-rcm25-esm100-rsr0-rcr25-esr310.exr,ReadingArea_rsl0-rcl11-esl100-rsm0-rcm25-esm100-rsr0-rcr25-esr310.npz,,,,,0,168,168,300,,left,green,1.19,563.8604159355164,,3,1,7,lightness,readingArea,realistic,75,2023-03-25_14h03.26.258,tripletExp_regina_11082022,2022.2.4,120.4152503445108,
5,14,11,0,1.0,0.298245614035088,0,0.25,3.10526315789474,0,1.0,1.0,ReadingArea_rsl0-rcl100-esl29-rsm0-rcm25-esm310-rsr0-rcr100-esr100,exr/ReadingArea_rsl0-rcl100-esl29-rsm0-rcm25-esm310-rsr0-rcr100-esr100.exr,ReadingArea_rsl0-rcl100-esl29-rsm0-rcm25-esm310-rsr0-rcr100-esr100.npz,,,,,0,169,169,98,,right,red,1.06,566.0539019107819,566.523099899292,3,1,7,lightness,readingArea,realistic,75,2023-03-25_14h03.26.258,tripletExp_regina_11082022,2022.2.4,120.4152503445108,
6,12,8,0,0.027777777777778,1.0,0,0.027777777777778,3.10526315789474,0,0.25,1.0,ReadingArea_rsl0-rcl2-esl100-rsm0-rcm2-esm310-rsr0-rcr25-esr100,exr/ReadingArea_rsl0-rcl2-esl100-rsm0-rcm2-esm310-rsr0-rcr25-esr100.exr,ReadingArea_rsl0-rcl2-esl100-rsm0-rcm2-esm310-rsr0-rcr25-esr100.npz,,,,,0,170,170,186,,left,green,0.76,568.2256078720093,568.6728749275208,3,1,7,lightness,readingArea,realistic,75,2023-03-25_14h03.26.258,tripletExp_regina_11082022,2022.2.4,120.4152503445108,
9,6,14,0,0.444444444444444,1.0,0,0.027777777777778,1.0,0,0.25,3.10526315789474,ReadingArea_rsl0-rcl44-esl100-rsm0-rcm2-esm100-rsr0-rcr25-esr310,exr/ReadingArea_rsl0-rcl44-esl100-rsm0-rcm2-esm100-rsr0-rcr25-esr310.exr,ReadingArea_rsl0-rcl44-esl100-rsm0-rcm2-esm100-rsr0-rcr25-esr310.npz,,,,,0,171,171,213,,left,green,2.26,572.1299378871918,572.6037700176239,3,1,7,lightness,readingArea,realistic,75,2023-03-25_14h03.26.258,tripletExp_regina_11082022,2022.2.4,120.4152503445108,
4,9,13,0,0.694444444444444,0.298245614035088,0,0.444444444444444,1.0,0,0.111111111111111,3.10526315789474,ReadingArea_rsl0-rcl69-esl29-rsm0-rcm44-esm100-rsr0-rcr11-esr310,exr/ReadingArea_rsl0-rcl69-esl29-rsm0-rcm44-esm100-rsr0-rcr11-esr310.exr,ReadingArea_rsl0-rcl69-esl29-rsm0-rcm44-esm100-rsr0-rcr11-esr310.npz,,,,,0,172,172,488,,left,green,1.0,574.3206820487976,,3,1,7,lightness,readingArea,realistic,75,2023-03-25_14h03.26.258,tripletExp_regina_11082022,2022.2.4,120.4152503445108,
2,13,0,0,0.25,0.298245614035088,0,0.111111111111111,3.10526315789474,0,0.027777777777778,0.298245614035088,ReadingArea_rsl0-rcl25-esl29-rsm0-rcm11-esm310-rsr0-rcr2-esr29,exr/ReadingArea_rsl0-rcl25-esl29-rsm0-rcm11-esm310-rsr0-rcr2-esr29.exr,ReadingArea_rsl0-rcl25-esl29-rsm0-rcm11-esm310-rsr0-rcr2-esr29.npz,,,,,0,173,173,454,,left,green,0.9,576.5099198818207,576.9533228874207,3,1,7,lightness,readingArea,realistic,75,2023-03-25_14h03.26.258,tripletExp_regina_11082022,2022.2.4,120.4152503445108,
1,5,8,0,0.111111111111111,0.298245614035088,0,1.0,0.298245614035088,0,0.25,1.0,ReadingArea_rsl0-rcl11-esl29-rsm0-rcm100-esm29-rsr0-rcr25-esr100,exr/ReadingArea_rsl0-rcl11-esl29-rsm0-rcm100-esm29-rsr0-rcr25-esr100.exr,ReadingArea_rsl0-rcl11-esl29-rsm0-rcm100-esm29-rsr0-rcr25-esr100.npz,,,,,0,174,174,238,,right,red,0.72,578.6702039241791,579.1883099079132,3,1,7,lightness,readingArea,realistic,75,2023-03-25_14h03.26.258,tripletExp_regina_11082022,2022.2.4,120.4152503445108,
14,4,7,0,0.25,3.10526315789474,0,0.694444444444444,0.298245614035088,0,0.111111111111111,1.0,ReadingArea_rsl0-rcl25-esl310-rsm0-rcm69-esm29-rsr0-rcr11-esr100,exr/ReadingArea_rsl0-rcl25-esl310-rsm0-rcm69-esm29-rsr0-rcr11-esr100.exr,ReadingArea_rsl0-rcl25-esl310-rsm0-rcm69-esm29-rsr0-rcr11-esr100.npz,,,,,0,175,175,136,,left,green,0.91,580.8797419071198,,3,1,7,lightness,readingArea,realistic,75,2023-03-25_14h03.26.258,tripletExp_regina_11082022,2022.2.4,120.4152503445108,
9,12,6,0,0.444444444444444,1.0,0,0.027777777777778,3.10526315789474,0,0.027777777777778,1.0,ReadingArea_rsl0-rcl44-esl100-rsm0-rcm2-esm310-rsr0-rcr2-esr100,exr/ReadingArea_rsl0-rcl44-esl100-rsm0-rcm2-esm310-rsr0-rcr2-esr100.exr,ReadingArea_rsl0-rcl44-esl100-rsm0-rcm2-esm310-rsr0-rcr2-esr100.npz,,,,,0,176,176,5,,right,red,0.74,583.0555369853973,,3,1,7,lightness,readingArea,realistic,75,2023-03-25_14h03.26.258,tripletExp_regina_11082022,2022.2.4,120.4152503445108,
3,1,0,0,0.444444444444444,0.298245614035088,0,0.111111111111111,0.298245614035088,0,0.027777777777778,0.298245614035088,ReadingArea_rsl0-rcl44-esl29-rsm0-rcm11-esm29-rsr0-rcr2-esr29,exr/ReadingArea_rsl0-rcl44-esl29-rsm0-rcm11-esm29-rsr0-rcr2-esr29.exr,ReadingArea_rsl0-rcl44-esl29-rsm0-rcm11-esm29-rsr0-rcr2-esr29.npz,,,,,0,177,177,343,,right,red,0.78,585.1967408657074,585.6714658737183,3,1,7,lightness,readingArea,realistic,75,2023-03-25_14h03.26.258,tripletExp_regina_11082022,2022.2.4,120.4152503445108,
10,6,13,0,0.694444444444444,1.0,0,0.027777777777778,1.0,0,0.111111111111111,3.10526315789474,ReadingArea_rsl0-rcl69-esl100-rsm0-rcm2-esm100-rsr0-rcr11-esr310,exr/ReadingArea_rsl0-rcl69-esl100-rsm0-rcm2-esm100-rsr0-rcr11-esr310.exr,ReadingArea_rsl0-rcl69-esl100-rsm0-rcm2-esm100-rsr0-rcr11-esr310.npz,,,,,0,178,178,41,,right,red,0.99,587.3629438877106,587.818815946579,3,1,7,lightness,readingArea,realistic,75,2023-03-25_14h03.26.258,tripletExp_regina_11082022,2022.2.4,120.4152503445108,
3,13,10,0,0.444444444444444,0.298245614035088,0,0.111111111111111,3.10526315789474,0,0.694444444444444,1.0,ReadingArea_rsl0-rcl44-esl29-rsm0-rcm11-esm310-rsr0-rcr69-esr100,exr/ReadingArea_rsl0-rcl44-esl29-rsm0-rcm11-esm310-rsr0-rcr69-esr100.exr,ReadingArea_rsl0-rcl44-esl29-rsm0-rcm11-esm310-rsr0-rcr69-esr100.npz,,,,,0,179,179,416,,left,green,0.74,589.5149400234222,,3,1,7,lightness,readingArea,realistic,75,2023-03-25_14h03.26.258,tripletExp_regina_11082022,2022.2.4,120.4152503445108,
12,6,8,0,0.027777777777778,3.10526315789474,0,0.027777777777778,1.0,0,0.25,1.0,ReadingArea_rsl0-rcl2-esl310-rsm0-rcm2-esm100-rsr0-rcr25-esr100,exr/ReadingArea_rsl0-rcl2-esl310-rsm0-rcm2-esm100-rsr0-rcr25-esr100.exr,ReadingArea_rsl0-rcl2-esl310-rsm0-rcm2-esm100-rsr0-rcr25-esr100.npz,,,,,0,180,180,540,,left,green,0.8,591.7031819820404,592.1669058799744,3,1,7,lightness,readingArea,realistic,75,2023-03-25_14h03.26.258,tripletExp_regina_11082022,2022.2.4,120.4152503445108,
8,12,4,0,0.25,1.0,0,0.027777777777778,3.10526315789474,0,0.694444444444444,0.298245614035088,ReadingArea_rsl0-rcl25-esl100-rsm0-rcm2-esm310-rsr0-rcr69-esr29,exr/ReadingArea_rsl0-rcl25-esl100-rsm0-rcm2-esm310-rsr0-rcr69-esr29.exr,ReadingArea_rsl0-rcl25-esl100-rsm0-rcm2-esm310-rsr0-rcr69-esr29.npz,,,,,0,181,181,30,,left,green,1.06,593.860759973526,594.3156368732452,3,1,7,lightness,readingArea,realistic,75,2023-03-25_14h03.26.258,tripletExp_regina_11082022,2022.2.4,120.4152503445108,
3,13,6,0,0.444444444444444,0.298245614035088,0,0.111111111111111,3.10526315789474,0,0.027777777777778,1.0,ReadingArea_rsl0-rcl44-esl29-rsm0-rcm11-esm310-rsr0-rcr2-esr100,exr/ReadingArea_rsl0-rcl44-esl29-rsm0-rcm11-esm310-rsr0-rcr2-esr100.exr,ReadingArea_rsl0-rcl44-esl29-rsm0-rcm11-esm310-rsr0-rcr2-esr100.npz,,,,,0,182,182,199,,left,green,0.76,596.0052189826965,596.4534859657288,3,1,7,lightness,readingArea,realistic,75,2023-03-25_14h03.26.258,tripletExp_regina_11082022,2022.2.4,120.4152503445108,
14,2,0,0,0.25,3.10526315789474,0,0.25,0.298245614035088,0,0.027777777777778,0.298245614035088,ReadingArea_rsl0-rcl25-esl310-rsm0-rcm25-esm29-rsr0-rcr2-esr29,exr/ReadingArea_rsl0-rcl25-esl310-rsm0-rcm25-esm29-rsr0-rcr2-esr29.exr,ReadingArea_rsl0-rcl25-esl310-rsm0-rcm25-esm29-rsr0-rcr2-esr29.npz,,,,,0,183,183,460,,right,red,0.78,598.1485798358917,598.6507730484009,3,1,7,lightness,readingArea,realistic,75,2023-03-25_14h03.26.258,tripletExp_regina_11082022,2022.2.4,120.4152503445108,
8,4,1,0,0.25,1.0,0,0.694444444444444,0.298245614035088,0,0.111111111111111,0.298245614035088,ReadingArea_rsl0-rcl25-esl100-rsm0-rcm69-esm29-rsr0-rcr11-esr29,exr/ReadingArea_rsl0-rcl25-esl100-rsm0-rcm69-esm29-rsr0-rcr11-esr29.exr,ReadingArea_rsl0-rcl25-esl100-rsm0-rcm69-esm29-rsr0-rcr11-esr29.npz,,,,,0,184,184,286,,left,green,0.91,600.3380708694458,600.7863290309906,3,1,7,lightness,readingArea,realistic,75,2023-03-25_14h03.26.258,tripletExp_regina_11082022,2022.2.4,120.4152503445108,
6,2,12,0,0.027777777777778,1.0,0,0.25,0.298245614035088,0,0.027777777777778,3.10526315789474,ReadingArea_rsl0-rcl2-esl100-rsm0-rcm25-esm29-rsr0-rcr2-esr310,exr/ReadingArea_rsl0-rcl2-esl100-rsm0-rcm25-esm29-rsr0-rcr2-esr310.exr,ReadingArea_rsl0-rcl2-esl100-rsm0-rcm25-esm29-rsr0-rcr2-esr310.npz,,,,,0,185,185,480,,right,red,0.93,602.5094149112701,603.0546720027924,3,1,7,lightness,readingArea,realistic,75,2023-03-25_14h03.26.258,tripletExp_regina_11082022,2022.2.4,120.4152503445108,
12,5,4,0,0.027777777777778,3.10526315789474,0,1.0,0.298245614035088,0,0.694444444444444,0.298245614035088,ReadingArea_rsl0-rcl2-esl310-rsm0-rcm100-esm29-rsr0-rcr69-esr29,exr/ReadingArea_rsl0-rcl2-esl310-rsm0-rcm100-esm29-rsr0-rcr69-esr29.exr,ReadingArea_rsl0-rcl2-esl310-rsm0-rcm100-esm29-rsr0-rcr69-esr29.npz,,,,,0,186,186,566,,right,red,0.74,604.7734868526459,605.2605469226837,3,1,7,lightness,readingArea,realistic,75,2023-03-25_14h03.26.258,tripletExp_regina_11082022,2022.2.4,120.4152503445108,
13,0,4,0,0.111111111111111,3.10526315789474,0,0.027777777777778,0.298245614035088,0,0.694444444444444,0.298245614035088,ReadingArea_rsl0-rcl11-esl310-rsm0-rcm2-esm29-rsr0-rcr69-esr29,exr/ReadingArea_rsl0-rcl11-esl310-rsm0-rcm2-esm29-rsr0-rcr69-esr29.exr,ReadingArea_rsl0-rcl11-esl310-rsm0-rcm2-esm29-rsr0-rcr69-esr29.npz,,,,,0,187,187,270,,left,green,0.84,606.9584970474243,607.4386608600616,3,1,7,lightness,readingArea,realistic,75,2023-03-25_14h03.26.258,tripletExp_regina_11082022,2022.2.4,120.4152503445108,
9,14,7,0,0.444444444444444,1.0,0,0.25,3.10526315789474,0,0.111111111111111,1.0,ReadingArea_rsl0-rcl44-esl100-rsm0-rcm25-esm310-rsr0-rcr11-esr100,exr/ReadingArea_rsl0-rcl44-esl100-rsm0-rcm25-esm310-rsr0-rcr11-esr100.exr,ReadingArea_rsl0-rcl44-esl100-rsm0-rcm25-esm310-rsr0-rcr11-esr100.npz,,,,,0,188,188,44,,left,green,0.95,609.1292278766632,609.627867937088,3,1,7,lightness,readingArea,realistic,75,2023-03-25_14h03.26.258,tripletExp_regina_11082022,2022.2.4,120.4152503445108,
5,2,7,0,1.0,0.298245614035088,0,0.25,0.298245614035088,0,0.111111111111111,1.0,ReadingArea_rsl0-rcl100-esl29-rsm0-rcm25-esm29-rsr0-rcr11-esr100,exr/ReadingArea_rsl0-rcl100-esl29-rsm0-rcm25-esm29-rsr0-rcr11-esr100.exr,ReadingArea_rsl0-rcl100-esl29-rsm0-rcm25-esm29-rsr0-rcr11-esr100.npz,,,,,0,189,189,179,,right,red,0.66,611.3256649971008,611.7804410457611,3,1,7,lightness,readingArea,realistic,75,2023-03-25_14h03.26.258,tripletExp_regina_11082022,2022.2.4,120.4152503445108,
0,8,6,0,0.027777777777778,0.298245614035088,0,0.25,1.0,0,0.027777777777778,1.0,ReadingArea_rsl0-rcl2-esl29-rsm0-rcm25-esm100-rsr0-rcr2-esr100,exr/ReadingArea_rsl0-rcl2-esl29-rsm0-rcm25-esm100-rsr0-rcr2-esr100.exr,ReadingArea_rsl0-rcl2-esl29-rsm0-rcm25-esm100-rsr0-rcr2-esr100.npz,,,,,0,190,190,92,,right,red,0.7,613.5031549930573,613.9542338848114,3,1,7,lightness,readingArea,realistic,75,2023-03-25_14h03.26.258,tripletExp_regina_11082022,2022.2.4,120.4152503445108,
13,12,11,0,0.111111111111111,3.10526315789474,0,0.027777777777778,3.10526315789474,0,1.0,1.0,ReadingArea_rsl0-rcl11-esl310-rsm0-rcm2-esm310-rsr0-rcr100-esr100,exr/ReadingArea_rsl0-rcl11-esl310-rsm0-rcm2-esm310-rsr0-rcr100-esr100.exr,ReadingArea_rsl0-rcl11-esl310-rsm0-rcm2-esm310-rsr0-rcr100-esr100.npz,,,,,0,191,191,441,,left,green,0.7,615.6513638496399,616.151270866394,3,1,7,lightness,readingArea,realistic,75,2023-03-25_14h03.26.258,tripletExp_regina_11082022,2022.2.4,120.4152503445108,
11,13,8,0,1.0,1.0,0,0.111111111111111,3.10526315789474,0,0.25,1.0,ReadingArea_rsl0-rcl100-esl100-rsm0-rcm11-esm310-rsr0-rcr25-esr100,exr/ReadingArea_rsl0-rcl100-esl100-rsm0-rcm11-esm310-rsr0-rcr25-esr100.exr,ReadingArea_rsl0-rcl100-esl100-rsm0-rcm11-esm310-rsr0-rcr25-esr100.npz,,,,,0,192,192,198,,right,red,0.72,617.8441269397736,,3,1,7,lightness,readingArea,realistic,75,2023-03-25_14h03.26.258,tripletExp_regina_11082022,2022.2.4,120.4152503445108,
11,12,10,0,1.0,1.0,0,0.027777777777778,3.10526315789474,0,0.694444444444444,1.0,ReadingArea_rsl0-rcl100-esl100-rsm0-rcm2-esm310-rsr0-rcr69-esr100,exr/ReadingArea_rsl0-rcl100-esl100-rsm0-rcm2-esm310-rsr0-rcr69-esr100.exr,ReadingArea_rsl0-rcl100-esl100-rsm0-rcm2-esm310-rsr0-rcr69-esr100.npz,,,,,0,193,193,465,,right,red,0.81,620.0033240318298,,3,1,7,lightness,readingArea,realistic,75,2023-03-25_14h03.26.258,tripletExp_regina_11082022,2022.2.4,120.4152503445108,
10,11,4,0,0.694444444444444,1.0,0,1.0,1.0,0,0.694444444444444,0.298245614035088,ReadingArea_rsl0-rcl69-esl100-rsm0-rcm100-esm100-rsr0-rcr69-esr29,exr/ReadingArea_rsl0-rcl69-esl100-rsm0-rcm100-esm100-rsr0-rcr69-esr29.exr,ReadingArea_rsl0-rcl69-esl100-rsm0-rcm100-esm100-rsr0-rcr69-esr29.npz,,,,,0,194,194,239,,left,green,1.07,622.346920967102,622.8372600078583,3,1,7,lightness,readingArea,realistic,75,2023-03-25_14h03.26.258,tripletExp_regina_11082022,2022.2.4,120.4152503445108,
2,14,8,0,0.25,0.298245614035088,0,0.25,3.10526315789474,0,0.25,1.0,ReadingArea_rsl0-rcl25-esl29-rsm0-rcm25-esm310-rsr0-rcr25-esr100,exr/ReadingArea_rsl0-rcl25-esl29-rsm0-rcm25-esm310-rsr0-rcr25-esr100.exr,ReadingArea_rsl0-rcl25-esl29-rsm0-rcm25-esm310-rsr0-rcr25-esr100.npz,,,,,0,195,195,255,,right,red,0.84,624.5291428565979,624.9771549701691,3,1,7,lightness,readingArea,realistic,75,2023-03-25_14h03.26.258,tripletExp_regina_11082022,2022.2.4,120.4152503445108,
0,4,9,0,0.027777777777778,0.298245614035088,0,0.694444444444444,0.298245614035088,0,0.444444444444444,1.0,ReadingArea_rsl0-rcl2-esl29-rsm0-rcm69-esm29-rsr0-rcr44-esr100,exr/ReadingArea_rsl0-rcl2-esl29-rsm0-rcm69-esm29-rsr0-rcr44-esr100.exr,ReadingArea_rsl0-rcl2-esl29-rsm0-rcm69-esm29-rsr0-rcr44-esr100.npz,,,,,0,196,196,21,,right,red,0.58,626.7007558345795,627.1705198287964,3,1,7,lightness,readingArea,realistic,75,2023-03-25_14h03.26.258,tripletExp_regina_11082022,2022.2.4,120.4152503445108,
5,9,12,0,1.0,0.298245614035088,0,0.444444444444444,1.0,0,0.027777777777778,3.10526315789474,ReadingArea_rsl0-rcl100-esl29-rsm0-rcm44-esm100-rsr0-rcr2-esr310,exr/ReadingArea_rsl0-rcl100-esl29-rsm0-rcm44-esm100-rsr0-rcr2-esr310.exr,ReadingArea_rsl0-rcl100-esl29-rsm0-rcm44-esm100-rsr0-rcr2-esr310.npz,,,,,0,197,197,539,,left,green,0.66,628.8848128318787,629.3435208797455,3,1,7,lightness,readingArea,realistic,75,2023-03-25_14h03.26.258,tripletExp_regina_11082022,2022.2.4,120.4152503445108,
9,11,3,0,0.444444444444444,1.0,0,1.0,1.0,0,0.444444444444444,0.298245614035088,ReadingArea_rsl0-rcl44-esl100-rsm0-rcm100-esm100-rsr0-rcr44-esr29,exr/ReadingArea_rsl0-rcl44-esl100-rsm0-rcm100-esm100-rsr0-rcr44-esr29.exr,ReadingArea_rsl0-rcl44-esl100-rsm0-rcm100-esm100-rsr0-rcr44-esr29.npz,,,,,0,198,198,348,,left,green,0.75,631.0322060585022,631.4901230335236,3,1,7,lightness,readingArea,realistic,75,2023-03-25_14h03.26.258,tripletExp_regina_11082022,2022.2.4,120.4152503445108,
5,8,7,0,1.0,0.298245614035088,0,0.25,1.0,0,0.111111111111111,1.0,ReadingArea_rsl0-rcl100-esl29-rsm0-rcm25-esm100-rsr0-rcr11-esr100,exr/ReadingArea_rsl0-rcl100-esl29-rsm0-rcm25-esm100-rsr0-rcr11-esr100.exr,ReadingArea_rsl0-rcl100-esl29-rsm0-rcm25-esm100-rsr0-rcr11-esr100.npz,,,,,0,199,199,36,,right,red,0.95,633.1843099594116,633.6651599407196,3,1,7,lightness,readingArea,realistic,75,2023-03-25_14h03.26.258,tripletExp_regina_11082022,2022.2.4,120.4152503445108,
11,0,12,0,1.0,1.0,0,0.027777777777778,0.298245614035088,0,0.027777777777778,3.10526315789474,ReadingArea_rsl0-rcl100-esl100-rsm0-rcm2-esm29-rsr0-rcr2-esr310,exr/ReadingArea_rsl0-rcl100-esl100-rsm0-rcm2-esm29-rsr0-rcr2-esr310.exr,ReadingArea_rsl0-rcl100-esl100-rsm0-rcm2-esm29-rsr0-rcr2-esr310.npz,,,,,0,200,200,166,,right,red,0.63,635.3902728557587,635.9409120082855,3,1,7,lightness,readingArea,realistic,75,2023-03-25_14h03.26.258,tripletExp_regina_11082022,2022.2.4,120.4152503445108,
3,5,7,0,0.444444444444444,0.298245614035088,0,1.0,0.298245614035088,0,0.111111111111111,1.0,ReadingArea_rsl0-rcl44-esl29-rsm0-rcm100-esm29-rsr0-rcr11-esr100,exr/ReadingArea_rsl0-rcl44-esl29-rsm0-rcm100-esm29-rsr0-rcr11-esr100.exr,ReadingArea_rsl0-rcl44-esl29-rsm0-rcm100-esm29-rsr0-rcr11-esr100.npz,,,,,0,201,201,474,,left,green,0.96,637.6321280002594,638.1151280403137,3,1,7,lightness,readingArea,realistic,75,2023-03-25_14h03.26.258,tripletExp_regina_11082022,2022.2.4,120.4152503445108,
13,10,3,0,0.111111111111111,3.10526315789474,0,0.694444444444444,1.0,0,0.444444444444444,0.298245614035088,ReadingArea_rsl0-rcl11-esl310-rsm0-rcm69-esm100-rsr0-rcr44-esr29,exr/ReadingArea_rsl0-rcl11-esl310-rsm0-rcm69-esm100-rsr0-rcr44-esr29.exr,ReadingArea_rsl0-rcl11-esl310-rsm0-rcm69-esm100-rsr0-rcr44-esr29.npz,,,,,0,202,202,224,,right,red,0.73,639.8353559970856,640.3019728660583,3,1,7,lightness,readingArea,realistic,75,2023-03-25_14h03.26.258,tripletExp_regina_11082022,2022.2.4,120.4152503445108,
4,7,1,0,0.694444444444444,0.298245614035088,0,0.111111111111111,1.0,0,0.111111111111111,0.298245614035088,ReadingArea_rsl0-rcl69-esl29-rsm0-rcm11-esm100-rsr0-rcr11-esr29,exr/ReadingArea_rsl0-rcl69-esl29-rsm0-rcm11-esm100-rsr0-rcr11-esr29.exr,ReadingArea_rsl0-rcl69-esl29-rsm0-rcm11-esm100-rsr0-rcr11-esr29.npz,,,,,0,203,203,33,,right,red,0.66,642.0226728916168,,3,1,7,lightness,readingArea,realistic,75,2023-03-25_14h03.26.258,tripletExp_regina_11082022,2022.2.4,120.4152503445108,
6,4,2,0,0.027777777777778,1.0,0,0.694444444444444,0.298245614035088,0,0.25,0.298245614035088,ReadingArea_rsl0-rcl2-esl100-rsm0-rcm69-esm29-rsr0-rcr25-esr29,exr/ReadingArea_rsl0-rcl2-esl100-rsm0-rcm69-esm29-rsr0-rcr25-esr29.exr,ReadingArea_rsl0-rcl2-esl100-rsm0-rcm69-esm29-rsr0-rcr25-esr29.npz,,,,,0,204,204,134,,right,red,0.65,644.1771519184113,644.6296188831329,3,1,7,lightness,readingArea,realistic,75,2023-03-25_14h03.26.258,tripletExp_regina_11082022,2022.2.4,120.4152503445108,
