index_left,index_middle,index_right,reflectance_surround_left,reflectance_center_left,emission_spot_left,reflectance_surround_middle,reflectance_center_middle,emission_spot_middle,reflectance_surround_right,reflectance_center_right,emission_spot_right,ImageName,ImageExr,ImageNpy,trials_2.thisRepN,trials_2.thisTrialN,trials_2.thisN,trials_2.thisIndex,trials.thisRepN,trials.thisTrialN,trials.thisN,trials.thisIndex,sound_1.started,BB_Trial.resp,BB_Trial.color,BB_Trial.rt,text.started,text.stopped,sound_2.started,sound_1.stopped,block,sound_4.started,participant,session,L/B,scene,condition,nTrialsPerBlock,date,expName,psychopyVersion,frameRate,Unnamed: 43
8,11,1,0,0.25,1.0,0,1.0,1.0,0,0.111111111111111,0.298245614035088,ReadingArea_rsl0-rcl25-esl100-rsm0-rcm100-esm100-rsr0-rcr11-esr29,exr/ReadingArea_rsl0-rcl25-esl100-rsm0-rcm100-esm100-rsr0-rcr11-esr29.exr,ReadingArea_rsl0-rcl25-esl100-rsm0-rcm100-esm100-rsr0-rcr11-esr29.npz,,,,,0,0,0,132,184.65803985595704,left,green,2.64,206.50394916534424,207.06344413757324,186.8519587993622,141.6520631313324,1,,2,9,brightness,readingArea,realistic,75,2023-03-31_09h59.04.246,tripletExp_regina_11082022,2022.2.4,120.23299545934044,
4,1,3,0,0.694444444444444,0.298245614035088,0,0.111111111111111,0.298245614035088,0,0.444444444444444,0.298245614035088,ReadingArea_rsl0-rcl69-esl29-rsm0-rcm11-esm29-rsr0-rcr44-esr29,exr/ReadingArea_rsl0-rcl69-esl29-rsm0-rcm11-esm29-rsr0-rcr44-esr29.exr,ReadingArea_rsl0-rcl69-esl29-rsm0-rcm11-esm29-rsr0-rcr44-esr29.npz,,,,,0,1,1,70,,right,red,2.67,210.57795214653007,,,,1,,2,9,brightness,readingArea,realistic,75,2023-03-31_09h59.04.246,tripletExp_regina_11082022,2022.2.4,120.23299545934044,
0,13,12,0,0.027777777777778,0.298245614035088,0,0.111111111111111,3.10526315789474,0,0.027777777777778,3.10526315789474,ReadingArea_rsl0-rcl2-esl29-rsm0-rcm11-esm310-rsr0-rcr2-esr310,exr/ReadingArea_rsl0-rcl2-esl29-rsm0-rcm11-esm310-rsr0-rcr2-esr310.exr,ReadingArea_rsl0-rcl2-esl29-rsm0-rcm11-esm310-rsr0-rcr2-esr310.npz,,,,,0,2,2,501,,,red,2.67,232.58380317687988,233.21406817436213,,,1,232.14758186340333,2,9,brightness,readingArea,realistic,75,2023-03-31_09h59.04.246,tripletExp_regina_11082022,2022.2.4,120.23299545934044,
9,8,7,0,0.444444444444444,1.0,0,0.25,1.0,0,0.111111111111111,1.0,ReadingArea_rsl0-rcl44-esl100-rsm0-rcm25-esm100-rsr0-rcr11-esr100,exr/ReadingArea_rsl0-rcl44-esl100-rsm0-rcm25-esm100-rsr0-rcr11-esr100.exr,ReadingArea_rsl0-rcl44-esl100-rsm0-rcm25-esm100-rsr0-rcr11-esr100.npz,,,,,0,3,3,368,,right,red,1.51,234.93308806419373,235.4070601463318,,,1,,2,9,brightness,readingArea,realistic,75,2023-03-31_09h59.04.246,tripletExp_regina_11082022,2022.2.4,120.23299545934044,
10,11,5,0,0.694444444444444,1.0,0,1.0,1.0,0,1.0,0.298245614035088,ReadingArea_rsl0-rcl69-esl100-rsm0-rcm100-esm100-rsr0-rcr100-esr29,exr/ReadingArea_rsl0-rcl69-esl100-rsm0-rcm100-esm100-rsr0-rcr100-esr29.exr,ReadingArea_rsl0-rcl69-esl100-rsm0-rcm100-esm100-rsr0-rcr100-esr29.npz,,,,,0,4,4,514,,left,green,1.23,237.1191120147705,237.585520029068,,,1,,2,9,brightness,readingArea,realistic,75,2023-03-31_09h59.04.246,tripletExp_regina_11082022,2022.2.4,120.23299545934044,
12,1,2,0,0.027777777777778,3.10526315789474,0,0.111111111111111,0.298245614035088,0,0.25,0.298245614035088,ReadingArea_rsl0-rcl2-esl310-rsm0-rcm11-esm29-rsr0-rcr25-esr29,exr/ReadingArea_rsl0-rcl2-esl310-rsm0-rcm11-esm29-rsr0-rcr25-esr29.exr,ReadingArea_rsl0-rcl2-esl310-rsm0-rcm11-esm29-rsr0-rcr25-esr29.npz,,,,,0,5,5,231,,right,red,1.23,239.30583906173703,,,,1,,2,9,brightness,readingArea,realistic,75,2023-03-31_09h59.04.246,tripletExp_regina_11082022,2022.2.4,120.23299545934044,
13,11,7,0,0.111111111111111,3.10526315789474,0,1.0,1.0,0,0.111111111111111,1.0,ReadingArea_rsl0-rcl11-esl310-rsm0-rcm100-esm100-rsr0-rcr11-esr100,exr/ReadingArea_rsl0-rcl11-esl310-rsm0-rcm100-esm100-rsr0-rcr11-esr100.exr,ReadingArea_rsl0-rcl11-esl310-rsm0-rcm100-esm100-rsr0-rcr11-esr100.npz,,,,,0,6,6,590,,left,green,1.42,241.5059430599213,,,,1,,2,9,brightness,readingArea,realistic,75,2023-03-31_09h59.04.246,tripletExp_regina_11082022,2022.2.4,120.23299545934044,
8,13,9,0,0.25,1.0,0,0.111111111111111,3.10526315789474,0,0.444444444444444,1.0,ReadingArea_rsl0-rcl25-esl100-rsm0-rcm11-esm310-rsr0-rcr44-esr100,exr/ReadingArea_rsl0-rcl25-esl100-rsm0-rcm11-esm310-rsr0-rcr44-esr100.exr,ReadingArea_rsl0-rcl25-esl100-rsm0-rcm11-esm310-rsr0-rcr44-esr100.npz,,,,,0,7,7,487,,right,red,2.82,245.7726349830628,246.31574416160583,,,1,,2,9,brightness,readingArea,realistic,75,2023-03-31_09h59.04.246,tripletExp_regina_11082022,2022.2.4,120.23299545934044,
3,9,10,0,0.444444444444444,0.298245614035088,0,0.444444444444444,1.0,0,0.694444444444444,1.0,ReadingArea_rsl0-rcl44-esl29-rsm0-rcm44-esm100-rsr0-rcr69-esr100,exr/ReadingArea_rsl0-rcl44-esl29-rsm0-rcm44-esm100-rsr0-rcr69-esr100.exr,ReadingArea_rsl0-rcl44-esl29-rsm0-rcm44-esm100-rsr0-rcr69-esr100.npz,,,,,0,8,8,581,,right,red,1.46,248.01456999778748,248.47080302238464,,,1,,2,9,brightness,readingArea,realistic,75,2023-03-31_09h59.04.246,tripletExp_regina_11082022,2022.2.4,120.23299545934044,
8,7,13,0,0.25,1.0,0,0.111111111111111,1.0,0,0.111111111111111,3.10526315789474,ReadingArea_rsl0-rcl25-esl100-rsm0-rcm11-esm100-rsr0-rcr11-esr310,exr/ReadingArea_rsl0-rcl25-esl100-rsm0-rcm11-esm100-rsr0-rcr11-esr310.exr,ReadingArea_rsl0-rcl25-esl100-rsm0-rcm11-esm100-rsr0-rcr11-esr310.npz,,,,,0,9,9,512,,left,green,2.43,251.9446520805359,252.4395291805268,,,1,,2,9,brightness,readingArea,realistic,75,2023-03-31_09h59.04.246,tripletExp_regina_11082022,2022.2.4,120.23299545934044,
14,11,0,0,0.25,3.10526315789474,0,1.0,1.0,0,0.027777777777778,0.298245614035088,ReadingArea_rsl0-rcl25-esl310-rsm0-rcm100-esm100-rsr0-rcr2-esr29,exr/ReadingArea_rsl0-rcl25-esl310-rsm0-rcm100-esm100-rsr0-rcr2-esr29.exr,ReadingArea_rsl0-rcl25-esl310-rsm0-rcm100-esm100-rsr0-rcr2-esr29.npz,,,,,0,10,10,227,,left,green,1.04,254.16329717636108,254.63656497001648,,,1,,2,9,brightness,readingArea,realistic,75,2023-03-31_09h59.04.246,tripletExp_regina_11082022,2022.2.4,120.23299545934044,
2,8,11,0,0.25,0.298245614035088,0,0.25,1.0,0,1.0,1.0,ReadingArea_rsl0-rcl25-esl29-rsm0-rcm25-esm100-rsr0-rcr100-esr100,exr/ReadingArea_rsl0-rcl25-esl29-rsm0-rcm25-esm100-rsr0-rcr100-esr100.exr,ReadingArea_rsl0-rcl25-esl29-rsm0-rcm25-esm100-rsr0-rcr100-esr100.npz,,,,,0,11,11,225,,left,green,0.88,256.3487410545349,256.8094110488892,,,1,,2,9,brightness,readingArea,realistic,75,2023-03-31_09h59.04.246,tripletExp_regina_11082022,2022.2.4,120.23299545934044,
0,5,11,0,0.027777777777778,0.298245614035088,0,1.0,0.298245614035088,0,1.0,1.0,ReadingArea_rsl0-rcl2-esl29-rsm0-rcm100-esm29-rsr0-rcr100-esr100,exr/ReadingArea_rsl0-rcl2-esl29-rsm0-rcm100-esm29-rsr0-rcr100-esr100.exr,ReadingArea_rsl0-rcl2-esl29-rsm0-rcm100-esm29-rsr0-rcr100-esr100.npz,,,,,0,12,12,422,,right,red,1.16,258.5049571990967,259.0154621601105,,,1,,2,9,brightness,readingArea,realistic,75,2023-03-31_09h59.04.246,tripletExp_regina_11082022,2022.2.4,120.23299545934044,
12,6,14,0,0.027777777777778,3.10526315789474,0,0.027777777777778,1.0,0,0.25,3.10526315789474,ReadingArea_rsl0-rcl2-esl310-rsm0-rcm2-esm100-rsr0-rcr25-esr310,exr/ReadingArea_rsl0-rcl2-esl310-rsm0-rcm2-esm100-rsr0-rcr25-esr310.exr,ReadingArea_rsl0-rcl2-esl310-rsm0-rcm2-esm100-rsr0-rcr25-esr310.npz,,,,,0,13,13,218,,left,green,1.22,260.7126669883728,261.1680970191956,,,1,,2,9,brightness,readingArea,realistic,75,2023-03-31_09h59.04.246,tripletExp_regina_11082022,2022.2.4,120.23299545934044,
3,0,2,0,0.444444444444444,0.298245614035088,0,0.027777777777778,0.298245614035088,0,0.25,0.298245614035088,ReadingArea_rsl0-rcl44-esl29-rsm0-rcm2-esm29-rsr0-rcr25-esr29,exr/ReadingArea_rsl0-rcl44-esl29-rsm0-rcm2-esm29-rsr0-rcr25-esr29.exr,ReadingArea_rsl0-rcl44-esl29-rsm0-rcm2-esm29-rsr0-rcr25-esr29.npz,,,,,0,14,14,334,,right,red,1.32,262.88904213905334,263.49856519699097,,,1,,2,9,brightness,readingArea,realistic,75,2023-03-31_09h59.04.246,tripletExp_regina_11082022,2022.2.4,120.23299545934044,
9,0,14,0,0.444444444444444,1.0,0,0.027777777777778,0.298245614035088,0,0.25,3.10526315789474,ReadingArea_rsl0-rcl44-esl100-rsm0-rcm2-esm29-rsr0-rcr25-esr310,exr/ReadingArea_rsl0-rcl44-esl100-rsm0-rcm2-esm29-rsr0-rcr25-esr310.exr,ReadingArea_rsl0-rcl44-esl100-rsm0-rcm2-esm29-rsr0-rcr25-esr310.npz,,,,,0,15,15,550,,left,green,1.39,265.1889910697937,265.68403220176697,,,1,,2,9,brightness,readingArea,realistic,75,2023-03-31_09h59.04.246,tripletExp_regina_11082022,2022.2.4,120.23299545934044,
2,9,10,0,0.25,0.298245614035088,0,0.444444444444444,1.0,0,0.694444444444444,1.0,ReadingArea_rsl0-rcl25-esl29-rsm0-rcm44-esm100-rsr0-rcr69-esr100,exr/ReadingArea_rsl0-rcl25-esl29-rsm0-rcm44-esm100-rsr0-rcr69-esr100.exr,ReadingArea_rsl0-rcl25-esl29-rsm0-rcm44-esm100-rsr0-rcr69-esr100.npz,,,,,0,16,16,117,,left,green,1.77,267.3822331428528,267.8615942001343,,,1,,2,9,brightness,readingArea,realistic,75,2023-03-31_09h59.04.246,tripletExp_regina_11082022,2022.2.4,120.23299545934044,
13,4,12,0,0.111111111111111,3.10526315789474,0,0.694444444444444,0.298245614035088,0,0.027777777777778,3.10526315789474,ReadingArea_rsl0-rcl11-esl310-rsm0-rcm69-esm29-rsr0-rcr2-esr310,exr/ReadingArea_rsl0-rcl11-esl310-rsm0-rcm69-esm29-rsr0-rcr2-esr310.exr,ReadingArea_rsl0-rcl11-esl310-rsm0-rcm69-esm29-rsr0-rcr2-esr310.npz,,,,,0,17,17,122,,right,red,1.48,269.5495810508728,270.01376509666443,,,1,,2,9,brightness,readingArea,realistic,75,2023-03-31_09h59.04.246,tripletExp_regina_11082022,2022.2.4,120.23299545934044,
14,10,13,0,0.25,3.10526315789474,0,0.694444444444444,1.0,0,0.111111111111111,3.10526315789474,ReadingArea_rsl0-rcl25-esl310-rsm0-rcm69-esm100-rsr0-rcr11-esr310,exr/ReadingArea_rsl0-rcl25-esl310-rsm0-rcm69-esm100-rsr0-rcr11-esr310.exr,ReadingArea_rsl0-rcl25-esl310-rsm0-rcm69-esm100-rsr0-rcr11-esr310.npz,,,,,0,18,18,204,,left,green,1.4,271.7040641307831,272.1680660247803,,,1,,2,9,brightness,readingArea,realistic,75,2023-03-31_09h59.04.246,tripletExp_regina_11082022,2022.2.4,120.23299545934044,
1,3,12,0,0.111111111111111,0.298245614035088,0,0.444444444444444,0.298245614035088,0,0.027777777777778,3.10526315789474,ReadingArea_rsl0-rcl11-esl29-rsm0-rcm44-esm29-rsr0-rcr2-esr310,exr/ReadingArea_rsl0-rcl11-esl29-rsm0-rcm44-esm29-rsr0-rcr2-esr310.exr,ReadingArea_rsl0-rcl11-esl29-rsm0-rcm44-esm29-rsr0-rcr2-esr310.npz,,,,,0,19,19,323,,left,green,1.25,273.8722519874573,274.4562101364136,,,1,,2,9,brightness,readingArea,realistic,75,2023-03-31_09h59.04.246,tripletExp_regina_11082022,2022.2.4,120.23299545934044,
12,13,10,0,0.027777777777778,3.10526315789474,0,0.111111111111111,3.10526315789474,0,0.694444444444444,1.0,ReadingArea_rsl0-rcl2-esl310-rsm0-rcm11-esm310-rsr0-rcr69-esr100,exr/ReadingArea_rsl0-rcl2-esl310-rsm0-rcm11-esm310-rsr0-rcr69-esr100.exr,ReadingArea_rsl0-rcl2-esl310-rsm0-rcm11-esm310-rsr0-rcr69-esr100.npz,,,,,0,20,20,295,,left,green,1.56,276.17400908470154,276.7628982067108,,,1,,2,9,brightness,readingArea,realistic,75,2023-03-31_09h59.04.246,tripletExp_regina_11082022,2022.2.4,120.23299545934044,
0,4,6,0,0.027777777777778,0.298245614035088,0,0.694444444444444,0.298245614035088,0,0.027777777777778,1.0,ReadingArea_rsl0-rcl2-esl29-rsm0-rcm69-esm29-rsr0-rcr2-esr100,exr/ReadingArea_rsl0-rcl2-esl29-rsm0-rcm69-esm29-rsr0-rcr2-esr100.exr,ReadingArea_rsl0-rcl2-esl29-rsm0-rcm69-esm29-rsr0-rcr2-esr100.npz,,,,,0,21,21,49,,right,red,3.26,280.26066398620605,280.7473361492157,,,1,,2,9,brightness,readingArea,realistic,75,2023-03-31_09h59.04.246,tripletExp_regina_11082022,2022.2.4,120.23299545934044,
7,8,6,0,0.111111111111111,1.0,0,0.25,1.0,0,0.027777777777778,1.0,ReadingArea_rsl0-rcl11-esl100-rsm0-rcm25-esm100-rsr0-rcr2-esr100,exr/ReadingArea_rsl0-rcl11-esl100-rsm0-rcm25-esm100-rsr0-rcr2-esr100.exr,ReadingArea_rsl0-rcl11-esl100-rsm0-rcm25-esm100-rsr0-rcr2-esr100.npz,,,,,0,22,22,387,,left,green,1.26,282.4721632003784,282.94909620285034,,,1,,2,9,brightness,readingArea,realistic,75,2023-03-31_09h59.04.246,tripletExp_regina_11082022,2022.2.4,120.23299545934044,
12,7,1,0,0.027777777777778,3.10526315789474,0,0.111111111111111,1.0,0,0.111111111111111,0.298245614035088,ReadingArea_rsl0-rcl2-esl310-rsm0-rcm11-esm100-rsr0-rcr11-esr29,exr/ReadingArea_rsl0-rcl2-esl310-rsm0-rcm11-esm100-rsr0-rcr11-esr29.exr,ReadingArea_rsl0-rcl2-esl310-rsm0-rcm11-esm100-rsr0-rcr11-esr29.npz,,,,,0,23,23,264,,left,green,2.67,286.4305021762848,286.9609041213989,,,1,,2,9,brightness,readingArea,realistic,75,2023-03-31_09h59.04.246,tripletExp_regina_11082022,2022.2.4,120.23299545934044,
13,3,14,0,0.111111111111111,3.10526315789474,0,0.444444444444444,0.298245614035088,0,0.25,3.10526315789474,ReadingArea_rsl0-rcl11-esl310-rsm0-rcm44-esm29-rsr0-rcr25-esr310,exr/ReadingArea_rsl0-rcl11-esl310-rsm0-rcm44-esm29-rsr0-rcr25-esr310.exr,ReadingArea_rsl0-rcl11-esl310-rsm0-rcm44-esm29-rsr0-rcr25-esr310.npz,,,,,0,24,24,38,,left,green,2.63,290.45517206192017,,,,1,,2,9,brightness,readingArea,realistic,75,2023-03-31_09h59.04.246,tripletExp_regina_11082022,2022.2.4,120.23299545934044,
3,8,7,0,0.444444444444444,0.298245614035088,0,0.25,1.0,0,0.111111111111111,1.0,ReadingArea_rsl0-rcl44-esl29-rsm0-rcm25-esm100-rsr0-rcr11-esr100,exr/ReadingArea_rsl0-rcl44-esl29-rsm0-rcm25-esm100-rsr0-rcr11-esr100.exr,ReadingArea_rsl0-rcl44-esl29-rsm0-rcm25-esm100-rsr0-rcr11-esr100.npz,,,,,0,25,25,484,,left,green,3.42,294.5318660736084,295.0342371463776,,,1,,2,9,brightness,readingArea,realistic,75,2023-03-31_09h59.04.246,tripletExp_regina_11082022,2022.2.4,120.23299545934044,
2,4,6,0,0.25,0.298245614035088,0,0.694444444444444,0.298245614035088,0,0.027777777777778,1.0,ReadingArea_rsl0-rcl25-esl29-rsm0-rcm69-esm29-rsr0-rcr2-esr100,exr/ReadingArea_rsl0-rcl25-esl29-rsm0-rcm69-esm29-rsr0-rcr2-esr100.exr,ReadingArea_rsl0-rcl25-esl29-rsm0-rcm69-esm29-rsr0-rcr2-esr100.npz,,,,,0,26,26,563,,left,green,1.77,296.7521162033081,297.2289011478424,,,1,,2,9,brightness,readingArea,realistic,75,2023-03-31_09h59.04.246,tripletExp_regina_11082022,2022.2.4,120.23299545934044,
10,5,13,0,0.694444444444444,1.0,0,1.0,0.298245614035088,0,0.111111111111111,3.10526315789474,ReadingArea_rsl0-rcl69-esl100-rsm0-rcm100-esm29-rsr0-rcr11-esr310,exr/ReadingArea_rsl0-rcl69-esl100-rsm0-rcm100-esm29-rsr0-rcr11-esr310.exr,ReadingArea_rsl0-rcl69-esl100-rsm0-rcm100-esm29-rsr0-rcr11-esr310.npz,,,,,0,27,27,478,,right,red,1.51,298.925822019577,299.4122431278229,,,1,,2,9,brightness,readingArea,realistic,75,2023-03-31_09h59.04.246,tripletExp_regina_11082022,2022.2.4,120.23299545934044,
12,5,10,0,0.027777777777778,3.10526315789474,0,1.0,0.298245614035088,0,0.694444444444444,1.0,ReadingArea_rsl0-rcl2-esl310-rsm0-rcm100-esm29-rsr0-rcr69-esr100,exr/ReadingArea_rsl0-rcl2-esl310-rsm0-rcm100-esm29-rsr0-rcr69-esr100.exr,ReadingArea_rsl0-rcl2-esl310-rsm0-rcm100-esm29-rsr0-rcr69-esr100.npz,,,,,0,28,28,493,,left,green,1.68,301.1027472019196,301.8019390106201,,,1,,2,9,brightness,readingArea,realistic,75,2023-03-31_09h59.04.246,tripletExp_regina_11082022,2022.2.4,120.23299545934044,
3,6,11,0,0.444444444444444,0.298245614035088,0,0.027777777777778,1.0,0,1.0,1.0,ReadingArea_rsl0-rcl44-esl29-rsm0-rcm2-esm100-rsr0-rcr100-esr100,exr/ReadingArea_rsl0-rcl44-esl29-rsm0-rcm2-esm100-rsr0-rcr100-esr100.exr,ReadingArea_rsl0-rcl44-esl29-rsm0-rcm2-esm100-rsr0-rcr100-esr100.npz,,,,,0,29,29,155,,left,green,2.82,305.27366518974304,305.8941581249237,,,1,,2,9,brightness,readingArea,realistic,75,2023-03-31_09h59.04.246,tripletExp_regina_11082022,2022.2.4,120.23299545934044,
12,7,2,0,0.027777777777778,3.10526315789474,0,0.111111111111111,1.0,0,0.25,0.298245614035088,ReadingArea_rsl0-rcl2-esl310-rsm0-rcm11-esm100-rsr0-rcr25-esr29,exr/ReadingArea_rsl0-rcl2-esl310-rsm0-rcm11-esm100-rsr0-rcr25-esr29.exr,ReadingArea_rsl0-rcl2-esl310-rsm0-rcm11-esm100-rsr0-rcr25-esr29.npz,,,,,0,30,30,248,,right,red,1.64,307.5991921424866,308.08078503608704,,,1,,2,9,brightness,readingArea,realistic,75,2023-03-31_09h59.04.246,tripletExp_regina_11082022,2022.2.4,120.23299545934044,
5,7,14,0,1.0,0.298245614035088,0,0.111111111111111,1.0,0,0.25,3.10526315789474,ReadingArea_rsl0-rcl100-esl29-rsm0-rcm11-esm100-rsr0-rcr25-esr310,exr/ReadingArea_rsl0-rcl100-esl29-rsm0-rcm11-esm100-rsr0-rcr25-esr310.exr,ReadingArea_rsl0-rcl100-esl29-rsm0-rcm11-esm100-rsr0-rcr25-esr310.npz,,,,,0,31,31,210,,left,green,1.57,309.787703037262,310.2416172027588,,,1,,2,9,brightness,readingArea,realistic,75,2023-03-31_09h59.04.246,tripletExp_regina_11082022,2022.2.4,120.23299545934044,
13,0,12,0,0.111111111111111,3.10526315789474,0,0.027777777777778,0.298245614035088,0,0.027777777777778,3.10526315789474,ReadingArea_rsl0-rcl11-esl310-rsm0-rcm2-esm29-rsr0-rcr2-esr310,exr/ReadingArea_rsl0-rcl11-esl310-rsm0-rcm2-esm29-rsr0-rcr2-esr310.exr,ReadingArea_rsl0-rcl11-esl310-rsm0-rcm2-esm29-rsr0-rcr2-esr310.npz,,,,,0,32,32,56,,right,red,1.19,311.93279218673706,312.3419861793518,,,1,,2,9,brightness,readingArea,realistic,75,2023-03-31_09h59.04.246,tripletExp_regina_11082022,2022.2.4,120.23299545934044,
6,10,11,0,0.027777777777778,1.0,0,0.694444444444444,1.0,0,1.0,1.0,ReadingArea_rsl0-rcl2-esl100-rsm0-rcm69-esm100-rsr0-rcr100-esr100,exr/ReadingArea_rsl0-rcl2-esl100-rsm0-rcm69-esm100-rsr0-rcr100-esr100.exr,ReadingArea_rsl0-rcl2-esl100-rsm0-rcm69-esm100-rsr0-rcr100-esr100.npz,,,,,0,33,33,116,,right,red,1.77,314.06513118743896,314.5584490299225,,,1,,2,9,brightness,readingArea,realistic,75,2023-03-31_09h59.04.246,tripletExp_regina_11082022,2022.2.4,120.23299545934044,
6,1,14,0,0.027777777777778,1.0,0,0.111111111111111,0.298245614035088,0,0.25,3.10526315789474,ReadingArea_rsl0-rcl2-esl100-rsm0-rcm11-esm29-rsr0-rcr25-esr310,exr/ReadingArea_rsl0-rcl2-esl100-rsm0-rcm11-esm29-rsr0-rcr25-esr310.exr,ReadingArea_rsl0-rcl2-esl100-rsm0-rcm11-esm29-rsr0-rcr25-esr310.npz,,,,,0,34,34,381,,left,green,1.42,316.26974415779114,316.8541929721832,,,1,,2,9,brightness,readingArea,realistic,75,2023-03-31_09h59.04.246,tripletExp_regina_11082022,2022.2.4,120.23299545934044,
10,3,11,0,0.694444444444444,1.0,0,0.444444444444444,0.298245614035088,0,1.0,1.0,ReadingArea_rsl0-rcl69-esl100-rsm0-rcm44-esm29-rsr0-rcr100-esr100,exr/ReadingArea_rsl0-rcl69-esl100-rsm0-rcm44-esm29-rsr0-rcr100-esr100.exr,ReadingArea_rsl0-rcl69-esl100-rsm0-rcm44-esm29-rsr0-rcr100-esr100.npz,,,,,0,35,35,485,,left,green,1.6,318.5712351799011,319.0511300563812,,,1,,2,9,brightness,readingArea,realistic,75,2023-03-31_09h59.04.246,tripletExp_regina_11082022,2022.2.4,120.23299545934044,
4,12,5,0,0.694444444444444,0.298245614035088,0,0.027777777777778,3.10526315789474,0,1.0,0.298245614035088,ReadingArea_rsl0-rcl69-esl29-rsm0-rcm2-esm310-rsr0-rcr100-esr29,exr/ReadingArea_rsl0-rcl69-esl29-rsm0-rcm2-esm310-rsr0-rcr100-esr29.exr,ReadingArea_rsl0-rcl69-esl29-rsm0-rcm2-esm310-rsr0-rcr100-esr29.npz,,,,,0,36,36,296,,left,green,1.29,320.77032017707825,321.24924898147583,,,1,,2,9,brightness,readingArea,realistic,75,2023-03-31_09h59.04.246,tripletExp_regina_11082022,2022.2.4,120.23299545934044,
0,14,11,0,0.027777777777778,0.298245614035088,0,0.25,3.10526315789474,0,1.0,1.0,ReadingArea_rsl0-rcl2-esl29-rsm0-rcm25-esm310-rsr0-rcr100-esr100,exr/ReadingArea_rsl0-rcl2-esl29-rsm0-rcm25-esm310-rsr0-rcr100-esr100.exr,ReadingArea_rsl0-rcl2-esl29-rsm0-rcm25-esm310-rsr0-rcr100-esr100.npz,,,,,0,37,37,557,,right,red,2.66,324.7372419834137,325.2141680717468,,,1,,2,9,brightness,readingArea,realistic,75,2023-03-31_09h59.04.246,tripletExp_regina_11082022,2022.2.4,120.23299545934044,
9,6,8,0,0.444444444444444,1.0,0,0.027777777777778,1.0,0,0.25,1.0,ReadingArea_rsl0-rcl44-esl100-rsm0-rcm2-esm100-rsr0-rcr25-esr100,exr/ReadingArea_rsl0-rcl44-esl100-rsm0-rcm2-esm100-rsr0-rcr25-esr100.exr,ReadingArea_rsl0-rcl44-esl100-rsm0-rcm2-esm100-rsr0-rcr25-esr100.npz,,,,,0,38,38,312,,right,red,1.39,326.91390919685364,327.3606731891632,,,1,,2,9,brightness,readingArea,realistic,75,2023-03-31_09h59.04.246,tripletExp_regina_11082022,2022.2.4,120.23299545934044,
10,6,8,0,0.694444444444444,1.0,0,0.027777777777778,1.0,0,0.25,1.0,ReadingArea_rsl0-rcl69-esl100-rsm0-rcm2-esm100-rsr0-rcr25-esr100,exr/ReadingArea_rsl0-rcl69-esl100-rsm0-rcm2-esm100-rsr0-rcr25-esr100.exr,ReadingArea_rsl0-rcl69-esl100-rsm0-rcm2-esm100-rsr0-rcr25-esr100.npz,,,,,0,39,39,145,,right,red,3.92,332.585520029068,333.1542191505432,,,1,,2,9,brightness,readingArea,realistic,75,2023-03-31_09h59.04.246,tripletExp_regina_11082022,2022.2.4,120.23299545934044,
3,14,10,0,0.444444444444444,0.298245614035088,0,0.25,3.10526315789474,0,0.694444444444444,1.0,ReadingArea_rsl0-rcl44-esl29-rsm0-rcm25-esm310-rsr0-rcr69-esr100,exr/ReadingArea_rsl0-rcl44-esl29-rsm0-rcm25-esm310-rsr0-rcr69-esr100.exr,ReadingArea_rsl0-rcl44-esl29-rsm0-rcm25-esm310-rsr0-rcr69-esr100.npz,,,,,0,40,40,279,,right,red,2.82,336.6220290660858,337.0999619960785,,,1,,2,9,brightness,readingArea,realistic,75,2023-03-31_09h59.04.246,tripletExp_regina_11082022,2022.2.4,120.23299545934044,
6,3,13,0,0.027777777777778,1.0,0,0.444444444444444,0.298245614035088,0,0.111111111111111,3.10526315789474,ReadingArea_rsl0-rcl2-esl100-rsm0-rcm44-esm29-rsr0-rcr11-esr310,exr/ReadingArea_rsl0-rcl2-esl100-rsm0-rcm44-esm29-rsr0-rcr11-esr310.exr,ReadingArea_rsl0-rcl2-esl100-rsm0-rcm44-esm29-rsr0-rcr11-esr310.npz,,,,,0,41,41,228,,right,red,1.66,338.7886199951172,339.27267599105835,,,1,,2,9,brightness,readingArea,realistic,75,2023-03-31_09h59.04.246,tripletExp_regina_11082022,2022.2.4,120.23299545934044,
6,4,10,0,0.027777777777778,1.0,0,0.694444444444444,0.298245614035088,0,0.694444444444444,1.0,ReadingArea_rsl0-rcl2-esl100-rsm0-rcm69-esm29-rsr0-rcr69-esr100,exr/ReadingArea_rsl0-rcl2-esl100-rsm0-rcm69-esm29-rsr0-rcr69-esr100.exr,ReadingArea_rsl0-rcl2-esl100-rsm0-rcm69-esm29-rsr0-rcr69-esr100.npz,,,,,0,42,42,554,,left,green,4.23,344.49691009521484,344.96879410743713,,,1,,2,9,brightness,readingArea,realistic,75,2023-03-31_09h59.04.246,tripletExp_regina_11082022,2022.2.4,120.23299545934044,
1,5,7,0,0.111111111111111,0.298245614035088,0,1.0,0.298245614035088,0,0.111111111111111,1.0,ReadingArea_rsl0-rcl11-esl29-rsm0-rcm100-esm29-rsr0-rcr11-esr100,exr/ReadingArea_rsl0-rcl11-esl29-rsm0-rcm100-esm29-rsr0-rcr11-esr100.exr,ReadingArea_rsl0-rcl11-esl29-rsm0-rcm100-esm29-rsr0-rcr11-esr100.npz,,,,,0,43,43,197,,right,red,2.76,348.43559312820435,348.9072849750519,,,1,,2,9,brightness,readingArea,realistic,75,2023-03-31_09h59.04.246,tripletExp_regina_11082022,2022.2.4,120.23299545934044,
13,3,12,0,0.111111111111111,3.10526315789474,0,0.444444444444444,0.298245614035088,0,0.027777777777778,3.10526315789474,ReadingArea_rsl0-rcl11-esl310-rsm0-rcm44-esm29-rsr0-rcr2-esr310,exr/ReadingArea_rsl0-rcl11-esl310-rsm0-rcm44-esm29-rsr0-rcr2-esr310.exr,ReadingArea_rsl0-rcl11-esl310-rsm0-rcm44-esm29-rsr0-rcr2-esr310.npz,,,,,0,44,44,80,,right,red,4.54,354.1268811225891,354.61182618141174,,,1,,2,9,brightness,readingArea,realistic,75,2023-03-31_09h59.04.246,tripletExp_regina_11082022,2022.2.4,120.23299545934044,
14,12,5,0,0.25,3.10526315789474,0,0.027777777777778,3.10526315789474,0,1.0,0.298245614035088,ReadingArea_rsl0-rcl25-esl310-rsm0-rcm2-esm310-rsr0-rcr100-esr29,exr/ReadingArea_rsl0-rcl25-esl310-rsm0-rcm2-esm310-rsr0-rcr100-esr29.exr,ReadingArea_rsl0-rcl25-esl310-rsm0-rcm2-esm310-rsr0-rcr100-esr29.npz,,,,,0,45,45,335,,right,red,3.16,358.0648460388184,358.52990102767944,,,1,,2,9,brightness,readingArea,realistic,75,2023-03-31_09h59.04.246,tripletExp_regina_11082022,2022.2.4,120.23299545934044,
0,8,12,0,0.027777777777778,0.298245614035088,0,0.25,1.0,0,0.027777777777778,3.10526315789474,ReadingArea_rsl0-rcl2-esl29-rsm0-rcm25-esm100-rsr0-rcr2-esr310,exr/ReadingArea_rsl0-rcl2-esl29-rsm0-rcm25-esm100-rsr0-rcr2-esr310.exr,ReadingArea_rsl0-rcl2-esl29-rsm0-rcm25-esm100-rsr0-rcr2-esr310.npz,,,,,0,46,46,314,,right,red,3.08,361.9885530471802,362.455286026001,,,1,,2,9,brightness,readingArea,realistic,75,2023-03-31_09h59.04.246,tripletExp_regina_11082022,2022.2.4,120.23299545934044,
10,11,4,0,0.694444444444444,1.0,0,1.0,1.0,0,0.694444444444444,0.298245614035088,ReadingArea_rsl0-rcl69-esl100-rsm0-rcm100-esm100-rsr0-rcr69-esr29,exr/ReadingArea_rsl0-rcl69-esl100-rsm0-rcm100-esm100-rsr0-rcr69-esr29.exr,ReadingArea_rsl0-rcl69-esl100-rsm0-rcm100-esm100-rsr0-rcr69-esr29.npz,,,,,0,47,47,239,,left,green,4.22,367.7373220920563,368.3205590248108,,,1,,2,9,brightness,readingArea,realistic,75,2023-03-31_09h59.04.246,tripletExp_regina_11082022,2022.2.4,120.23299545934044,
12,6,3,0,0.027777777777778,3.10526315789474,0,0.027777777777778,1.0,0,0.444444444444444,0.298245614035088,ReadingArea_rsl0-rcl2-esl310-rsm0-rcm2-esm100-rsr0-rcr44-esr29,exr/ReadingArea_rsl0-rcl2-esl310-rsm0-rcm2-esm100-rsr0-rcr44-esr29.exr,ReadingArea_rsl0-rcl2-esl310-rsm0-rcm2-esm100-rsr0-rcr44-esr29.npz,,,,,0,48,48,139,,left,green,4.14,373.50869703292847,374.05300211906433,,,1,,2,9,brightness,readingArea,realistic,75,2023-03-31_09h59.04.246,tripletExp_regina_11082022,2022.2.4,120.23299545934044,
1,13,14,0,0.111111111111111,0.298245614035088,0,0.111111111111111,3.10526315789474,0,0.25,3.10526315789474,ReadingArea_rsl0-rcl11-esl29-rsm0-rcm11-esm310-rsr0-rcr25-esr310,exr/ReadingArea_rsl0-rcl11-esl29-rsm0-rcm11-esm310-rsr0-rcr25-esr310.exr,ReadingArea_rsl0-rcl11-esl29-rsm0-rcm11-esm310-rsr0-rcr25-esr310.npz,,,,,0,49,49,183,,left,green,4.41,379.2840311527252,379.7807991504669,,,1,,2,9,brightness,readingArea,realistic,75,2023-03-31_09h59.04.246,tripletExp_regina_11082022,2022.2.4,120.23299545934044,
6,0,1,0,0.027777777777778,1.0,0,0.027777777777778,0.298245614035088,0,0.111111111111111,0.298245614035088,ReadingArea_rsl0-rcl2-esl100-rsm0-rcm2-esm29-rsr0-rcr11-esr29,exr/ReadingArea_rsl0-rcl2-esl100-rsm0-rcm2-esm29-rsr0-rcr11-esr29.exr,ReadingArea_rsl0-rcl2-esl100-rsm0-rcm2-esm29-rsr0-rcr11-esr29.npz,,,,,0,50,50,302,,left,green,4.04,385.0084030628204,385.5193710327149,,,1,,2,9,brightness,readingArea,realistic,75,2023-03-31_09h59.04.246,tripletExp_regina_11082022,2022.2.4,120.23299545934044,
14,1,13,0,0.25,3.10526315789474,0,0.111111111111111,0.298245614035088,0,0.111111111111111,3.10526315789474,ReadingArea_rsl0-rcl25-esl310-rsm0-rcm11-esm29-rsr0-rcr11-esr310,exr/ReadingArea_rsl0-rcl25-esl310-rsm0-rcm11-esm29-rsr0-rcr11-esr310.exr,ReadingArea_rsl0-rcl25-esl310-rsm0-rcm11-esm29-rsr0-rcr11-esr310.npz,,,,,0,51,51,265,,right,red,2.55,389.0006082057953,389.55882120132446,,,1,,2,9,brightness,readingArea,realistic,75,2023-03-31_09h59.04.246,tripletExp_regina_11082022,2022.2.4,120.23299545934044,
13,2,9,0,0.111111111111111,3.10526315789474,0,0.25,0.298245614035088,0,0.444444444444444,1.0,ReadingArea_rsl0-rcl11-esl310-rsm0-rcm25-esm29-rsr0-rcr44-esr100,exr/ReadingArea_rsl0-rcl11-esl310-rsm0-rcm25-esm29-rsr0-rcr44-esr100.exr,ReadingArea_rsl0-rcl11-esl310-rsm0-rcm25-esm29-rsr0-rcr44-esr100.npz,,,,,0,52,52,457,,left,green,2.64,393.0111601352692,393.4815740585327,,,1,,2,9,brightness,readingArea,realistic,75,2023-03-31_09h59.04.246,tripletExp_regina_11082022,2022.2.4,120.23299545934044,
6,2,5,0,0.027777777777778,1.0,0,0.25,0.298245614035088,0,1.0,0.298245614035088,ReadingArea_rsl0-rcl2-esl100-rsm0-rcm25-esm29-rsr0-rcr100-esr29,exr/ReadingArea_rsl0-rcl2-esl100-rsm0-rcm25-esm29-rsr0-rcr100-esr29.exr,ReadingArea_rsl0-rcl2-esl100-rsm0-rcm25-esm29-rsr0-rcr100-esr29.npz,,,,,0,53,53,504,,left,green,2.34,396.9437041282654,397.41145610809326,,,1,,2,9,brightness,readingArea,realistic,75,2023-03-31_09h59.04.246,tripletExp_regina_11082022,2022.2.4,120.23299545934044,
14,0,5,0,0.25,3.10526315789474,0,0.027777777777778,0.298245614035088,0,1.0,0.298245614035088,ReadingArea_rsl0-rcl25-esl310-rsm0-rcm2-esm29-rsr0-rcr100-esr29,exr/ReadingArea_rsl0-rcl25-esl310-rsm0-rcm2-esm29-rsr0-rcr100-esr29.exr,ReadingArea_rsl0-rcl25-esl310-rsm0-rcm2-esm29-rsr0-rcr100-esr29.npz,,,,,0,54,54,418,,right,red,4.02,402.6333920955658,403.1820750236511,,,1,,2,9,brightness,readingArea,realistic,75,2023-03-31_09h59.04.246,tripletExp_regina_11082022,2022.2.4,120.23299545934044,
3,0,8,0,0.444444444444444,0.298245614035088,0,0.027777777777778,0.298245614035088,0,0.25,1.0,ReadingArea_rsl0-rcl44-esl29-rsm0-rcm2-esm29-rsr0-rcr25-esr100,exr/ReadingArea_rsl0-rcl44-esl29-rsm0-rcm2-esm29-rsr0-rcr25-esr100.exr,ReadingArea_rsl0-rcl44-esl29-rsm0-rcm2-esm29-rsr0-rcr25-esr100.npz,,,,,0,55,55,510,,left,green,2.72,406.6378901004791,407.1429929733277,,,1,,2,9,brightness,readingArea,realistic,75,2023-03-31_09h59.04.246,tripletExp_regina_11082022,2022.2.4,120.23299545934044,
14,8,1,0,0.25,3.10526315789474,0,0.25,1.0,0,0.111111111111111,0.298245614035088,ReadingArea_rsl0-rcl25-esl310-rsm0-rcm25-esm100-rsr0-rcr11-esr29,exr/ReadingArea_rsl0-rcl25-esl310-rsm0-rcm25-esm100-rsr0-rcr11-esr29.exr,ReadingArea_rsl0-rcl25-esl310-rsm0-rcm25-esm100-rsr0-rcr11-esr29.npz,,,,,0,56,56,141,,right,red,2.26,410.5992081165314,,,,1,,2,9,brightness,readingArea,realistic,75,2023-03-31_09h59.04.246,tripletExp_regina_11082022,2022.2.4,120.23299545934044,
11,0,10,0,1.0,1.0,0,0.027777777777778,0.298245614035088,0,0.694444444444444,1.0,ReadingArea_rsl0-rcl100-esl100-rsm0-rcm2-esm29-rsr0-rcr69-esr100,exr/ReadingArea_rsl0-rcl100-esl100-rsm0-rcm2-esm29-rsr0-rcr69-esr100.exr,ReadingArea_rsl0-rcl100-esl100-rsm0-rcm2-esm29-rsr0-rcr69-esr100.npz,,,,,0,57,57,259,,right,red,3.93,416.3358600139618,416.8184549808502,,,1,,2,9,brightness,readingArea,realistic,75,2023-03-31_09h59.04.246,tripletExp_regina_11082022,2022.2.4,120.23299545934044,
8,14,6,0,0.25,1.0,0,0.25,3.10526315789474,0,0.027777777777778,1.0,ReadingArea_rsl0-rcl25-esl100-rsm0-rcm25-esm310-rsr0-rcr2-esr100,exr/ReadingArea_rsl0-rcl25-esl100-rsm0-rcm25-esm310-rsr0-rcr2-esr100.exr,ReadingArea_rsl0-rcl25-esl100-rsm0-rcm25-esm310-rsr0-rcr2-esr100.npz,,,,,0,58,58,469,,left,green,2.7,420.2953360080719,420.7719249725342,,,1,,2,9,brightness,readingArea,realistic,75,2023-03-31_09h59.04.246,tripletExp_regina_11082022,2022.2.4,120.23299545934044,
5,4,1,0,1.0,0.298245614035088,0,0.694444444444444,0.298245614035088,0,0.111111111111111,0.298245614035088,ReadingArea_rsl0-rcl100-esl29-rsm0-rcm69-esm29-rsr0-rcr11-esr29,exr/ReadingArea_rsl0-rcl100-esl29-rsm0-rcm69-esm29-rsr0-rcr11-esr29.exr,ReadingArea_rsl0-rcl100-esl29-rsm0-rcm69-esm29-rsr0-rcr11-esr29.npz,,,,,0,59,59,560,,left,green,2.69,424.2599010467529,,,,1,,2,9,brightness,readingArea,realistic,75,2023-03-31_09h59.04.246,tripletExp_regina_11082022,2022.2.4,120.23299545934044,
5,14,3,0,1.0,0.298245614035088,0,0.25,3.10526315789474,0,0.444444444444444,0.298245614035088,ReadingArea_rsl0-rcl100-esl29-rsm0-rcm25-esm310-rsr0-rcr44-esr29,exr/ReadingArea_rsl0-rcl100-esl29-rsm0-rcm25-esm310-rsr0-rcr44-esr29.exr,ReadingArea_rsl0-rcl100-esl29-rsm0-rcm25-esm310-rsr0-rcr44-esr29.npz,,,,,0,60,60,93,,left,green,3.24,428.291100025177,428.7811620235443,,,1,,2,9,brightness,readingArea,realistic,75,2023-03-31_09h59.04.246,tripletExp_regina_11082022,2022.2.4,120.23299545934044,
6,11,14,0,0.027777777777778,1.0,0,1.0,1.0,0,0.25,3.10526315789474,ReadingArea_rsl0-rcl2-esl100-rsm0-rcm100-esm100-rsr0-rcr25-esr310,exr/ReadingArea_rsl0-rcl2-esl100-rsm0-rcm100-esm100-rsr0-rcr25-esr310.exr,ReadingArea_rsl0-rcl2-esl100-rsm0-rcm100-esm100-rsr0-rcr25-esr310.npz,,,,,0,61,61,262,,right,red,2.52,432.273588180542,432.765016078949,,,1,,2,9,brightness,readingArea,realistic,75,2023-03-31_09h59.04.246,tripletExp_regina_11082022,2022.2.4,120.23299545934044,
2,14,8,0,0.25,0.298245614035088,0,0.25,3.10526315789474,0,0.25,1.0,ReadingArea_rsl0-rcl25-esl29-rsm0-rcm25-esm310-rsr0-rcr25-esr100,exr/ReadingArea_rsl0-rcl25-esl29-rsm0-rcm25-esm310-rsr0-rcr25-esr100.exr,ReadingArea_rsl0-rcl25-esl29-rsm0-rcm25-esm310-rsr0-rcr25-esr100.npz,,,,,0,62,62,255,,right,red,2.78,436.2706861495972,436.7326400279999,,,1,,2,9,brightness,readingArea,realistic,75,2023-03-31_09h59.04.246,tripletExp_regina_11082022,2022.2.4,120.23299545934044,
3,14,5,0,0.444444444444444,0.298245614035088,0,0.25,3.10526315789474,0,1.0,0.298245614035088,ReadingArea_rsl0-rcl44-esl29-rsm0-rcm25-esm310-rsr0-rcr100-esr29,exr/ReadingArea_rsl0-rcl44-esl29-rsm0-rcm25-esm310-rsr0-rcr100-esr29.exr,ReadingArea_rsl0-rcl44-esl29-rsm0-rcm25-esm310-rsr0-rcr100-esr29.npz,,,,,0,63,63,131,,right,red,3.1,440.2339470386505,440.71327209472656,,,1,,2,9,brightness,readingArea,realistic,75,2023-03-31_09h59.04.246,tripletExp_regina_11082022,2022.2.4,120.23299545934044,
3,13,1,0,0.444444444444444,0.298245614035088,0,0.111111111111111,3.10526315789474,0,0.111111111111111,0.298245614035088,ReadingArea_rsl0-rcl44-esl29-rsm0-rcm11-esm310-rsr0-rcr11-esr29,exr/ReadingArea_rsl0-rcl44-esl29-rsm0-rcm11-esm310-rsr0-rcr11-esr29.exr,ReadingArea_rsl0-rcl44-esl29-rsm0-rcm11-esm310-rsr0-rcr11-esr29.npz,,,,,0,64,64,421,,left,green,2.58,444.1895229816437,444.6792562007904,,,1,,2,9,brightness,readingArea,realistic,75,2023-03-31_09h59.04.246,tripletExp_regina_11082022,2022.2.4,120.23299545934044,
10,2,0,0,0.694444444444444,1.0,0,0.25,0.298245614035088,0,0.027777777777778,0.298245614035088,ReadingArea_rsl0-rcl69-esl100-rsm0-rcm25-esm29-rsr0-rcr2-esr29,exr/ReadingArea_rsl0-rcl69-esl100-rsm0-rcm25-esm29-rsr0-rcr2-esr29.exr,ReadingArea_rsl0-rcl69-esl100-rsm0-rcm25-esm29-rsr0-rcr2-esr29.npz,,,,,0,65,65,427,,right,red,3.81,449.8955609798432,450.4736111164093,,,1,,2,9,brightness,readingArea,realistic,75,2023-03-31_09h59.04.246,tripletExp_regina_11082022,2022.2.4,120.23299545934044,
11,2,4,0,1.0,1.0,0,0.25,0.298245614035088,0,0.694444444444444,0.298245614035088,ReadingArea_rsl0-rcl100-esl100-rsm0-rcm25-esm29-rsr0-rcr69-esr29,exr/ReadingArea_rsl0-rcl100-esl100-rsm0-rcm25-esm29-rsr0-rcr69-esr29.exr,ReadingArea_rsl0-rcl100-esl100-rsm0-rcm25-esm29-rsr0-rcr69-esr29.npz,,,,,0,66,66,359,,right,red,2.34,453.9435420036316,454.4201190471649,,,1,,2,9,brightness,readingArea,realistic,75,2023-03-31_09h59.04.246,tripletExp_regina_11082022,2022.2.4,120.23299545934044,
6,12,0,0,0.027777777777778,1.0,0,0.027777777777778,3.10526315789474,0,0.027777777777778,0.298245614035088,ReadingArea_rsl0-rcl2-esl100-rsm0-rcm2-esm310-rsr0-rcr2-esr29,exr/ReadingArea_rsl0-rcl2-esl100-rsm0-rcm2-esm310-rsr0-rcr2-esr29.exr,ReadingArea_rsl0-rcl2-esl100-rsm0-rcm2-esm310-rsr0-rcr2-esr29.npz,,,,,0,67,67,23,,left,green,3.05,457.9205989837647,458.4131209850311,,,1,,2,9,brightness,readingArea,realistic,75,2023-03-31_09h59.04.246,tripletExp_regina_11082022,2022.2.4,120.23299545934044,
6,14,10,0,0.027777777777778,1.0,0,0.25,3.10526315789474,0,0.694444444444444,1.0,ReadingArea_rsl0-rcl2-esl100-rsm0-rcm25-esm310-rsr0-rcr69-esr100,exr/ReadingArea_rsl0-rcl2-esl100-rsm0-rcm25-esm310-rsr0-rcr69-esr100.exr,ReadingArea_rsl0-rcl2-esl100-rsm0-rcm25-esm310-rsr0-rcr69-esr100.npz,,,,,0,68,68,413,,right,red,4.09,463.6363990306854,464.1269130706787,,,1,,2,9,brightness,readingArea,realistic,75,2023-03-31_09h59.04.246,tripletExp_regina_11082022,2022.2.4,120.23299545934044,
6,12,7,0,0.027777777777778,1.0,0,0.027777777777778,3.10526315789474,0,0.111111111111111,1.0,ReadingArea_rsl0-rcl2-esl100-rsm0-rcm2-esm310-rsr0-rcr11-esr100,exr/ReadingArea_rsl0-rcl2-esl100-rsm0-rcm2-esm310-rsr0-rcr11-esr100.exr,ReadingArea_rsl0-rcl2-esl100-rsm0-rcm2-esm310-rsr0-rcr11-esr100.npz,,,,,0,69,69,157,,right,red,3.3,467.577831029892,468.06126499176025,,,1,,2,9,brightness,readingArea,realistic,75,2023-03-31_09h59.04.246,tripletExp_regina_11082022,2022.2.4,120.23299545934044,
12,6,9,0,0.027777777777778,3.10526315789474,0,0.027777777777778,1.0,0,0.444444444444444,1.0,ReadingArea_rsl0-rcl2-esl310-rsm0-rcm2-esm100-rsr0-rcr44-esr100,exr/ReadingArea_rsl0-rcl2-esl310-rsm0-rcm2-esm100-rsr0-rcr44-esr100.exr,ReadingArea_rsl0-rcl2-esl310-rsm0-rcm2-esm100-rsr0-rcr44-esr100.npz,,,,,0,70,70,177,,left,green,4.02,473.25618600845337,473.74240899086,,,1,,2,9,brightness,readingArea,realistic,75,2023-03-31_09h59.04.246,tripletExp_regina_11082022,2022.2.4,120.23299545934044,
3,7,0,0,0.444444444444444,0.298245614035088,0,0.111111111111111,1.0,0,0.027777777777778,0.298245614035088,ReadingArea_rsl0-rcl44-esl29-rsm0-rcm11-esm100-rsr0-rcr2-esr29,exr/ReadingArea_rsl0-rcl44-esl29-rsm0-rcm11-esm100-rsr0-rcr2-esr29.exr,ReadingArea_rsl0-rcl44-esl29-rsm0-rcm11-esm100-rsr0-rcr2-esr29.npz,,,,,0,71,71,327,,left,green,2.8,477.2243840694428,477.689857006073,,,1,,2,9,brightness,readingArea,realistic,75,2023-03-31_09h59.04.246,tripletExp_regina_11082022,2022.2.4,120.23299545934044,
14,9,12,0,0.25,3.10526315789474,0,0.444444444444444,1.0,0,0.027777777777778,3.10526315789474,ReadingArea_rsl0-rcl25-esl310-rsm0-rcm44-esm100-rsr0-rcr2-esr310,exr/ReadingArea_rsl0-rcl25-esl310-rsm0-rcm44-esm100-rsr0-rcr2-esr310.exr,ReadingArea_rsl0-rcl25-esl310-rsm0-rcm44-esm100-rsr0-rcr2-esr310.npz,,,,,0,72,72,378,,left,green,2.77,481.15234208107,,,,1,,2,9,brightness,readingArea,realistic,75,2023-03-31_09h59.04.246,tripletExp_regina_11082022,2022.2.4,120.23299545934044,
6,9,5,0,0.027777777777778,1.0,0,0.444444444444444,1.0,0,1.0,0.298245614035088,ReadingArea_rsl0-rcl2-esl100-rsm0-rcm44-esm100-rsr0-rcr100-esr29,exr/ReadingArea_rsl0-rcl2-esl100-rsm0-rcm44-esm100-rsr0-rcr100-esr29.exr,ReadingArea_rsl0-rcl2-esl100-rsm0-rcm44-esm100-rsr0-rcr100-esr29.npz,,,,,0,73,73,29,,right,red,3.99,486.7973251342773,487.2706999778748,,,1,,2,9,brightness,readingArea,realistic,75,2023-03-31_09h59.04.246,tripletExp_regina_11082022,2022.2.4,120.23299545934044,
4,14,1,0,0.694444444444444,0.298245614035088,0,0.25,3.10526315789474,0,0.111111111111111,0.298245614035088,ReadingArea_rsl0-rcl69-esl29-rsm0-rcm25-esm310-rsr0-rcr11-esr29,exr/ReadingArea_rsl0-rcl69-esl29-rsm0-rcm25-esm310-rsr0-rcr11-esr29.exr,ReadingArea_rsl0-rcl69-esl29-rsm0-rcm25-esm310-rsr0-rcr11-esr29.npz,,,,,0,74,74,477,,left,green,4.12,492.5065870285034,492.7110021114349,,,1,,2,9,brightness,readingArea,realistic,75,2023-03-31_09h59.04.246,tripletExp_regina_11082022,2022.2.4,120.23299545934044,
0,8,6,0,0.027777777777778,0.298245614035088,0,0.25,1.0,0,0.027777777777778,1.0,ReadingArea_rsl0-rcl2-esl29-rsm0-rcm25-esm100-rsr0-rcr2-esr100,exr/ReadingArea_rsl0-rcl2-esl29-rsm0-rcm25-esm100-rsr0-rcr2-esr100.exr,ReadingArea_rsl0-rcl2-esl29-rsm0-rcm25-esm100-rsr0-rcr2-esr100.npz,,,,,0,75,75,92,,right,red,2.72,521.827879190445,522.2787301540375,,,2,,2,9,brightness,readingArea,realistic,75,2023-03-31_09h59.04.246,tripletExp_regina_11082022,2022.2.4,120.23299545934044,
7,12,1,0,0.111111111111111,1.0,0,0.027777777777778,3.10526315789474,0,0.111111111111111,0.298245614035088,ReadingArea_rsl0-rcl11-esl100-rsm0-rcm2-esm310-rsr0-rcr11-esr29,exr/ReadingArea_rsl0-rcl11-esl100-rsm0-rcm2-esm310-rsr0-rcr11-esr29.exr,ReadingArea_rsl0-rcl11-esl100-rsm0-rcm2-esm310-rsr0-rcr11-esr29.npz,,,,,0,76,76,20,,right,red,2.16,525.7328100204468,526.2252781391144,,,2,,2,9,brightness,readingArea,realistic,75,2023-03-31_09h59.04.246,tripletExp_regina_11082022,2022.2.4,120.23299545934044,
6,1,9,0,0.027777777777778,1.0,0,0.111111111111111,0.298245614035088,0,0.444444444444444,1.0,ReadingArea_rsl0-rcl2-esl100-rsm0-rcm11-esm29-rsr0-rcr44-esr100,exr/ReadingArea_rsl0-rcl2-esl100-rsm0-rcm11-esm29-rsr0-rcr44-esr100.exr,ReadingArea_rsl0-rcl2-esl100-rsm0-rcm11-esm29-rsr0-rcr44-esr100.npz,,,,,0,77,77,74,,left,green,2.31,529.7106671333313,530.1799221038818,,,2,,2,9,brightness,readingArea,realistic,75,2023-03-31_09h59.04.246,tripletExp_regina_11082022,2022.2.4,120.23299545934044,
9,0,11,0,0.444444444444444,1.0,0,0.027777777777778,0.298245614035088,0,1.0,1.0,ReadingArea_rsl0-rcl44-esl100-rsm0-rcm2-esm29-rsr0-rcr100-esr100,exr/ReadingArea_rsl0-rcl44-esl100-rsm0-rcm2-esm29-rsr0-rcr100-esr100.exr,ReadingArea_rsl0-rcl44-esl100-rsm0-rcm2-esm29-rsr0-rcr100-esr100.npz,,,,,0,78,78,319,,left,green,2.47,533.6576840877533,534.1253700256348,,,2,,2,9,brightness,readingArea,realistic,75,2023-03-31_09h59.04.246,tripletExp_regina_11082022,2022.2.4,120.23299545934044,
3,7,8,0,0.444444444444444,0.298245614035088,0,0.111111111111111,1.0,0,0.25,1.0,ReadingArea_rsl0-rcl44-esl29-rsm0-rcm11-esm100-rsr0-rcr25-esr100,exr/ReadingArea_rsl0-rcl44-esl29-rsm0-rcm11-esm100-rsr0-rcr25-esr100.exr,ReadingArea_rsl0-rcl44-esl29-rsm0-rcm11-esm100-rsr0-rcr25-esr100.npz,,,,,0,79,79,246,,left,green,2.65,537.612909078598,538.0969941616058,,,2,,2,9,brightness,readingArea,realistic,75,2023-03-31_09h59.04.246,tripletExp_regina_11082022,2022.2.4,120.23299545934044,
11,5,2,0,1.0,1.0,0,1.0,0.298245614035088,0,0.25,0.298245614035088,ReadingArea_rsl0-rcl100-esl100-rsm0-rcm100-esm29-rsr0-rcr25-esr29,exr/ReadingArea_rsl0-rcl100-esl100-rsm0-rcm100-esm29-rsr0-rcr25-esr29.exr,ReadingArea_rsl0-rcl100-esl100-rsm0-rcm100-esm29-rsr0-rcr25-esr29.npz,,,,,0,80,80,596,,left,green,2.55,541.5509240627289,542.0424911975861,,,2,,2,9,brightness,readingArea,realistic,75,2023-03-31_09h59.04.246,tripletExp_regina_11082022,2022.2.4,120.23299545934044,
6,1,2,0,0.027777777777778,1.0,0,0.111111111111111,0.298245614035088,0,0.25,0.298245614035088,ReadingArea_rsl0-rcl2-esl100-rsm0-rcm11-esm29-rsr0-rcr25-esr29,exr/ReadingArea_rsl0-rcl2-esl100-rsm0-rcm11-esm29-rsr0-rcr25-esr29.exr,ReadingArea_rsl0-rcl2-esl100-rsm0-rcm11-esm29-rsr0-rcr25-esr29.npz,,,,,0,81,81,68,,left,green,2.74,545.4974381923676,545.9505100250244,,,2,,2,9,brightness,readingArea,realistic,75,2023-03-31_09h59.04.246,tripletExp_regina_11082022,2022.2.4,120.23299545934044,
0,13,1,0,0.027777777777778,0.298245614035088,0,0.111111111111111,3.10526315789474,0,0.111111111111111,0.298245614035088,ReadingArea_rsl0-rcl2-esl29-rsm0-rcm11-esm310-rsr0-rcr11-esr29,exr/ReadingArea_rsl0-rcl2-esl29-rsm0-rcm11-esm310-rsr0-rcr11-esr29.exr,ReadingArea_rsl0-rcl2-esl29-rsm0-rcm11-esm310-rsr0-rcr11-esr29.npz,,,,,0,82,82,458,,right,red,2.75,549.392275094986,549.8715331554413,,,2,,2,9,brightness,readingArea,realistic,75,2023-03-31_09h59.04.246,tripletExp_regina_11082022,2022.2.4,120.23299545934044,
0,12,7,0,0.027777777777778,0.298245614035088,0,0.027777777777778,3.10526315789474,0,0.111111111111111,1.0,ReadingArea_rsl0-rcl2-esl29-rsm0-rcm2-esm310-rsr0-rcr11-esr100,exr/ReadingArea_rsl0-rcl2-esl29-rsm0-rcm2-esm310-rsr0-rcr11-esr100.exr,ReadingArea_rsl0-rcl2-esl29-rsm0-rcm2-esm310-rsr0-rcr11-esr100.npz,,,,,0,83,83,481,,right,red,2.8,553.3270080089569,553.7777321338654,,,2,,2,9,brightness,readingArea,realistic,75,2023-03-31_09h59.04.246,tripletExp_regina_11082022,2022.2.4,120.23299545934044,
11,12,2,0,1.0,1.0,0,0.027777777777778,3.10526315789474,0,0.25,0.298245614035088,ReadingArea_rsl0-rcl100-esl100-rsm0-rcm2-esm310-rsr0-rcr25-esr29,exr/ReadingArea_rsl0-rcl100-esl100-rsm0-rcm2-esm310-rsr0-rcr25-esr29.exr,ReadingArea_rsl0-rcl100-esl100-rsm0-rcm2-esm310-rsr0-rcr25-esr29.npz,,,,,0,84,84,423,,right,red,2.24,557.2282841205597,557.7222180366516,,,2,,2,9,brightness,readingArea,realistic,75,2023-03-31_09h59.04.246,tripletExp_regina_11082022,2022.2.4,120.23299545934044,
14,6,13,0,0.25,3.10526315789474,0,0.027777777777778,1.0,0,0.111111111111111,3.10526315789474,ReadingArea_rsl0-rcl25-esl310-rsm0-rcm2-esm100-rsr0-rcr11-esr310,exr/ReadingArea_rsl0-rcl25-esl310-rsm0-rcm2-esm100-rsr0-rcr11-esr310.exr,ReadingArea_rsl0-rcl25-esl310-rsm0-rcm2-esm100-rsr0-rcr11-esr310.npz,,,,,0,85,85,91,,right,red,3.98,562.9657330513,563.4571461677551,,,2,,2,9,brightness,readingArea,realistic,75,2023-03-31_09h59.04.246,tripletExp_regina_11082022,2022.2.4,120.23299545934044,
7,13,4,0,0.111111111111111,1.0,0,0.111111111111111,3.10526315789474,0,0.694444444444444,0.298245614035088,ReadingArea_rsl0-rcl11-esl100-rsm0-rcm11-esm310-rsr0-rcr69-esr29,exr/ReadingArea_rsl0-rcl11-esl100-rsm0-rcm11-esm310-rsr0-rcr69-esr29.exr,ReadingArea_rsl0-rcl11-esl100-rsm0-rcm11-esm310-rsr0-rcr69-esr29.npz,,,,,0,86,86,456,,right,red,2.91,566.9098641872406,567.3856279850006,,,2,,2,9,brightness,readingArea,realistic,75,2023-03-31_09h59.04.246,tripletExp_regina_11082022,2022.2.4,120.23299545934044,
4,8,14,0,0.694444444444444,0.298245614035088,0,0.25,1.0,0,0.25,3.10526315789474,ReadingArea_rsl0-rcl69-esl29-rsm0-rcm25-esm100-rsr0-rcr25-esr310,exr/ReadingArea_rsl0-rcl69-esl29-rsm0-rcm25-esm100-rsr0-rcr25-esr310.exr,ReadingArea_rsl0-rcl69-esl29-rsm0-rcm25-esm100-rsr0-rcr25-esr310.npz,,,,,0,87,87,234,,left,green,4.56,572.6064991950989,573.0950391292572,,,2,,2,9,brightness,readingArea,realistic,75,2023-03-31_09h59.04.246,tripletExp_regina_11082022,2022.2.4,120.23299545934044,
4,1,13,0,0.694444444444444,0.298245614035088,0,0.111111111111111,0.298245614035088,0,0.111111111111111,3.10526315789474,ReadingArea_rsl0-rcl69-esl29-rsm0-rcm11-esm29-rsr0-rcr11-esr310,exr/ReadingArea_rsl0-rcl69-esl29-rsm0-rcm11-esm29-rsr0-rcr11-esr310.exr,ReadingArea_rsl0-rcl69-esl29-rsm0-rcm11-esm29-rsr0-rcr11-esr310.npz,,,,,0,88,88,565,,left,green,4.5,578.3031311035156,578.8675830364227,,,2,,2,9,brightness,readingArea,realistic,75,2023-03-31_09h59.04.246,tripletExp_regina_11082022,2022.2.4,120.23299545934044,
13,6,10,0,0.111111111111111,3.10526315789474,0,0.027777777777778,1.0,0,0.694444444444444,1.0,ReadingArea_rsl0-rcl11-esl310-rsm0-rcm2-esm100-rsr0-rcr69-esr100,exr/ReadingArea_rsl0-rcl11-esl310-rsm0-rcm2-esm100-rsr0-rcr69-esr100.exr,ReadingArea_rsl0-rcl11-esl310-rsm0-rcm2-esm100-rsr0-rcr69-esr100.npz,,,,,0,89,89,593,,left,green,3.73,584.0718920230865,584.7923781871796,,,2,,2,9,brightness,readingArea,realistic,75,2023-03-31_09h59.04.246,tripletExp_regina_11082022,2022.2.4,120.23299545934044,
4,3,1,0,0.694444444444444,0.298245614035088,0,0.444444444444444,0.298245614035088,0,0.111111111111111,0.298245614035088,ReadingArea_rsl0-rcl69-esl29-rsm0-rcm44-esm29-rsr0-rcr11-esr29,exr/ReadingArea_rsl0-rcl69-esl29-rsm0-rcm44-esm29-rsr0-rcr11-esr29.exr,ReadingArea_rsl0-rcl69-esl29-rsm0-rcm44-esm29-rsr0-rcr11-esr29.npz,,,,,0,90,90,60,,left,green,3.93,590.0508251190186,590.5239551067352,,,2,,2,9,brightness,readingArea,realistic,75,2023-03-31_09h59.04.246,tripletExp_regina_11082022,2022.2.4,120.23299545934044,
9,11,3,0,0.444444444444444,1.0,0,1.0,1.0,0,0.444444444444444,0.298245614035088,ReadingArea_rsl0-rcl44-esl100-rsm0-rcm100-esm100-rsr0-rcr44-esr29,exr/ReadingArea_rsl0-rcl44-esl100-rsm0-rcm100-esm100-rsr0-rcr44-esr29.exr,ReadingArea_rsl0-rcl44-esl100-rsm0-rcm100-esm100-rsr0-rcr44-esr29.npz,,,,,0,91,91,348,,left,green,4.17,595.7404479980469,596.2348489761353,,,2,,2,9,brightness,readingArea,realistic,75,2023-03-31_09h59.04.246,tripletExp_regina_11082022,2022.2.4,120.23299545934044,
12,8,9,0,0.027777777777778,3.10526315789474,0,0.25,1.0,0,0.444444444444444,1.0,ReadingArea_rsl0-rcl2-esl310-rsm0-rcm25-esm100-rsr0-rcr44-esr100,exr/ReadingArea_rsl0-rcl2-esl310-rsm0-rcm25-esm100-rsr0-rcr44-esr100.exr,ReadingArea_rsl0-rcl2-esl310-rsm0-rcm25-esm100-rsr0-rcr44-esr100.npz,,,,,0,92,92,517,,left,green,4.69,601.481005191803,601.945384979248,,,2,,2,9,brightness,readingArea,realistic,75,2023-03-31_09h59.04.246,tripletExp_regina_11082022,2022.2.4,120.23299545934044,
6,13,0,0,0.027777777777778,1.0,0,0.111111111111111,3.10526315789474,0,0.027777777777778,0.298245614035088,ReadingArea_rsl0-rcl2-esl100-rsm0-rcm11-esm310-rsr0-rcr2-esr29,exr/ReadingArea_rsl0-rcl2-esl100-rsm0-rcm11-esm310-rsr0-rcr2-esr29.exr,ReadingArea_rsl0-rcl2-esl100-rsm0-rcm11-esm310-rsr0-rcr2-esr29.npz,,,,,0,93,93,580,,left,green,4.13,607.1879739761353,607.7818071842194,,,2,,2,9,brightness,readingArea,realistic,75,2023-03-31_09h59.04.246,tripletExp_regina_11082022,2022.2.4,120.23299545934044,
3,6,13,0,0.444444444444444,0.298245614035088,0,0.027777777777778,1.0,0,0.111111111111111,3.10526315789474,ReadingArea_rsl0-rcl44-esl29-rsm0-rcm2-esm100-rsr0-rcr11-esr310,exr/ReadingArea_rsl0-rcl44-esl29-rsm0-rcm2-esm100-rsr0-rcr11-esr310.exr,ReadingArea_rsl0-rcl44-esl29-rsm0-rcm2-esm100-rsr0-rcr11-esr310.npz,,,,,0,94,94,449,,left,green,4.51,613.0051300525665,613.6093180179596,,,2,,2,9,brightness,readingArea,realistic,75,2023-03-31_09h59.04.246,tripletExp_regina_11082022,2022.2.4,120.23299545934044,
10,13,6,0,0.694444444444444,1.0,0,0.111111111111111,3.10526315789474,0,0.027777777777778,1.0,ReadingArea_rsl0-rcl69-esl100-rsm0-rcm11-esm310-rsr0-rcr2-esr100,exr/ReadingArea_rsl0-rcl69-esl100-rsm0-rcm11-esm310-rsr0-rcr2-esr100.exr,ReadingArea_rsl0-rcl69-esl100-rsm0-rcm11-esm310-rsr0-rcr2-esr100.npz,,,,,0,95,95,351,,left,green,4.22,618.8293571472168,619.3092551231384,,,2,,2,9,brightness,readingArea,realistic,75,2023-03-31_09h59.04.246,tripletExp_regina_11082022,2022.2.4,120.23299545934044,
7,9,5,0,0.111111111111111,1.0,0,0.444444444444444,1.0,0,1.0,0.298245614035088,ReadingArea_rsl0-rcl11-esl100-rsm0-rcm44-esm100-rsr0-rcr100-esr29,exr/ReadingArea_rsl0-rcl11-esl100-rsm0-rcm44-esm100-rsr0-rcr100-esr29.exr,ReadingArea_rsl0-rcl11-esl100-rsm0-rcm44-esm100-rsr0-rcr100-esr29.npz,,,,,0,96,96,291,,right,red,4.05,624.5487430095673,625.0382521152496,,,2,,2,9,brightness,readingArea,realistic,75,2023-03-31_09h59.04.246,tripletExp_regina_11082022,2022.2.4,120.23299545934044,
6,10,9,0,0.027777777777778,1.0,0,0.694444444444444,1.0,0,0.444444444444444,1.0,ReadingArea_rsl0-rcl2-esl100-rsm0-rcm69-esm100-rsr0-rcr44-esr100,exr/ReadingArea_rsl0-rcl2-esl100-rsm0-rcm69-esm100-rsr0-rcr44-esr100.exr,ReadingArea_rsl0-rcl2-esl100-rsm0-rcm69-esm100-rsr0-rcr44-esr100.npz,,,,,0,97,97,148,,right,red,4.26,630.2806701660156,630.8586900234222,,,2,,2,9,brightness,readingArea,realistic,75,2023-03-31_09h59.04.246,tripletExp_regina_11082022,2022.2.4,120.23299545934044,
11,5,8,0,1.0,1.0,0,1.0,0.298245614035088,0,0.25,1.0,ReadingArea_rsl0-rcl100-esl100-rsm0-rcm100-esm29-rsr0-rcr25-esr100,exr/ReadingArea_rsl0-rcl100-esl100-rsm0-rcm100-esm29-rsr0-rcr25-esr100.exr,ReadingArea_rsl0-rcl100-esl100-rsm0-rcm100-esm29-rsr0-rcr25-esr100.npz,,,,,0,98,98,86,,right,red,4.36,636.0855112075806,,,,2,,2,9,brightness,readingArea,realistic,75,2023-03-31_09h59.04.246,tripletExp_regina_11082022,2022.2.4,120.23299545934044,
0,9,6,0,0.027777777777778,0.298245614035088,0,0.444444444444444,1.0,0,0.027777777777778,1.0,ReadingArea_rsl0-rcl2-esl29-rsm0-rcm44-esm100-rsr0-rcr2-esr100,exr/ReadingArea_rsl0-rcl2-esl29-rsm0-rcm44-esm100-rsr0-rcr2-esr100.exr,ReadingArea_rsl0-rcl2-esl29-rsm0-rcm44-esm100-rsr0-rcr2-esr100.npz,,,,,0,99,99,365,,right,red,4.3,641.7908790111542,642.270024061203,,,2,,2,9,brightness,readingArea,realistic,75,2023-03-31_09h59.04.246,tripletExp_regina_11082022,2022.2.4,120.23299545934044,
7,8,14,0,0.111111111111111,1.0,0,0.25,1.0,0,0.25,3.10526315789474,ReadingArea_rsl0-rcl11-esl100-rsm0-rcm25-esm100-rsr0-rcr25-esr310,exr/ReadingArea_rsl0-rcl11-esl100-rsm0-rcm25-esm100-rsr0-rcr25-esr310.exr,ReadingArea_rsl0-rcl11-esl100-rsm0-rcm25-esm100-rsr0-rcr25-esr310.npz,,,,,0,100,100,300,,left,green,4.24,647.526388168335,648.0138640403748,,,2,,2,9,brightness,readingArea,realistic,75,2023-03-31_09h59.04.246,tripletExp_regina_11082022,2022.2.4,120.23299545934044,
12,6,8,0,0.027777777777778,3.10526315789474,0,0.027777777777778,1.0,0,0.25,1.0,ReadingArea_rsl0-rcl2-esl310-rsm0-rcm2-esm100-rsr0-rcr25-esr100,exr/ReadingArea_rsl0-rcl2-esl310-rsm0-rcm2-esm100-rsr0-rcr25-esr100.exr,ReadingArea_rsl0-rcl2-esl310-rsm0-rcm2-esm100-rsr0-rcr25-esr100.npz,,,,,0,101,101,540,,left,green,4.23,653.2638971805573,653.768618106842,,,2,,2,9,brightness,readingArea,realistic,75,2023-03-31_09h59.04.246,tripletExp_regina_11082022,2022.2.4,120.23299545934044,
1,10,0,0,0.111111111111111,0.298245614035088,0,0.694444444444444,1.0,0,0.027777777777778,0.298245614035088,ReadingArea_rsl0-rcl11-esl29-rsm0-rcm69-esm100-rsr0-rcr2-esr29,exr/ReadingArea_rsl0-rcl11-esl29-rsm0-rcm69-esm100-rsr0-rcr2-esr29.exr,ReadingArea_rsl0-rcl11-esl29-rsm0-rcm69-esm100-rsr0-rcr2-esr29.npz,,,,,0,102,102,196,,left,green,4.3,659.0164620876312,659.5099010467529,,,2,,2,9,brightness,readingArea,realistic,75,2023-03-31_09h59.04.246,tripletExp_regina_11082022,2022.2.4,120.23299545934044,
4,13,1,0,0.694444444444444,0.298245614035088,0,0.111111111111111,3.10526315789474,0,0.111111111111111,0.298245614035088,ReadingArea_rsl0-rcl69-esl29-rsm0-rcm11-esm310-rsr0-rcr11-esr29,exr/ReadingArea_rsl0-rcl69-esl29-rsm0-rcm11-esm310-rsr0-rcr11-esr29.exr,ReadingArea_rsl0-rcl69-esl29-rsm0-rcm11-esm310-rsr0-rcr11-esr29.npz,,,,,0,103,103,192,,left,green,4.19,664.7723121643066,665.2506561279297,,,2,,2,9,brightness,readingArea,realistic,75,2023-03-31_09h59.04.246,tripletExp_regina_11082022,2022.2.4,120.23299545934044,
11,2,8,0,1.0,1.0,0,0.25,0.298245614035088,0,0.25,1.0,ReadingArea_rsl0-rcl100-esl100-rsm0-rcm25-esm29-rsr0-rcr25-esr100,exr/ReadingArea_rsl0-rcl100-esl100-rsm0-rcm25-esm29-rsr0-rcr25-esr100.exr,ReadingArea_rsl0-rcl100-esl100-rsm0-rcm25-esm29-rsr0-rcr25-esr100.npz,,,,,0,104,104,214,,right,red,4.05,670.4900331497192,,,,2,,2,9,brightness,readingArea,realistic,75,2023-03-31_09h59.04.246,tripletExp_regina_11082022,2022.2.4,120.23299545934044,
2,3,6,0,0.25,0.298245614035088,0,0.444444444444444,0.298245614035088,0,0.027777777777778,1.0,ReadingArea_rsl0-rcl25-esl29-rsm0-rcm44-esm29-rsr0-rcr2-esr100,exr/ReadingArea_rsl0-rcl25-esl29-rsm0-rcm44-esm29-rsr0-rcr2-esr100.exr,ReadingArea_rsl0-rcl25-esl29-rsm0-rcm44-esm29-rsr0-rcr2-esr100.npz,,,,,0,105,105,357,,left,green,3.96,676.2233231067657,676.707545042038,,,2,,2,9,brightness,readingArea,realistic,75,2023-03-31_09h59.04.246,tripletExp_regina_11082022,2022.2.4,120.23299545934044,
9,3,0,0,0.444444444444444,1.0,0,0.444444444444444,0.298245614035088,0,0.027777777777778,0.298245614035088,ReadingArea_rsl0-rcl44-esl100-rsm0-rcm44-esm29-rsr0-rcr2-esr29,exr/ReadingArea_rsl0-rcl44-esl100-rsm0-rcm44-esm29-rsr0-rcr2-esr29.exr,ReadingArea_rsl0-rcl44-esl100-rsm0-rcm44-esm29-rsr0-rcr2-esr29.npz,,,,,0,106,106,120,,left,green,4.34,681.927924156189,682.4054181575775,,,2,,2,9,brightness,readingArea,realistic,75,2023-03-31_09h59.04.246,tripletExp_regina_11082022,2022.2.4,120.23299545934044,
3,1,0,0,0.444444444444444,0.298245614035088,0,0.111111111111111,0.298245614035088,0,0.027777777777778,0.298245614035088,ReadingArea_rsl0-rcl44-esl29-rsm0-rcm11-esm29-rsr0-rcr2-esr29,exr/ReadingArea_rsl0-rcl44-esl29-rsm0-rcm11-esm29-rsr0-rcr2-esr29.exr,ReadingArea_rsl0-rcl44-esl29-rsm0-rcm11-esm29-rsr0-rcr2-esr29.npz,,,,,0,107,107,343,,right,red,4.43,687.6306991577148,688.1064109802246,,,2,,2,9,brightness,readingArea,realistic,75,2023-03-31_09h59.04.246,tripletExp_regina_11082022,2022.2.4,120.23299545934044,
1,5,13,0,0.111111111111111,0.298245614035088,0,1.0,0.298245614035088,0,0.111111111111111,3.10526315789474,ReadingArea_rsl0-rcl11-esl29-rsm0-rcm100-esm29-rsr0-rcr11-esr310,exr/ReadingArea_rsl0-rcl11-esl29-rsm0-rcm100-esm29-rsr0-rcr11-esr310.exr,ReadingArea_rsl0-rcl11-esl29-rsm0-rcm100-esm29-rsr0-rcr11-esr310.npz,,,,,0,108,108,598,,right,red,4.16,693.3328700065613,693.8566060066223,,,2,,2,9,brightness,readingArea,realistic,75,2023-03-31_09h59.04.246,tripletExp_regina_11082022,2022.2.4,120.23299545934044,
10,11,13,0,0.694444444444444,1.0,0,1.0,1.0,0,0.111111111111111,3.10526315789474,ReadingArea_rsl0-rcl69-esl100-rsm0-rcm100-esm100-rsr0-rcr11-esr310,exr/ReadingArea_rsl0-rcl69-esl100-rsm0-rcm100-esm100-rsr0-rcr11-esr310.exr,ReadingArea_rsl0-rcl69-esl100-rsm0-rcm100-esm100-rsr0-rcr11-esr310.npz,,,,,0,109,109,79,,left,green,4.37,699.0889270305634,699.5806879997253,,,2,,2,9,brightness,readingArea,realistic,75,2023-03-31_09h59.04.246,tripletExp_regina_11082022,2022.2.4,120.23299545934044,
3,12,14,0,0.444444444444444,0.298245614035088,0,0.027777777777778,3.10526315789474,0,0.25,3.10526315789474,ReadingArea_rsl0-rcl44-esl29-rsm0-rcm2-esm310-rsr0-rcr25-esr310,exr/ReadingArea_rsl0-rcl44-esl29-rsm0-rcm2-esm310-rsr0-rcr25-esr310.exr,ReadingArea_rsl0-rcl44-esl29-rsm0-rcm2-esm310-rsr0-rcr25-esr310.npz,,,,,0,110,110,16,,left,green,4.57,704.8195080757141,705.3008441925049,,,2,,2,9,brightness,readingArea,realistic,75,2023-03-31_09h59.04.246,tripletExp_regina_11082022,2022.2.4,120.23299545934044,
12,9,11,0,0.027777777777778,3.10526315789474,0,0.444444444444444,1.0,0,1.0,1.0,ReadingArea_rsl0-rcl2-esl310-rsm0-rcm44-esm100-rsr0-rcr100-esr100,exr/ReadingArea_rsl0-rcl2-esl310-rsm0-rcm44-esm100-rsr0-rcr100-esr100.exr,ReadingArea_rsl0-rcl2-esl310-rsm0-rcm44-esm100-rsr0-rcr100-esr100.npz,,,,,0,111,111,18,,left,green,2.86,708.7866740226746,709.262549161911,,,2,,2,9,brightness,readingArea,realistic,75,2023-03-31_09h59.04.246,tripletExp_regina_11082022,2022.2.4,120.23299545934044,
4,3,11,0,0.694444444444444,0.298245614035088,0,0.444444444444444,0.298245614035088,0,1.0,1.0,ReadingArea_rsl0-rcl69-esl29-rsm0-rcm44-esm29-rsr0-rcr100-esr100,exr/ReadingArea_rsl0-rcl69-esl29-rsm0-rcm44-esm29-rsr0-rcr100-esr100.exr,ReadingArea_rsl0-rcl69-esl29-rsm0-rcm44-esm29-rsr0-rcr100-esr100.npz,,,,,0,112,112,439,,left,green,4.49,714.5205950737,715.0006091594696,,,2,,2,9,brightness,readingArea,realistic,75,2023-03-31_09h59.04.246,tripletExp_regina_11082022,2022.2.4,120.23299545934044,
14,13,2,0,0.25,3.10526315789474,0,0.111111111111111,3.10526315789474,0,0.25,0.298245614035088,ReadingArea_rsl0-rcl25-esl310-rsm0-rcm11-esm310-rsr0-rcr25-esr29,exr/ReadingArea_rsl0-rcl25-esl310-rsm0-rcm11-esm310-rsr0-rcr25-esr29.exr,ReadingArea_rsl0-rcl25-esl310-rsm0-rcm11-esm310-rsr0-rcr25-esr29.npz,,,,,0,113,113,377,,right,red,4.55,720.2641060352325,720.8147850036621,,,2,,2,9,brightness,readingArea,realistic,75,2023-03-31_09h59.04.246,tripletExp_regina_11082022,2022.2.4,120.23299545934044,
0,8,7,0,0.027777777777778,0.298245614035088,0,0.25,1.0,0,0.111111111111111,1.0,ReadingArea_rsl0-rcl2-esl29-rsm0-rcm25-esm100-rsr0-rcr11-esr100,exr/ReadingArea_rsl0-rcl2-esl29-rsm0-rcm25-esm100-rsr0-rcr11-esr100.exr,ReadingArea_rsl0-rcl2-esl29-rsm0-rcm25-esm100-rsr0-rcr11-esr100.npz,,,,,0,114,114,9,,right,red,4.16,726.0522241592407,726.6124911308289,,,2,,2,9,brightness,readingArea,realistic,75,2023-03-31_09h59.04.246,tripletExp_regina_11082022,2022.2.4,120.23299545934044,
9,3,8,0,0.444444444444444,1.0,0,0.444444444444444,0.298245614035088,0,0.25,1.0,ReadingArea_rsl0-rcl44-esl100-rsm0-rcm44-esm29-rsr0-rcr25-esr100,exr/ReadingArea_rsl0-rcl44-esl100-rsm0-rcm44-esm29-rsr0-rcr25-esr100.exr,ReadingArea_rsl0-rcl44-esl100-rsm0-rcm44-esm29-rsr0-rcr25-esr100.npz,,,,,0,115,115,530,,right,red,4.23,731.8650271892548,732.4642460346222,,,2,,2,9,brightness,readingArea,realistic,75,2023-03-31_09h59.04.246,tripletExp_regina_11082022,2022.2.4,120.23299545934044,
14,0,6,0,0.25,3.10526315789474,0,0.027777777777778,0.298245614035088,0,0.027777777777778,1.0,ReadingArea_rsl0-rcl25-esl310-rsm0-rcm2-esm29-rsr0-rcr2-esr100,exr/ReadingArea_rsl0-rcl25-esl310-rsm0-rcm2-esm29-rsr0-rcr2-esr100.exr,ReadingArea_rsl0-rcl25-esl310-rsm0-rcm2-esm29-rsr0-rcr2-esr100.npz,,,,,0,116,116,496,,right,red,4.32,737.6861701011658,738.3801400661469,,,2,,2,9,brightness,readingArea,realistic,75,2023-03-31_09h59.04.246,tripletExp_regina_11082022,2022.2.4,120.23299545934044,
7,14,3,0,0.111111111111111,1.0,0,0.25,3.10526315789474,0,0.444444444444444,0.298245614035088,ReadingArea_rsl0-rcl11-esl100-rsm0-rcm25-esm310-rsr0-rcr44-esr29,exr/ReadingArea_rsl0-rcl11-esl100-rsm0-rcm25-esm310-rsr0-rcr44-esr29.exr,ReadingArea_rsl0-rcl11-esl100-rsm0-rcm25-esm310-rsr0-rcr44-esr29.npz,,,,,0,117,117,103,,right,red,4.37,743.6120760440826,744.0882480144501,,,2,,2,9,brightness,readingArea,realistic,75,2023-03-31_09h59.04.246,tripletExp_regina_11082022,2022.2.4,120.23299545934044,
12,14,4,0,0.027777777777778,3.10526315789474,0,0.25,3.10526315789474,0,0.694444444444444,0.298245614035088,ReadingArea_rsl0-rcl2-esl310-rsm0-rcm25-esm310-rsr0-rcr69-esr29,exr/ReadingArea_rsl0-rcl2-esl310-rsm0-rcm25-esm310-rsr0-rcr69-esr29.exr,ReadingArea_rsl0-rcl2-esl310-rsm0-rcm25-esm310-rsr0-rcr69-esr29.npz,,,,,0,118,118,315,,right,red,4.18,749.3234341144562,749.8432881832123,,,2,,2,9,brightness,readingArea,realistic,75,2023-03-31_09h59.04.246,tripletExp_regina_11082022,2022.2.4,120.23299545934044,
10,7,4,0,0.694444444444444,1.0,0,0.111111111111111,1.0,0,0.694444444444444,0.298245614035088,ReadingArea_rsl0-rcl69-esl100-rsm0-rcm11-esm100-rsr0-rcr69-esr29,exr/ReadingArea_rsl0-rcl69-esl100-rsm0-rcm11-esm100-rsr0-rcr69-esr29.exr,ReadingArea_rsl0-rcl69-esl100-rsm0-rcm11-esm100-rsr0-rcr69-esr29.npz,,,,,0,119,119,223,,right,red,4.05,755.0702240467072,,,,2,,2,9,brightness,readingArea,realistic,75,2023-03-31_09h59.04.246,tripletExp_regina_11082022,2022.2.4,120.23299545934044,
2,1,3,0,0.25,0.298245614035088,0,0.111111111111111,0.298245614035088,0,0.444444444444444,0.298245614035088,ReadingArea_rsl0-rcl25-esl29-rsm0-rcm11-esm29-rsr0-rcr44-esr29,exr/ReadingArea_rsl0-rcl25-esl29-rsm0-rcm11-esm29-rsr0-rcr44-esr29.exr,ReadingArea_rsl0-rcl25-esl29-rsm0-rcm11-esm29-rsr0-rcr44-esr29.npz,,,,,0,120,120,85,,left,green,4.1,760.908940076828,761.4367060661316,,,2,,2,9,brightness,readingArea,realistic,75,2023-03-31_09h59.04.246,tripletExp_regina_11082022,2022.2.4,120.23299545934044,
13,3,5,0,0.111111111111111,3.10526315789474,0,0.444444444444444,0.298245614035088,0,1.0,0.298245614035088,ReadingArea_rsl0-rcl11-esl310-rsm0-rcm44-esm29-rsr0-rcr100-esr29,exr/ReadingArea_rsl0-rcl11-esl310-rsm0-rcm44-esm29-rsr0-rcr100-esr29.exr,ReadingArea_rsl0-rcl11-esl310-rsm0-rcm44-esm29-rsr0-rcr100-esr29.npz,,,,,0,121,121,398,,left,green,4.38,766.6519620418549,767.1273620128632,,,2,,2,9,brightness,readingArea,realistic,75,2023-03-31_09h59.04.246,tripletExp_regina_11082022,2022.2.4,120.23299545934044,
10,3,14,0,0.694444444444444,1.0,0,0.444444444444444,0.298245614035088,0,0.25,3.10526315789474,ReadingArea_rsl0-rcl69-esl100-rsm0-rcm44-esm29-rsr0-rcr25-esr310,exr/ReadingArea_rsl0-rcl69-esl100-rsm0-rcm44-esm29-rsr0-rcr25-esr310.exr,ReadingArea_rsl0-rcl69-esl100-rsm0-rcm44-esm29-rsr0-rcr25-esr310.npz,,,,,0,122,122,597,,left,green,4.22,772.3618030548096,773.1655740737915,,,2,,2,9,brightness,readingArea,realistic,75,2023-03-31_09h59.04.246,tripletExp_regina_11082022,2022.2.4,120.23299545934044,
10,7,8,0,0.694444444444444,1.0,0,0.111111111111111,1.0,0,0.25,1.0,ReadingArea_rsl0-rcl69-esl100-rsm0-rcm11-esm100-rsr0-rcr25-esr100,exr/ReadingArea_rsl0-rcl69-esl100-rsm0-rcm11-esm100-rsr0-rcr25-esr100.exr,ReadingArea_rsl0-rcl69-esl100-rsm0-rcm11-esm100-rsr0-rcr25-esr100.npz,,,,,0,123,123,57,,right,red,2.75,776.6244471073151,777.138571023941,,,2,,2,9,brightness,readingArea,realistic,75,2023-03-31_09h59.04.246,tripletExp_regina_11082022,2022.2.4,120.23299545934044,
10,5,1,0,0.694444444444444,1.0,0,1.0,0.298245614035088,0,0.111111111111111,0.298245614035088,ReadingArea_rsl0-rcl69-esl100-rsm0-rcm100-esm29-rsr0-rcr11-esr29,exr/ReadingArea_rsl0-rcl69-esl100-rsm0-rcm100-esm29-rsr0-rcr11-esr29.exr,ReadingArea_rsl0-rcl69-esl100-rsm0-rcm100-esm29-rsr0-rcr11-esr29.npz,,,,,0,124,124,152,,left,green,4.39,782.3621780872345,782.8479061126709,,,2,,2,9,brightness,readingArea,realistic,75,2023-03-31_09h59.04.246,tripletExp_regina_11082022,2022.2.4,120.23299545934044,
12,3,11,0,0.027777777777778,3.10526315789474,0,0.444444444444444,0.298245614035088,0,1.0,1.0,ReadingArea_rsl0-rcl2-esl310-rsm0-rcm44-esm29-rsr0-rcr100-esr100,exr/ReadingArea_rsl0-rcl2-esl310-rsm0-rcm44-esm29-rsr0-rcr100-esr100.exr,ReadingArea_rsl0-rcl2-esl310-rsm0-rcm44-esm29-rsr0-rcr100-esr100.npz,,,,,0,125,125,83,,left,green,2.45,786.323578119278,786.8066320419312,,,2,,2,9,brightness,readingArea,realistic,75,2023-03-31_09h59.04.246,tripletExp_regina_11082022,2022.2.4,120.23299545934044,
5,0,11,0,1.0,0.298245614035088,0,0.027777777777778,0.298245614035088,0,1.0,1.0,ReadingArea_rsl0-rcl100-esl29-rsm0-rcm2-esm29-rsr0-rcr100-esr100,exr/ReadingArea_rsl0-rcl100-esl29-rsm0-rcm2-esm29-rsr0-rcr100-esr100.exr,ReadingArea_rsl0-rcl100-esl29-rsm0-rcm2-esm29-rsr0-rcr100-esr100.npz,,,,,0,126,126,547,,left,green,4.37,792.0591921806335,,,,2,,2,9,brightness,readingArea,realistic,75,2023-03-31_09h59.04.246,tripletExp_regina_11082022,2022.2.4,120.23299545934044,
4,5,8,0,0.694444444444444,0.298245614035088,0,1.0,0.298245614035088,0,0.25,1.0,ReadingArea_rsl0-rcl69-esl29-rsm0-rcm100-esm29-rsr0-rcr25-esr100,exr/ReadingArea_rsl0-rcl69-esl29-rsm0-rcm100-esm29-rsr0-rcr25-esr100.exr,ReadingArea_rsl0-rcl69-esl29-rsm0-rcm100-esm29-rsr0-rcr25-esr100.npz,,,,,0,127,127,54,,left,green,4.11,797.8028430938721,798.2930331230164,,,2,,2,9,brightness,readingArea,realistic,75,2023-03-31_09h59.04.246,tripletExp_regina_11082022,2022.2.4,120.23299545934044,
9,13,5,0,0.444444444444444,1.0,0,0.111111111111111,3.10526315789474,0,1.0,0.298245614035088,ReadingArea_rsl0-rcl44-esl100-rsm0-rcm11-esm310-rsr0-rcr100-esr29,exr/ReadingArea_rsl0-rcl44-esl100-rsm0-rcm11-esm310-rsr0-rcr100-esr29.exr,ReadingArea_rsl0-rcl44-esl100-rsm0-rcm11-esm310-rsr0-rcr100-esr29.npz,,,,,0,128,128,349,,left,green,4.05,803.5448851585388,804.2178649902344,,,2,,2,9,brightness,readingArea,realistic,75,2023-03-31_09h59.04.246,tripletExp_regina_11082022,2022.2.4,120.23299545934044,
2,14,1,0,0.25,0.298245614035088,0,0.25,3.10526315789474,0,0.111111111111111,0.298245614035088,ReadingArea_rsl0-rcl25-esl29-rsm0-rcm25-esm310-rsr0-rcr11-esr29,exr/ReadingArea_rsl0-rcl25-esl29-rsm0-rcm25-esm310-rsr0-rcr11-esr29.exr,ReadingArea_rsl0-rcl25-esl29-rsm0-rcm25-esm310-rsr0-rcr11-esr29.npz,,,,,0,129,129,579,,left,green,4.68,809.4611701965332,809.9471302032471,,,2,,2,9,brightness,readingArea,realistic,75,2023-03-31_09h59.04.246,tripletExp_regina_11082022,2022.2.4,120.23299545934044,
6,0,11,0,0.027777777777778,1.0,0,0.027777777777778,0.298245614035088,0,1.0,1.0,ReadingArea_rsl0-rcl2-esl100-rsm0-rcm2-esm29-rsr0-rcr100-esr100,exr/ReadingArea_rsl0-rcl2-esl100-rsm0-rcm2-esm29-rsr0-rcr100-esr100.exr,ReadingArea_rsl0-rcl2-esl100-rsm0-rcm2-esm29-rsr0-rcr100-esr100.npz,,,,,0,130,130,245,,left,green,2.8,813.4002501964569,813.8740010261536,,,2,,2,9,brightness,readingArea,realistic,75,2023-03-31_09h59.04.246,tripletExp_regina_11082022,2022.2.4,120.23299545934044,
13,12,5,0,0.111111111111111,3.10526315789474,0,0.027777777777778,3.10526315789474,0,1.0,0.298245614035088,ReadingArea_rsl0-rcl11-esl310-rsm0-rcm2-esm310-rsr0-rcr100-esr29,exr/ReadingArea_rsl0-rcl11-esl310-rsm0-rcm2-esm310-rsr0-rcr100-esr29.exr,ReadingArea_rsl0-rcl11-esl310-rsm0-rcm2-esm310-rsr0-rcr100-esr29.npz,,,,,0,131,131,294,,left,green,3.99,819.0795521736145,819.6501231193542,,,2,,2,9,brightness,readingArea,realistic,75,2023-03-31_09h59.04.246,tripletExp_regina_11082022,2022.2.4,120.23299545934044,
9,7,2,0,0.444444444444444,1.0,0,0.111111111111111,1.0,0,0.25,0.298245614035088,ReadingArea_rsl0-rcl44-esl100-rsm0-rcm11-esm100-rsr0-rcr25-esr29,exr/ReadingArea_rsl0-rcl44-esl100-rsm0-rcm11-esm100-rsr0-rcr25-esr29.exr,ReadingArea_rsl0-rcl44-esl100-rsm0-rcm11-esm100-rsr0-rcr25-esr29.npz,,,,,0,132,132,428,,right,red,4.02,824.8727171421051,,,,2,,2,9,brightness,readingArea,realistic,75,2023-03-31_09h59.04.246,tripletExp_regina_11082022,2022.2.4,120.23299545934044,
1,8,12,0,0.111111111111111,0.298245614035088,0,0.25,1.0,0,0.027777777777778,3.10526315789474,ReadingArea_rsl0-rcl11-esl29-rsm0-rcm25-esm100-rsr0-rcr2-esr310,exr/ReadingArea_rsl0-rcl11-esl29-rsm0-rcm25-esm100-rsr0-rcr2-esr310.exr,ReadingArea_rsl0-rcl11-esl29-rsm0-rcm25-esm100-rsr0-rcr2-esr310.npz,,,,,0,133,133,156,,right,red,4.2,830.6063041687012,831.0892441272736,,,2,,2,9,brightness,readingArea,realistic,75,2023-03-31_09h59.04.246,tripletExp_regina_11082022,2022.2.4,120.23299545934044,
0,10,12,0,0.027777777777778,0.298245614035088,0,0.694444444444444,1.0,0,0.027777777777778,3.10526315789474,ReadingArea_rsl0-rcl2-esl29-rsm0-rcm69-esm100-rsr0-rcr2-esr310,exr/ReadingArea_rsl0-rcl2-esl29-rsm0-rcm69-esm100-rsr0-rcr2-esr310.exr,ReadingArea_rsl0-rcl2-esl29-rsm0-rcm69-esm100-rsr0-rcr2-esr310.npz,,,,,0,134,134,531,,right,red,3.34,834.5514030456543,835.0467510223389,,,2,,2,9,brightness,readingArea,realistic,75,2023-03-31_09h59.04.246,tripletExp_regina_11082022,2022.2.4,120.23299545934044,
3,12,6,0,0.444444444444444,0.298245614035088,0,0.027777777777778,3.10526315789474,0,0.027777777777778,1.0,ReadingArea_rsl0-rcl44-esl29-rsm0-rcm2-esm310-rsr0-rcr2-esr100,exr/ReadingArea_rsl0-rcl44-esl29-rsm0-rcm2-esm310-rsr0-rcr2-esr100.exr,ReadingArea_rsl0-rcl44-esl29-rsm0-rcm2-esm310-rsr0-rcr2-esr100.npz,,,,,0,135,135,353,,right,red,4.17,840.2702190876007,840.8892121315002,,,2,,2,9,brightness,readingArea,realistic,75,2023-03-31_09h59.04.246,tripletExp_regina_11082022,2022.2.4,120.23299545934044,
7,4,6,0,0.111111111111111,1.0,0,0.694444444444444,0.298245614035088,0,0.027777777777778,1.0,ReadingArea_rsl0-rcl11-esl100-rsm0-rcm69-esm29-rsr0-rcr2-esr100,exr/ReadingArea_rsl0-rcl11-esl100-rsm0-rcm69-esm29-rsr0-rcr2-esr100.exr,ReadingArea_rsl0-rcl11-esl100-rsm0-rcm69-esm29-rsr0-rcr2-esr100.npz,,,,,0,136,136,528,,left,green,4.36,846.1067349910736,846.5873730182648,,,2,,2,9,brightness,readingArea,realistic,75,2023-03-31_09h59.04.246,tripletExp_regina_11082022,2022.2.4,120.23299545934044,
14,13,0,0,0.25,3.10526315789474,0,0.111111111111111,3.10526315789474,0,0.027777777777778,0.298245614035088,ReadingArea_rsl0-rcl25-esl310-rsm0-rcm11-esm310-rsr0-rcr2-esr29,exr/ReadingArea_rsl0-rcl25-esl310-rsm0-rcm11-esm310-rsr0-rcr2-esr29.exr,ReadingArea_rsl0-rcl25-esl310-rsm0-rcm11-esm310-rsr0-rcr2-esr29.npz,,,,,0,137,137,417,,left,green,4.17,851.8052701950073,852.2920160293579,,,2,,2,9,brightness,readingArea,realistic,75,2023-03-31_09h59.04.246,tripletExp_regina_11082022,2022.2.4,120.23299545934044,
7,14,5,0,0.111111111111111,1.0,0,0.25,3.10526315789474,0,1.0,0.298245614035088,ReadingArea_rsl0-rcl11-esl100-rsm0-rcm25-esm310-rsr0-rcr100-esr29,exr/ReadingArea_rsl0-rcl11-esl100-rsm0-rcm25-esm310-rsr0-rcr100-esr29.exr,ReadingArea_rsl0-rcl11-esl100-rsm0-rcm25-esm310-rsr0-rcr100-esr29.npz,,,,,0,138,138,372,,right,red,4.31,857.5121941566467,858.0259201526642,,,2,,2,9,brightness,readingArea,realistic,75,2023-03-31_09h59.04.246,tripletExp_regina_11082022,2022.2.4,120.23299545934044,
11,12,10,0,1.0,1.0,0,0.027777777777778,3.10526315789474,0,0.694444444444444,1.0,ReadingArea_rsl0-rcl100-esl100-rsm0-rcm2-esm310-rsr0-rcr69-esr100,exr/ReadingArea_rsl0-rcl100-esl100-rsm0-rcm2-esm310-rsr0-rcr69-esr100.exr,ReadingArea_rsl0-rcl100-esl100-rsm0-rcm2-esm310-rsr0-rcr69-esr100.npz,,,,,0,139,139,465,,right,red,4.22,863.2913911342621,863.7655310630798,,,2,,2,9,brightness,readingArea,realistic,75,2023-03-31_09h59.04.246,tripletExp_regina_11082022,2022.2.4,120.23299545934044,
14,6,2,0,0.25,3.10526315789474,0,0.027777777777778,1.0,0,0.25,0.298245614035088,ReadingArea_rsl0-rcl25-esl310-rsm0-rcm2-esm100-rsr0-rcr25-esr29,exr/ReadingArea_rsl0-rcl25-esl310-rsm0-rcm2-esm100-rsr0-rcr25-esr29.exr,ReadingArea_rsl0-rcl25-esl310-rsm0-rcm2-esm100-rsr0-rcr25-esr29.npz,,,,,0,140,140,272,,right,red,4.3,869.0236210823059,869.5066871643066,,,2,,2,9,brightness,readingArea,realistic,75,2023-03-31_09h59.04.246,tripletExp_regina_11082022,2022.2.4,120.23299545934044,
1,14,6,0,0.111111111111111,0.298245614035088,0,0.25,3.10526315789474,0,0.027777777777778,1.0,ReadingArea_rsl0-rcl11-esl29-rsm0-rcm25-esm310-rsr0-rcr2-esr100,exr/ReadingArea_rsl0-rcl11-esl29-rsm0-rcm25-esm310-rsr0-rcr2-esr100.exr,ReadingArea_rsl0-rcl11-esl29-rsm0-rcm25-esm310-rsr0-rcr2-esr100.npz,,,,,0,141,141,475,,left,green,4.47,874.729367017746,875.2321650981903,,,2,,2,9,brightness,readingArea,realistic,75,2023-03-31_09h59.04.246,tripletExp_regina_11082022,2022.2.4,120.23299545934044,
7,9,3,0,0.111111111111111,1.0,0,0.444444444444444,1.0,0,0.444444444444444,0.298245614035088,ReadingArea_rsl0-rcl11-esl100-rsm0-rcm44-esm100-rsr0-rcr44-esr29,exr/ReadingArea_rsl0-rcl11-esl100-rsm0-rcm44-esm100-rsr0-rcr44-esr29.exr,ReadingArea_rsl0-rcl11-esl100-rsm0-rcm44-esm100-rsr0-rcr44-esr29.npz,,,,,0,142,142,311,,right,red,4.66,880.4528291225433,880.9303760528564,,,2,,2,9,brightness,readingArea,realistic,75,2023-03-31_09h59.04.246,tripletExp_regina_11082022,2022.2.4,120.23299545934044,
12,11,13,0,0.027777777777778,3.10526315789474,0,1.0,1.0,0,0.111111111111111,3.10526315789474,ReadingArea_rsl0-rcl2-esl310-rsm0-rcm100-esm100-rsr0-rcr11-esr310,exr/ReadingArea_rsl0-rcl2-esl310-rsm0-rcm100-esm100-rsr0-rcr11-esr310.exr,ReadingArea_rsl0-rcl2-esl310-rsm0-rcm100-esm100-rsr0-rcr11-esr310.npz,,,,,0,143,143,151,,right,red,2.87,884.4178531169891,884.9840760231018,,,2,,2,9,brightness,readingArea,realistic,75,2023-03-31_09h59.04.246,tripletExp_regina_11082022,2022.2.4,120.23299545934044,
2,1,10,0,0.25,0.298245614035088,0,0.111111111111111,0.298245614035088,0,0.694444444444444,1.0,ReadingArea_rsl0-rcl25-esl29-rsm0-rcm11-esm29-rsr0-rcr69-esr100,exr/ReadingArea_rsl0-rcl25-esl29-rsm0-rcm11-esm29-rsr0-rcr69-esr100.exr,ReadingArea_rsl0-rcl25-esl29-rsm0-rcm11-esm29-rsr0-rcr69-esr100.npz,,,,,0,144,144,585,,left,green,3.02,888.454763174057,888.9449701309204,,,2,,2,9,brightness,readingArea,realistic,75,2023-03-31_09h59.04.246,tripletExp_regina_11082022,2022.2.4,120.23299545934044,
3,12,4,0,0.444444444444444,0.298245614035088,0,0.027777777777778,3.10526315789474,0,0.694444444444444,0.298245614035088,ReadingArea_rsl0-rcl44-esl29-rsm0-rcm2-esm310-rsr0-rcr69-esr29,exr/ReadingArea_rsl0-rcl44-esl29-rsm0-rcm2-esm310-rsr0-rcr69-esr29.exr,ReadingArea_rsl0-rcl44-esl29-rsm0-rcm2-esm310-rsr0-rcr69-esr29.npz,,,,,0,145,145,426,,left,green,4.17,894.1603691577911,894.6442401409149,,,2,,2,9,brightness,readingArea,realistic,75,2023-03-31_09h59.04.246,tripletExp_regina_11082022,2022.2.4,120.23299545934044,
5,1,13,0,1.0,0.298245614035088,0,0.111111111111111,0.298245614035088,0,0.111111111111111,3.10526315789474,ReadingArea_rsl0-rcl100-esl29-rsm0-rcm11-esm29-rsr0-rcr11-esr310,exr/ReadingArea_rsl0-rcl100-esl29-rsm0-rcm11-esm29-rsr0-rcr11-esr310.exr,ReadingArea_rsl0-rcl100-esl29-rsm0-rcm11-esm29-rsr0-rcr11-esr310.npz,,,,,0,146,146,594,,right,red,4.26,899.8867959976196,900.3830041885376,,,2,,2,9,brightness,readingArea,realistic,75,2023-03-31_09h59.04.246,tripletExp_regina_11082022,2022.2.4,120.23299545934044,
9,2,12,0,0.444444444444444,1.0,0,0.25,0.298245614035088,0,0.027777777777778,3.10526315789474,ReadingArea_rsl0-rcl44-esl100-rsm0-rcm25-esm29-rsr0-rcr2-esr310,exr/ReadingArea_rsl0-rcl44-esl100-rsm0-rcm25-esm29-rsr0-rcr2-esr310.exr,ReadingArea_rsl0-rcl44-esl100-rsm0-rcm25-esm29-rsr0-rcr2-esr310.npz,,,,,0,147,147,391,,right,red,2.68,903.8714010715483,904.3707292079926,,,2,,2,9,brightness,readingArea,realistic,75,2023-03-31_09h59.04.246,tripletExp_regina_11082022,2022.2.4,120.23299545934044,
11,7,9,0,1.0,1.0,0,0.111111111111111,1.0,0,0.444444444444444,1.0,ReadingArea_rsl0-rcl100-esl100-rsm0-rcm11-esm100-rsr0-rcr44-esr100,exr/ReadingArea_rsl0-rcl100-esl100-rsm0-rcm11-esm100-rsr0-rcr44-esr100.exr,ReadingArea_rsl0-rcl100-esl100-rsm0-rcm11-esm100-rsr0-rcr44-esr100.npz,,,,,0,148,148,521,,right,red,4.19,909.5996310710908,910.1174461841584,,,2,,2,9,brightness,readingArea,realistic,75,2023-03-31_09h59.04.246,tripletExp_regina_11082022,2022.2.4,120.23299545934044,
9,13,0,0,0.444444444444444,1.0,0,0.111111111111111,3.10526315789474,0,0.027777777777778,0.298245614035088,ReadingArea_rsl0-rcl44-esl100-rsm0-rcm11-esm310-rsr0-rcr2-esr29,exr/ReadingArea_rsl0-rcl44-esl100-rsm0-rcm11-esm310-rsr0-rcr2-esr29.exr,ReadingArea_rsl0-rcl44-esl100-rsm0-rcm11-esm310-rsr0-rcr2-esr29.npz,,,,,0,149,149,205,,left,green,4.48,915.3718390464784,915.5774781703948,,,2,,2,9,brightness,readingArea,realistic,75,2023-03-31_09h59.04.246,tripletExp_regina_11082022,2022.2.4,120.23299545934044,
2,11,14,0,0.25,0.298245614035088,0,1.0,1.0,0,0.25,3.10526315789474,ReadingArea_rsl0-rcl25-esl29-rsm0-rcm100-esm100-rsr0-rcr25-esr310,exr/ReadingArea_rsl0-rcl25-esl29-rsm0-rcm100-esm100-rsr0-rcr25-esr310.exr,ReadingArea_rsl0-rcl25-esl29-rsm0-rcm100-esm100-rsr0-rcr25-esr310.npz,,,,,0,150,150,534,,right,red,2.17,940.4064161777496,940.863515138626,,,3,,2,9,brightness,readingArea,realistic,75,2023-03-31_09h59.04.246,tripletExp_regina_11082022,2022.2.4,120.23299545934044,
13,0,4,0,0.111111111111111,3.10526315789474,0,0.027777777777778,0.298245614035088,0,0.694444444444444,0.298245614035088,ReadingArea_rsl0-rcl11-esl310-rsm0-rcm2-esm29-rsr0-rcr69-esr29,exr/ReadingArea_rsl0-rcl11-esl310-rsm0-rcm2-esm29-rsr0-rcr69-esr29.exr,ReadingArea_rsl0-rcl11-esl310-rsm0-rcm2-esm29-rsr0-rcr69-esr29.npz,,,,,0,151,151,270,,right,red,3.14,944.328722000122,944.8064811229706,,,3,,2,9,brightness,readingArea,realistic,75,2023-03-31_09h59.04.246,tripletExp_regina_11082022,2022.2.4,120.23299545934044,
6,7,3,0,0.027777777777778,1.0,0,0.111111111111111,1.0,0,0.444444444444444,0.298245614035088,ReadingArea_rsl0-rcl2-esl100-rsm0-rcm11-esm100-rsr0-rcr44-esr29,exr/ReadingArea_rsl0-rcl2-esl100-rsm0-rcm11-esm100-rsr0-rcr44-esr29.exr,ReadingArea_rsl0-rcl2-esl100-rsm0-rcm11-esm100-rsr0-rcr44-esr29.npz,,,,,0,152,152,47,,right,red,1.44,946.5029761791228,946.9618601799012,,,3,,2,9,brightness,readingArea,realistic,75,2023-03-31_09h59.04.246,tripletExp_regina_11082022,2022.2.4,120.23299545934044,
2,13,3,0,0.25,0.298245614035088,0,0.111111111111111,3.10526315789474,0,0.444444444444444,0.298245614035088,ReadingArea_rsl0-rcl25-esl29-rsm0-rcm11-esm310-rsr0-rcr44-esr29,exr/ReadingArea_rsl0-rcl25-esl29-rsm0-rcm11-esm310-rsr0-rcr44-esr29.exr,ReadingArea_rsl0-rcl25-esl29-rsm0-rcm11-esm310-rsr0-rcr44-esr29.npz,,,,,0,153,153,473,,right,red,4.42,952.1855280399324,952.6764659881592,,,3,,2,9,brightness,readingArea,realistic,75,2023-03-31_09h59.04.246,tripletExp_regina_11082022,2022.2.4,120.23299545934044,
5,9,10,0,1.0,0.298245614035088,0,0.444444444444444,1.0,0,0.694444444444444,1.0,ReadingArea_rsl0-rcl100-esl29-rsm0-rcm44-esm100-rsr0-rcr69-esr100,exr/ReadingArea_rsl0-rcl100-esl29-rsm0-rcm44-esm100-rsr0-rcr69-esr100.exr,ReadingArea_rsl0-rcl100-esl29-rsm0-rcm44-esm100-rsr0-rcr69-esr100.npz,,,,,0,154,154,322,,left,green,4.15,957.8879501819612,958.4736380577089,,,3,,2,9,brightness,readingArea,realistic,75,2023-03-31_09h59.04.246,tripletExp_regina_11082022,2022.2.4,120.23299545934044,
1,2,12,0,0.111111111111111,0.298245614035088,0,0.25,0.298245614035088,0,0.027777777777778,3.10526315789474,ReadingArea_rsl0-rcl11-esl29-rsm0-rcm25-esm29-rsr0-rcr2-esr310,exr/ReadingArea_rsl0-rcl11-esl29-rsm0-rcm25-esm29-rsr0-rcr2-esr310.exr,ReadingArea_rsl0-rcl11-esl29-rsm0-rcm25-esm29-rsr0-rcr2-esr310.npz,,,,,0,155,155,229,,right,red,4.7,963.6984121799468,964.1925830841064,,,3,,2,9,brightness,readingArea,realistic,75,2023-03-31_09h59.04.246,tripletExp_regina_11082022,2022.2.4,120.23299545934044,
0,7,9,0,0.027777777777778,0.298245614035088,0,0.111111111111111,1.0,0,0.444444444444444,1.0,ReadingArea_rsl0-rcl2-esl29-rsm0-rcm11-esm100-rsr0-rcr44-esr100,exr/ReadingArea_rsl0-rcl2-esl29-rsm0-rcm11-esm100-rsr0-rcr44-esr100.exr,ReadingArea_rsl0-rcl2-esl29-rsm0-rcm11-esm100-rsr0-rcr44-esr100.npz,,,,,0,156,156,463,,right,red,4.61,969.4187800884248,970.0945670604706,,,3,,2,9,brightness,readingArea,realistic,75,2023-03-31_09h59.04.246,tripletExp_regina_11082022,2022.2.4,120.23299545934044,
13,6,1,0,0.111111111111111,3.10526315789474,0,0.027777777777778,1.0,0,0.111111111111111,0.298245614035088,ReadingArea_rsl0-rcl11-esl310-rsm0-rcm2-esm100-rsr0-rcr11-esr29,exr/ReadingArea_rsl0-rcl11-esl310-rsm0-rcm2-esm100-rsr0-rcr11-esr29.exr,ReadingArea_rsl0-rcl11-esl310-rsm0-rcm2-esm100-rsr0-rcr11-esr29.npz,,,,,0,157,157,486,,right,red,4.67,975.3078479766846,975.898677110672,,,3,,2,9,brightness,readingArea,realistic,75,2023-03-31_09h59.04.246,tripletExp_regina_11082022,2022.2.4,120.23299545934044,
5,14,8,0,1.0,0.298245614035088,0,0.25,3.10526315789474,0,0.25,1.0,ReadingArea_rsl0-rcl100-esl29-rsm0-rcm25-esm310-rsr0-rcr25-esr100,exr/ReadingArea_rsl0-rcl100-esl29-rsm0-rcm25-esm310-rsr0-rcr25-esr100.exr,ReadingArea_rsl0-rcl100-esl29-rsm0-rcm25-esm310-rsr0-rcr25-esr100.npz,,,,,0,158,158,14,,left,green,4.24,981.1249392032624,981.6869239807128,,,3,,2,9,brightness,readingArea,realistic,75,2023-03-31_09h59.04.246,tripletExp_regina_11082022,2022.2.4,120.23299545934044,
4,3,10,0,0.694444444444444,0.298245614035088,0,0.444444444444444,0.298245614035088,0,0.694444444444444,1.0,ReadingArea_rsl0-rcl69-esl29-rsm0-rcm44-esm29-rsr0-rcr69-esr100,exr/ReadingArea_rsl0-rcl69-esl29-rsm0-rcm44-esm29-rsr0-rcr69-esr100.exr,ReadingArea_rsl0-rcl69-esl29-rsm0-rcm44-esm29-rsr0-rcr69-esr100.npz,,,,,0,159,159,371,,left,green,4.24,986.937618970871,987.4984440803528,,,3,,2,9,brightness,readingArea,realistic,75,2023-03-31_09h59.04.246,tripletExp_regina_11082022,2022.2.4,120.23299545934044,
7,14,11,0,0.111111111111111,1.0,0,0.25,3.10526315789474,0,1.0,1.0,ReadingArea_rsl0-rcl11-esl100-rsm0-rcm25-esm310-rsr0-rcr100-esr100,exr/ReadingArea_rsl0-rcl11-esl100-rsm0-rcm25-esm310-rsr0-rcr100-esr100.exr,ReadingArea_rsl0-rcl11-esl100-rsm0-rcm25-esm310-rsr0-rcr100-esr100.npz,,,,,0,160,160,252,,right,red,4.2,992.7186331748962,993.2036290168762,,,3,,2,9,brightness,readingArea,realistic,75,2023-03-31_09h59.04.246,tripletExp_regina_11082022,2022.2.4,120.23299545934044,
10,11,9,0,0.694444444444444,1.0,0,1.0,1.0,0,0.444444444444444,1.0,ReadingArea_rsl0-rcl69-esl100-rsm0-rcm100-esm100-rsr0-rcr44-esr100,exr/ReadingArea_rsl0-rcl69-esl100-rsm0-rcm100-esm100-rsr0-rcr44-esr100.exr,ReadingArea_rsl0-rcl69-esl100-rsm0-rcm100-esm100-rsr0-rcr44-esr100.npz,,,,,0,161,161,492,,left,green,2.61,996.6637170314788,997.152454137802,,,3,,2,9,brightness,readingArea,realistic,75,2023-03-31_09h59.04.246,tripletExp_regina_11082022,2022.2.4,120.23299545934044,
3,10,4,0,0.444444444444444,0.298245614035088,0,0.694444444444444,1.0,0,0.694444444444444,0.298245614035088,ReadingArea_rsl0-rcl44-esl29-rsm0-rcm69-esm100-rsr0-rcr69-esr29,exr/ReadingArea_rsl0-rcl44-esl29-rsm0-rcm69-esm100-rsr0-rcr69-esr29.exr,ReadingArea_rsl0-rcl44-esl29-rsm0-rcm69-esm100-rsr0-rcr69-esr29.npz,,,,,0,162,162,435,,right,red,4.46,1002.3976831436156,1002.9659521579742,,,3,,2,9,brightness,readingArea,realistic,75,2023-03-31_09h59.04.246,tripletExp_regina_11082022,2022.2.4,120.23299545934044,
10,12,11,0,0.694444444444444,1.0,0,0.027777777777778,3.10526315789474,0,1.0,1.0,ReadingArea_rsl0-rcl69-esl100-rsm0-rcm2-esm310-rsr0-rcr100-esr100,exr/ReadingArea_rsl0-rcl69-esl100-rsm0-rcm2-esm310-rsr0-rcr100-esr100.exr,ReadingArea_rsl0-rcl69-esl100-rsm0-rcm2-esm310-rsr0-rcr100-esr100.npz,,,,,0,163,163,317,,left,green,4.24,1008.2095391750336,1008.6905131340028,,,3,,2,9,brightness,readingArea,realistic,75,2023-03-31_09h59.04.246,tripletExp_regina_11082022,2022.2.4,120.23299545934044,
8,1,3,0,0.25,1.0,0,0.111111111111111,0.298245614035088,0,0.444444444444444,0.298245614035088,ReadingArea_rsl0-rcl25-esl100-rsm0-rcm11-esm29-rsr0-rcr44-esr29,exr/ReadingArea_rsl0-rcl25-esl100-rsm0-rcm11-esm29-rsr0-rcr44-esr29.exr,ReadingArea_rsl0-rcl25-esl100-rsm0-rcm11-esm29-rsr0-rcr44-esr29.npz,,,,,0,164,164,490,,right,red,4.39,1013.9283499717712,1014.5023880004884,,,3,,2,9,brightness,readingArea,realistic,75,2023-03-31_09h59.04.246,tripletExp_regina_11082022,2022.2.4,120.23299545934044,
10,4,13,0,0.694444444444444,1.0,0,0.694444444444444,0.298245614035088,0,0.111111111111111,3.10526315789474,ReadingArea_rsl0-rcl69-esl100-rsm0-rcm69-esm29-rsr0-rcr11-esr310,exr/ReadingArea_rsl0-rcl69-esl100-rsm0-rcm69-esm29-rsr0-rcr11-esr310.exr,ReadingArea_rsl0-rcl69-esl100-rsm0-rcm69-esm29-rsr0-rcr11-esr310.npz,,,,,0,165,165,24,,right,red,4.32,1019.7146801948549,1020.1968832015992,,,3,,2,9,brightness,readingArea,realistic,75,2023-03-31_09h59.04.246,tripletExp_regina_11082022,2022.2.4,120.23299545934044,
1,9,11,0,0.111111111111111,0.298245614035088,0,0.444444444444444,1.0,0,1.0,1.0,ReadingArea_rsl0-rcl11-esl29-rsm0-rcm44-esm100-rsr0-rcr100-esr100,exr/ReadingArea_rsl0-rcl11-esl29-rsm0-rcm44-esm100-rsr0-rcr100-esr100.exr,ReadingArea_rsl0-rcl11-esl29-rsm0-rcm44-esm100-rsr0-rcr100-esr100.npz,,,,,0,166,166,215,,left,green,4.01,1025.4447782039642,1026.0133590698242,,,3,,2,9,brightness,readingArea,realistic,75,2023-03-31_09h59.04.246,tripletExp_regina_11082022,2022.2.4,120.23299545934044,
4,11,12,0,0.694444444444444,0.298245614035088,0,1.0,1.0,0,0.027777777777778,3.10526315789474,ReadingArea_rsl0-rcl69-esl29-rsm0-rcm100-esm100-rsr0-rcr2-esr310,exr/ReadingArea_rsl0-rcl69-esl29-rsm0-rcm100-esm100-rsr0-rcr2-esr310.exr,ReadingArea_rsl0-rcl69-esl29-rsm0-rcm100-esm100-rsr0-rcr2-esr310.npz,,,,,0,167,167,109,,left,green,4.14,1031.235296010971,1031.7199761867523,,,3,,2,9,brightness,readingArea,realistic,75,2023-03-31_09h59.04.246,tripletExp_regina_11082022,2022.2.4,120.23299545934044,
4,12,7,0,0.694444444444444,0.298245614035088,0,0.027777777777778,3.10526315789474,0,0.111111111111111,1.0,ReadingArea_rsl0-rcl69-esl29-rsm0-rcm2-esm310-rsr0-rcr11-esr100,exr/ReadingArea_rsl0-rcl69-esl29-rsm0-rcm2-esm310-rsr0-rcr11-esr100.exr,ReadingArea_rsl0-rcl69-esl29-rsm0-rcm2-esm310-rsr0-rcr11-esr100.npz,,,,,0,168,168,112,,right,red,4.09,1036.9658200740814,1037.538979053497,,,3,,2,9,brightness,readingArea,realistic,75,2023-03-31_09h59.04.246,tripletExp_regina_11082022,2022.2.4,120.23299545934044,
14,2,8,0,0.25,3.10526315789474,0,0.25,0.298245614035088,0,0.25,1.0,ReadingArea_rsl0-rcl25-esl310-rsm0-rcm25-esm29-rsr0-rcr25-esr100,exr/ReadingArea_rsl0-rcl25-esl310-rsm0-rcm25-esm29-rsr0-rcr25-esr100.exr,ReadingArea_rsl0-rcl25-esl310-rsm0-rcm25-esm29-rsr0-rcr25-esr100.npz,,,,,0,169,169,212,,right,red,2.68,1041.0271651744845,1041.5057961940763,,,3,,2,9,brightness,readingArea,realistic,75,2023-03-31_09h59.04.246,tripletExp_regina_11082022,2022.2.4,120.23299545934044,
13,8,5,0,0.111111111111111,3.10526315789474,0,0.25,1.0,0,1.0,0.298245614035088,ReadingArea_rsl0-rcl11-esl310-rsm0-rcm25-esm100-rsr0-rcr100-esr29,exr/ReadingArea_rsl0-rcl11-esl310-rsm0-rcm25-esm100-rsr0-rcr100-esr29.exr,ReadingArea_rsl0-rcl11-esl310-rsm0-rcm25-esm100-rsr0-rcr100-esr29.npz,,,,,0,170,170,209,,left,green,4.03,1046.722655057907,1047.202516078949,,,3,,2,9,brightness,readingArea,realistic,75,2023-03-31_09h59.04.246,tripletExp_regina_11082022,2022.2.4,120.23299545934044,
6,0,4,0,0.027777777777778,1.0,0,0.027777777777778,0.298245614035088,0,0.694444444444444,0.298245614035088,ReadingArea_rsl0-rcl2-esl100-rsm0-rcm2-esm29-rsr0-rcr69-esr29,exr/ReadingArea_rsl0-rcl2-esl100-rsm0-rcm2-esm29-rsr0-rcr69-esr29.exr,ReadingArea_rsl0-rcl2-esl100-rsm0-rcm2-esm29-rsr0-rcr69-esr29.npz,,,,,0,171,171,555,,left,green,4.15,1052.4557330608368,1053.1206150054932,,,3,,2,9,brightness,readingArea,realistic,75,2023-03-31_09h59.04.246,tripletExp_regina_11082022,2022.2.4,120.23299545934044,
5,9,12,0,1.0,0.298245614035088,0,0.444444444444444,1.0,0,0.027777777777778,3.10526315789474,ReadingArea_rsl0-rcl100-esl29-rsm0-rcm44-esm100-rsr0-rcr2-esr310,exr/ReadingArea_rsl0-rcl100-esl29-rsm0-rcm44-esm100-rsr0-rcr2-esr310.exr,ReadingArea_rsl0-rcl100-esl29-rsm0-rcm44-esm100-rsr0-rcr2-esr310.npz,,,,,0,172,172,539,,left,green,4.44,1058.3559160232544,1058.8583500385284,,,3,,2,9,brightness,readingArea,realistic,75,2023-03-31_09h59.04.246,tripletExp_regina_11082022,2022.2.4,120.23299545934044,
7,5,11,0,0.111111111111111,1.0,0,1.0,0.298245614035088,0,1.0,1.0,ReadingArea_rsl0-rcl11-esl100-rsm0-rcm100-esm29-rsr0-rcr100-esr100,exr/ReadingArea_rsl0-rcl11-esl100-rsm0-rcm100-esm29-rsr0-rcr100-esr100.exr,ReadingArea_rsl0-rcl11-esl100-rsm0-rcm100-esm29-rsr0-rcr100-esr100.npz,,,,,0,173,173,10,,left,green,3.94,1064.084820985794,1064.663348197937,,,3,,2,9,brightness,readingArea,realistic,75,2023-03-31_09h59.04.246,tripletExp_regina_11082022,2022.2.4,120.23299545934044,
14,2,6,0,0.25,3.10526315789474,0,0.25,0.298245614035088,0,0.027777777777778,1.0,ReadingArea_rsl0-rcl25-esl310-rsm0-rcm25-esm29-rsr0-rcr2-esr100,exr/ReadingArea_rsl0-rcl25-esl310-rsm0-rcm25-esm29-rsr0-rcr2-esr100.exr,ReadingArea_rsl0-rcl25-esl310-rsm0-rcm25-esm29-rsr0-rcr2-esr100.npz,,,,,0,174,174,350,,right,red,4.13,1069.8689811229706,1070.354788064957,,,3,,2,9,brightness,readingArea,realistic,75,2023-03-31_09h59.04.246,tripletExp_regina_11082022,2022.2.4,120.23299545934044,
4,13,2,0,0.694444444444444,0.298245614035088,0,0.111111111111111,3.10526315789474,0,0.25,0.298245614035088,ReadingArea_rsl0-rcl69-esl29-rsm0-rcm11-esm310-rsr0-rcr25-esr29,exr/ReadingArea_rsl0-rcl69-esl29-rsm0-rcm11-esm310-rsr0-rcr25-esr29.exr,ReadingArea_rsl0-rcl69-esl29-rsm0-rcm11-esm310-rsr0-rcr25-esr29.npz,,,,,0,175,175,592,,left,green,3.24,1073.8457400798798,,,,3,,2,9,brightness,readingArea,realistic,75,2023-03-31_09h59.04.246,tripletExp_regina_11082022,2022.2.4,120.23299545934044,
5,8,7,0,1.0,0.298245614035088,0,0.25,1.0,0,0.111111111111111,1.0,ReadingArea_rsl0-rcl100-esl29-rsm0-rcm25-esm100-rsr0-rcr11-esr100,exr/ReadingArea_rsl0-rcl100-esl29-rsm0-rcm25-esm100-rsr0-rcr11-esr100.exr,ReadingArea_rsl0-rcl100-esl29-rsm0-rcm25-esm100-rsr0-rcr11-esr100.npz,,,,,0,176,176,36,,left,green,4.3,1079.5667440891266,1080.0491580963137,,,3,,2,9,brightness,readingArea,realistic,75,2023-03-31_09h59.04.246,tripletExp_regina_11082022,2022.2.4,120.23299545934044,
12,10,9,0,0.027777777777778,3.10526315789474,0,0.694444444444444,1.0,0,0.444444444444444,1.0,ReadingArea_rsl0-rcl2-esl310-rsm0-rcm69-esm100-rsr0-rcr44-esr100,exr/ReadingArea_rsl0-rcl2-esl310-rsm0-rcm69-esm100-rsr0-rcr44-esr100.exr,ReadingArea_rsl0-rcl2-esl310-rsm0-rcm69-esm100-rsr0-rcr44-esr100.npz,,,,,0,177,177,126,,right,red,4.08,1085.267827987671,1085.9685101509094,,,3,,2,9,brightness,readingArea,realistic,75,2023-03-31_09h59.04.246,tripletExp_regina_11082022,2022.2.4,120.23299545934044,
6,11,1,0,0.027777777777778,1.0,0,1.0,1.0,0,0.111111111111111,0.298245614035088,ReadingArea_rsl0-rcl2-esl100-rsm0-rcm100-esm100-rsr0-rcr11-esr29,exr/ReadingArea_rsl0-rcl2-esl100-rsm0-rcm100-esm100-rsr0-rcr11-esr29.exr,ReadingArea_rsl0-rcl2-esl100-rsm0-rcm100-esm100-rsr0-rcr11-esr29.npz,,,,,0,178,178,436,,right,red,4.45,1091.1774961948397,1091.69300198555,,,3,,2,9,brightness,readingArea,realistic,75,2023-03-31_09h59.04.246,tripletExp_regina_11082022,2022.2.4,120.23299545934044,
11,3,12,0,1.0,1.0,0,0.444444444444444,0.298245614035088,0,0.027777777777778,3.10526315789474,ReadingArea_rsl0-rcl100-esl100-rsm0-rcm44-esm29-rsr0-rcr2-esr310,exr/ReadingArea_rsl0-rcl100-esl100-rsm0-rcm44-esm29-rsr0-rcr2-esr310.exr,ReadingArea_rsl0-rcl100-esl100-rsm0-rcm44-esm29-rsr0-rcr2-esr310.npz,,,,,0,179,179,355,,right,red,2.86,1095.148432016373,,,,3,,2,9,brightness,readingArea,realistic,75,2023-03-31_09h59.04.246,tripletExp_regina_11082022,2022.2.4,120.23299545934044,
8,10,7,0,0.25,1.0,0,0.694444444444444,1.0,0,0.111111111111111,1.0,ReadingArea_rsl0-rcl25-esl100-rsm0-rcm69-esm100-rsr0-rcr11-esr100,exr/ReadingArea_rsl0-rcl25-esl100-rsm0-rcm69-esm100-rsr0-rcr11-esr100.exr,ReadingArea_rsl0-rcl25-esl100-rsm0-rcm69-esm100-rsr0-rcr11-esr100.npz,,,,,0,180,180,424,,left,green,2.77,1099.082633972168,,,,3,,2,9,brightness,readingArea,realistic,75,2023-03-31_09h59.04.246,tripletExp_regina_11082022,2022.2.4,120.23299545934044,
10,14,1,0,0.694444444444444,1.0,0,0.25,3.10526315789474,0,0.111111111111111,0.298245614035088,ReadingArea_rsl0-rcl69-esl100-rsm0-rcm25-esm310-rsr0-rcr11-esr29,exr/ReadingArea_rsl0-rcl69-esl100-rsm0-rcm25-esm310-rsr0-rcr11-esr29.exr,ReadingArea_rsl0-rcl69-esl100-rsm0-rcm25-esm310-rsr0-rcr11-esr29.npz,,,,,0,181,181,544,,left,green,2.48,1103.0412201881409,,,,3,,2,9,brightness,readingArea,realistic,75,2023-03-31_09h59.04.246,tripletExp_regina_11082022,2022.2.4,120.23299545934044,
9,4,14,0,0.444444444444444,1.0,0,0.694444444444444,0.298245614035088,0,0.25,3.10526315789474,ReadingArea_rsl0-rcl44-esl100-rsm0-rcm69-esm29-rsr0-rcr25-esr310,exr/ReadingArea_rsl0-rcl44-esl100-rsm0-rcm69-esm29-rsr0-rcr25-esr310.exr,ReadingArea_rsl0-rcl44-esl100-rsm0-rcm69-esm29-rsr0-rcr25-esr310.npz,,,,,0,182,182,104,,left,green,3.23,1106.9784371852877,1107.619026184082,,,3,,2,9,brightness,readingArea,realistic,75,2023-03-31_09h59.04.246,tripletExp_regina_11082022,2022.2.4,120.23299545934044,
13,0,9,0,0.111111111111111,3.10526315789474,0,0.027777777777778,0.298245614035088,0,0.444444444444444,1.0,ReadingArea_rsl0-rcl11-esl310-rsm0-rcm2-esm29-rsr0-rcr44-esr100,exr/ReadingArea_rsl0-rcl11-esl310-rsm0-rcm2-esm29-rsr0-rcr44-esr100.exr,ReadingArea_rsl0-rcl11-esl310-rsm0-rcm2-esm29-rsr0-rcr44-esr100.npz,,,,,0,183,183,373,,left,green,3.17,1111.09335398674,1111.586858034134,,,3,,2,9,brightness,readingArea,realistic,75,2023-03-31_09h59.04.246,tripletExp_regina_11082022,2022.2.4,120.23299545934044,
9,6,14,0,0.444444444444444,1.0,0,0.027777777777778,1.0,0,0.25,3.10526315789474,ReadingArea_rsl0-rcl44-esl100-rsm0-rcm2-esm100-rsr0-rcr25-esr310,exr/ReadingArea_rsl0-rcl44-esl100-rsm0-rcm2-esm100-rsr0-rcr25-esr310.exr,ReadingArea_rsl0-rcl44-esl100-rsm0-rcm2-esm100-rsr0-rcr25-esr310.npz,,,,,0,184,184,213,,left,green,3.0,1115.050043106079,1115.5238041877749,,,3,,2,9,brightness,readingArea,realistic,75,2023-03-31_09h59.04.246,tripletExp_regina_11082022,2022.2.4,120.23299545934044,
13,4,0,0,0.111111111111111,3.10526315789474,0,0.694444444444444,0.298245614035088,0,0.027777777777778,0.298245614035088,ReadingArea_rsl0-rcl11-esl310-rsm0-rcm69-esm29-rsr0-rcr2-esr29,exr/ReadingArea_rsl0-rcl11-esl310-rsm0-rcm69-esm29-rsr0-rcr2-esr29.exr,ReadingArea_rsl0-rcl11-esl310-rsm0-rcm69-esm29-rsr0-rcr2-esr29.npz,,,,,0,185,185,269,,left,green,4.13,1120.752093076706,1121.2345430850985,,,3,,2,9,brightness,readingArea,realistic,75,2023-03-31_09h59.04.246,tripletExp_regina_11082022,2022.2.4,120.23299545934044,
1,6,11,0,0.111111111111111,0.298245614035088,0,0.027777777777778,1.0,0,1.0,1.0,ReadingArea_rsl0-rcl11-esl29-rsm0-rcm2-esm100-rsr0-rcr100-esr100,exr/ReadingArea_rsl0-rcl11-esl29-rsm0-rcm2-esm100-rsr0-rcr100-esr100.exr,ReadingArea_rsl0-rcl11-esl29-rsm0-rcm2-esm100-rsr0-rcr100-esr100.npz,,,,,0,186,186,39,,left,green,4.35,1126.47909116745,,,,3,,2,9,brightness,readingArea,realistic,75,2023-03-31_09h59.04.246,tripletExp_regina_11082022,2022.2.4,120.23299545934044,
12,6,2,0,0.027777777777778,3.10526315789474,0,0.027777777777778,1.0,0,0.25,0.298245614035088,ReadingArea_rsl0-rcl2-esl310-rsm0-rcm2-esm100-rsr0-rcr25-esr29,exr/ReadingArea_rsl0-rcl2-esl310-rsm0-rcm2-esm100-rsr0-rcr25-esr29.exr,ReadingArea_rsl0-rcl2-esl310-rsm0-rcm2-esm100-rsr0-rcr25-esr29.npz,,,,,0,187,187,106,,left,green,4.27,1132.1899909973145,1132.6786861419678,,,3,,2,9,brightness,readingArea,realistic,75,2023-03-31_09h59.04.246,tripletExp_regina_11082022,2022.2.4,120.23299545934044,
5,0,6,0,1.0,0.298245614035088,0,0.027777777777778,0.298245614035088,0,0.027777777777778,1.0,ReadingArea_rsl0-rcl100-esl29-rsm0-rcm2-esm29-rsr0-rcr2-esr100,exr/ReadingArea_rsl0-rcl100-esl29-rsm0-rcm2-esm29-rsr0-rcr2-esr100.exr,ReadingArea_rsl0-rcl100-esl29-rsm0-rcm2-esm29-rsr0-rcr2-esr100.npz,,,,,0,188,188,1,,right,red,2.89,1136.1523160934448,1136.6406750679016,,,3,,2,9,brightness,readingArea,realistic,75,2023-03-31_09h59.04.246,tripletExp_regina_11082022,2022.2.4,120.23299545934044,
13,6,12,0,0.111111111111111,3.10526315789474,0,0.027777777777778,1.0,0,0.027777777777778,3.10526315789474,ReadingArea_rsl0-rcl11-esl310-rsm0-rcm2-esm100-rsr0-rcr2-esr310,exr/ReadingArea_rsl0-rcl11-esl310-rsm0-rcm2-esm100-rsr0-rcr2-esr310.exr,ReadingArea_rsl0-rcl11-esl310-rsm0-rcm2-esm100-rsr0-rcr2-esr310.npz,,,,,0,189,189,147,,right,red,3.22,1140.1002750396729,1140.5999732017517,,,3,,2,9,brightness,readingArea,realistic,75,2023-03-31_09h59.04.246,tripletExp_regina_11082022,2022.2.4,120.23299545934044,
1,7,2,0,0.111111111111111,0.298245614035088,0,0.111111111111111,1.0,0,0.25,0.298245614035088,ReadingArea_rsl0-rcl11-esl29-rsm0-rcm11-esm100-rsr0-rcr25-esr29,exr/ReadingArea_rsl0-rcl11-esl29-rsm0-rcm11-esm100-rsr0-rcr25-esr29.exr,ReadingArea_rsl0-rcl11-esl29-rsm0-rcm11-esm100-rsr0-rcr25-esr29.npz,,,,,0,190,190,162,,right,red,3.04,1144.0604710578918,1144.636224985123,,,3,,2,9,brightness,readingArea,realistic,75,2023-03-31_09h59.04.246,tripletExp_regina_11082022,2022.2.4,120.23299545934044,
8,13,3,0,0.25,1.0,0,0.111111111111111,3.10526315789474,0,0.444444444444444,0.298245614035088,ReadingArea_rsl0-rcl25-esl100-rsm0-rcm11-esm310-rsr0-rcr44-esr29,exr/ReadingArea_rsl0-rcl25-esl100-rsm0-rcm11-esm310-rsr0-rcr44-esr29.exr,ReadingArea_rsl0-rcl25-esl100-rsm0-rcm11-esm310-rsr0-rcr44-esr29.npz,,,,,0,191,191,553,,left,green,4.14,1149.8572909832,,,,3,,2,9,brightness,readingArea,realistic,75,2023-03-31_09h59.04.246,tripletExp_regina_11082022,2022.2.4,120.23299545934044,
13,0,8,0,0.111111111111111,3.10526315789474,0,0.027777777777778,0.298245614035088,0,0.25,1.0,ReadingArea_rsl0-rcl11-esl310-rsm0-rcm2-esm29-rsr0-rcr25-esr100,exr/ReadingArea_rsl0-rcl11-esl310-rsm0-rcm2-esm29-rsr0-rcr25-esr100.exr,ReadingArea_rsl0-rcl11-esl310-rsm0-rcm2-esm29-rsr0-rcr25-esr100.npz,,,,,0,192,192,249,,right,red,4.13,1155.6446950435638,1156.3073160648346,,,3,,2,9,brightness,readingArea,realistic,75,2023-03-31_09h59.04.246,tripletExp_regina_11082022,2022.2.4,120.23299545934044,
5,14,4,0,1.0,0.298245614035088,0,0.25,3.10526315789474,0,0.694444444444444,0.298245614035088,ReadingArea_rsl0-rcl100-esl29-rsm0-rcm25-esm310-rsr0-rcr69-esr29,exr/ReadingArea_rsl0-rcl100-esl29-rsm0-rcm25-esm310-rsr0-rcr69-esr29.exr,ReadingArea_rsl0-rcl100-esl29-rsm0-rcm25-esm310-rsr0-rcr69-esr29.npz,,,,,0,193,193,69,,left,green,4.43,1161.5255150794983,,,,3,,2,9,brightness,readingArea,realistic,75,2023-03-31_09h59.04.246,tripletExp_regina_11082022,2022.2.4,120.23299545934044,
12,8,3,0,0.027777777777778,3.10526315789474,0,0.25,1.0,0,0.444444444444444,0.298245614035088,ReadingArea_rsl0-rcl2-esl310-rsm0-rcm25-esm100-rsr0-rcr44-esr29,exr/ReadingArea_rsl0-rcl2-esl310-rsm0-rcm25-esm100-rsr0-rcr44-esr29.exr,ReadingArea_rsl0-rcl2-esl310-rsm0-rcm25-esm100-rsr0-rcr44-esr29.npz,,,,,0,194,194,386,,right,red,4.33,1167.2620940208435,1167.7415890693665,,,3,,2,9,brightness,readingArea,realistic,75,2023-03-31_09h59.04.246,tripletExp_regina_11082022,2022.2.4,120.23299545934044,
11,4,2,0,1.0,1.0,0,0.694444444444444,0.298245614035088,0,0.25,0.298245614035088,ReadingArea_rsl0-rcl100-esl100-rsm0-rcm69-esm29-rsr0-rcr25-esr29,exr/ReadingArea_rsl0-rcl100-esl100-rsm0-rcm69-esm29-rsr0-rcr25-esr29.exr,ReadingArea_rsl0-rcl100-esl100-rsm0-rcm69-esm29-rsr0-rcr25-esr29.npz,,,,,0,195,195,280,,right,red,4.17,1172.9702081680298,1173.550575017929,,,3,,2,9,brightness,readingArea,realistic,75,2023-03-31_09h59.04.246,tripletExp_regina_11082022,2022.2.4,120.23299545934044,
13,7,6,0,0.111111111111111,3.10526315789474,0,0.111111111111111,1.0,0,0.027777777777778,1.0,ReadingArea_rsl0-rcl11-esl310-rsm0-rcm11-esm100-rsr0-rcr2-esr100,exr/ReadingArea_rsl0-rcl11-esl310-rsm0-rcm11-esm100-rsr0-rcr2-esr100.exr,ReadingArea_rsl0-rcl11-esl310-rsm0-rcm11-esm100-rsr0-rcr2-esr100.npz,,,,,0,196,196,283,,left,green,4.52,1178.76353597641,1179.404538154602,,,3,,2,9,brightness,readingArea,realistic,75,2023-03-31_09h59.04.246,tripletExp_regina_11082022,2022.2.4,120.23299545934044,
2,11,8,0,0.25,0.298245614035088,0,1.0,1.0,0,0.25,1.0,ReadingArea_rsl0-rcl25-esl29-rsm0-rcm100-esm100-rsr0-rcr25-esr100,exr/ReadingArea_rsl0-rcl25-esl29-rsm0-rcm100-esm100-rsr0-rcr25-esr100.exr,ReadingArea_rsl0-rcl25-esl29-rsm0-rcm100-esm100-rsr0-rcr25-esr100.npz,,,,,0,197,197,364,,right,red,4.23,1184.6168341636658,1185.173537015915,,,3,,2,9,brightness,readingArea,realistic,75,2023-03-31_09h59.04.246,tripletExp_regina_11082022,2022.2.4,120.23299545934044,
3,2,11,0,0.444444444444444,0.298245614035088,0,0.25,0.298245614035088,0,1.0,1.0,ReadingArea_rsl0-rcl44-esl29-rsm0-rcm25-esm29-rsr0-rcr100-esr100,exr/ReadingArea_rsl0-rcl44-esl29-rsm0-rcm25-esm29-rsr0-rcr100-esr100.exr,ReadingArea_rsl0-rcl44-esl29-rsm0-rcm25-esm29-rsr0-rcr100-esr100.npz,,,,,0,198,198,257,,left,green,2.96,1188.6413881778717,1189.126249074936,,,3,,2,9,brightness,readingArea,realistic,75,2023-03-31_09h59.04.246,tripletExp_regina_11082022,2022.2.4,120.23299545934044,
3,9,13,0,0.444444444444444,0.298245614035088,0,0.444444444444444,1.0,0,0.111111111111111,3.10526315789474,ReadingArea_rsl0-rcl44-esl29-rsm0-rcm44-esm100-rsr0-rcr11-esr310,exr/ReadingArea_rsl0-rcl44-esl29-rsm0-rcm44-esm100-rsr0-rcr11-esr310.exr,ReadingArea_rsl0-rcl44-esl29-rsm0-rcm44-esm100-rsr0-rcr11-esr310.npz,,,,,0,199,199,341,,right,red,4.47,1194.3504781723022,1194.8441891670227,,,3,,2,9,brightness,readingArea,realistic,75,2023-03-31_09h59.04.246,tripletExp_regina_11082022,2022.2.4,120.23299545934044,
10,13,1,0,0.694444444444444,1.0,0,0.111111111111111,3.10526315789474,0,0.111111111111111,0.298245614035088,ReadingArea_rsl0-rcl69-esl100-rsm0-rcm11-esm310-rsr0-rcr11-esr29,exr/ReadingArea_rsl0-rcl69-esl100-rsm0-rcm11-esm310-rsr0-rcr11-esr29.exr,ReadingArea_rsl0-rcl69-esl100-rsm0-rcm11-esm310-rsr0-rcr11-esr29.npz,,,,,0,200,200,149,,right,red,4.59,1200.0753831863403,1200.649696111679,,,3,,2,9,brightness,readingArea,realistic,75,2023-03-31_09h59.04.246,tripletExp_regina_11082022,2022.2.4,120.23299545934044,
4,3,9,0,0.694444444444444,0.298245614035088,0,0.444444444444444,0.298245614035088,0,0.444444444444444,1.0,ReadingArea_rsl0-rcl69-esl29-rsm0-rcm44-esm29-rsr0-rcr44-esr100,exr/ReadingArea_rsl0-rcl69-esl29-rsm0-rcm44-esm29-rsr0-rcr44-esr100.exr,ReadingArea_rsl0-rcl69-esl29-rsm0-rcm44-esm29-rsr0-rcr44-esr100.npz,,,,,0,201,201,451,,left,green,4.23,1205.8821640014648,1206.443817138672,,,3,,2,9,brightness,readingArea,realistic,75,2023-03-31_09h59.04.246,tripletExp_regina_11082022,2022.2.4,120.23299545934044,
