index_left,index_middle,index_right,reflectance_surround_left,reflectance_center_left,emission_spot_left,reflectance_surround_middle,reflectance_center_middle,emission_spot_middle,reflectance_surround_right,reflectance_center_right,emission_spot_right,ImageName,ImageExr,ImageNpy,trials_2.thisRepN,trials_2.thisTrialN,trials_2.thisN,trials_2.thisIndex,trials.thisRepN,trials.thisTrialN,trials.thisN,trials.thisIndex,sound_1.started,BB_Trial.resp,BB_Trial.color,BB_Trial.rt,text.started,text.stopped,sound_2.started,block,participant,session,L/B,scene,condition,nTrialsPerBlock,date,expName,psychopyVersion,frameRate,Unnamed: 41
13,10,12,2,0.111111111111111,3.10526315789474,2,0.694444444444444,1.0,2,0.027777777777778,3.10526315789474,ReadingArea_rsl2-rcl11-esl310-rsm2-rcm69-esm100-rsr2-rcr2-esr310,exr/ReadingArea_rsl2-rcl11-esl310-rsm2-rcm69-esm100-rsr2-rcr2-esr310.exr,ReadingArea_rsl2-rcl11-esl310-rsm2-rcm69-esm100-rsr2-rcr2-esr310.npz,,,,,0,0,0,384,459.5485421180725,left,green,0.76,468.9309160709381,469.3653891086578,445.7847040653229,1,7,2,lightness,readingArea,realistic,75,2023-03-25_10h59.00.328,tripletExp_regina_11082022,2022.2.4,120.02037394195716,
10,14,1,2,0.694444444444444,1.0,2,0.25,3.10526315789474,2,0.111111111111111,0.298245614035088,ReadingArea_rsl2-rcl69-esl100-rsm2-rcm25-esm310-rsr2-rcr11-esr29,exr/ReadingArea_rsl2-rcl69-esl100-rsm2-rcm25-esm310-rsr2-rcr11-esr29.exr,ReadingArea_rsl2-rcl69-esl100-rsm2-rcm25-esm310-rsr2-rcr11-esr29.npz,,,,,0,1,1,544,,left,green,0.91,471.0804400444031,471.4982421398163,,1,7,2,lightness,readingArea,realistic,75,2023-03-25_10h59.00.328,tripletExp_regina_11082022,2022.2.4,120.02037394195716,
0,8,12,2,0.027777777777778,0.298245614035088,2,0.25,1.0,2,0.027777777777778,3.10526315789474,ReadingArea_rsl2-rcl2-esl29-rsm2-rcm25-esm100-rsr2-rcr2-esr310,exr/ReadingArea_rsl2-rcl2-esl29-rsm2-rcm25-esm100-rsr2-rcr2-esr310.exr,ReadingArea_rsl2-rcl2-esl29-rsm2-rcm25-esm100-rsr2-rcr2-esr310.npz,,,,,0,2,2,314,,right,red,1.09,473.1843550205231,473.6336319446564,,1,7,2,lightness,readingArea,realistic,75,2023-03-25_10h59.00.328,tripletExp_regina_11082022,2022.2.4,120.02037394195716,
5,6,0,2,1.0,0.298245614035088,2,0.027777777777778,1.0,2,0.027777777777778,0.298245614035088,ReadingArea_rsl2-rcl100-esl29-rsm2-rcm2-esm100-rsr2-rcr2-esr29,exr/ReadingArea_rsl2-rcl100-esl29-rsm2-rcm2-esm100-rsr2-rcr2-esr29.exr,ReadingArea_rsl2-rcl100-esl29-rsm2-rcm2-esm100-rsr2-rcr2-esr29.npz,,,,,0,3,3,511,,right,red,1.31,475.3298170566559,475.6923880577088,,1,7,2,lightness,readingArea,realistic,75,2023-03-25_10h59.00.328,tripletExp_regina_11082022,2022.2.4,120.02037394195716,
11,8,10,2,1.0,1.0,2,0.25,1.0,2,0.694444444444444,1.0,ReadingArea_rsl2-rcl100-esl100-rsm2-rcm25-esm100-rsr2-rcr69-esr100,exr/ReadingArea_rsl2-rcl100-esl100-rsm2-rcm25-esm100-rsr2-rcr69-esr100.exr,ReadingArea_rsl2-rcl100-esl100-rsm2-rcm25-esm100-rsr2-rcr69-esr100.npz,,,,,0,4,4,67,,left,green,1.12,477.407438993454,477.7922520637512,,1,7,2,lightness,readingArea,realistic,75,2023-03-25_10h59.00.328,tripletExp_regina_11082022,2022.2.4,120.02037394195716,
14,4,7,2,0.25,3.10526315789474,2,0.694444444444444,0.298245614035088,2,0.111111111111111,1.0,ReadingArea_rsl2-rcl25-esl310-rsm2-rcm69-esm29-rsr2-rcr11-esr100,exr/ReadingArea_rsl2-rcl25-esl310-rsm2-rcm69-esm29-rsr2-rcr11-esr100.exr,ReadingArea_rsl2-rcl25-esl310-rsm2-rcm69-esm29-rsr2-rcr11-esr100.npz,,,,,0,5,5,136,,right,red,1.21,479.49102210998535,479.8792531490326,,1,7,2,lightness,readingArea,realistic,75,2023-03-25_10h59.00.328,tripletExp_regina_11082022,2022.2.4,120.02037394195716,
7,14,10,2,0.111111111111111,1.0,2,0.25,3.10526315789474,2,0.694444444444444,1.0,ReadingArea_rsl2-rcl11-esl100-rsm2-rcm25-esm310-rsr2-rcr69-esr100,exr/ReadingArea_rsl2-rcl11-esl100-rsm2-rcm25-esm310-rsr2-rcr69-esr100.exr,ReadingArea_rsl2-rcl11-esl100-rsm2-rcm25-esm310-rsr2-rcr69-esr100.npz,,,,,0,6,6,472,,right,red,0.85,481.57037115097046,481.93472695350647,,1,7,2,lightness,readingArea,realistic,75,2023-03-25_10h59.00.328,tripletExp_regina_11082022,2022.2.4,120.02037394195716,
1,10,11,2,0.111111111111111,0.298245614035088,2,0.694444444444444,1.0,2,1.0,1.0,ReadingArea_rsl2-rcl11-esl29-rsm2-rcm69-esm100-rsr2-rcr100-esr100,exr/ReadingArea_rsl2-rcl11-esl29-rsm2-rcm69-esm100-rsr2-rcr100-esr100.exr,ReadingArea_rsl2-rcl11-esl29-rsm2-rcm69-esm100-rsr2-rcr100-esr100.npz,,,,,0,7,7,483,,right,red,0.8,483.653156042099,484.04077196121216,,1,7,2,lightness,readingArea,realistic,75,2023-03-25_10h59.00.328,tripletExp_regina_11082022,2022.2.4,120.02037394195716,
8,3,12,2,0.25,1.0,2,0.444444444444444,0.298245614035088,2,0.027777777777778,3.10526315789474,ReadingArea_rsl2-rcl25-esl100-rsm2-rcm44-esm29-rsr2-rcr2-esr310,exr/ReadingArea_rsl2-rcl25-esl100-rsm2-rcm44-esm29-rsr2-rcr2-esr310.exr,ReadingArea_rsl2-rcl25-esl100-rsm2-rcm44-esm29-rsr2-rcr2-esr310.npz,,,,,0,8,8,22,,left,green,0.96,485.757199048996,486.13376212120056,,1,7,2,lightness,readingArea,realistic,75,2023-03-25_10h59.00.328,tripletExp_regina_11082022,2022.2.4,120.02037394195716,
12,3,0,2,0.027777777777778,3.10526315789474,2,0.444444444444444,0.298245614035088,2,0.027777777777778,0.298245614035088,ReadingArea_rsl2-rcl2-esl310-rsm2-rcm44-esm29-rsr2-rcr2-esr29,exr/ReadingArea_rsl2-rcl2-esl310-rsm2-rcm44-esm29-rsr2-rcr2-esr29.exr,ReadingArea_rsl2-rcl2-esl310-rsm2-rcm44-esm29-rsr2-rcr2-esr29.npz,,,,,0,9,9,502,,left,green,1.1,487.82942509651184,,,1,7,2,lightness,readingArea,realistic,75,2023-03-25_10h59.00.328,tripletExp_regina_11082022,2022.2.4,120.02037394195716,
10,1,6,2,0.694444444444444,1.0,2,0.111111111111111,0.298245614035088,2,0.027777777777778,1.0,ReadingArea_rsl2-rcl69-esl100-rsm2-rcm11-esm29-rsr2-rcr2-esr100,exr/ReadingArea_rsl2-rcl69-esl100-rsm2-rcm11-esm29-rsr2-rcr2-esr100.exr,ReadingArea_rsl2-rcl69-esl100-rsm2-rcm11-esm29-rsr2-rcr2-esr100.npz,,,,,0,10,10,160,,right,red,0.76,489.92062306404114,490.2890400886536,,1,7,2,lightness,readingArea,realistic,75,2023-03-25_10h59.00.328,tripletExp_regina_11082022,2022.2.4,120.02037394195716,
13,11,10,2,0.111111111111111,3.10526315789474,2,1.0,1.0,2,0.694444444444444,1.0,ReadingArea_rsl2-rcl11-esl310-rsm2-rcm100-esm100-rsr2-rcr69-esr100,exr/ReadingArea_rsl2-rcl11-esl310-rsm2-rcm100-esm100-rsr2-rcr69-esr100.exr,ReadingArea_rsl2-rcl11-esl310-rsm2-rcm100-esm100-rsr2-rcr69-esr100.npz,,,,,0,11,11,577,,right,red,0.7,491.9919080734253,492.3621189594269,,1,7,2,lightness,readingArea,realistic,75,2023-03-25_10h59.00.328,tripletExp_regina_11082022,2022.2.4,120.02037394195716,
11,9,4,2,1.0,1.0,2,0.444444444444444,1.0,2,0.694444444444444,0.298245614035088,ReadingArea_rsl2-rcl100-esl100-rsm2-rcm44-esm100-rsr2-rcr69-esr29,exr/ReadingArea_rsl2-rcl100-esl100-rsm2-rcm44-esm100-rsr2-rcr69-esr29.exr,ReadingArea_rsl2-rcl100-esl100-rsm2-rcm44-esm100-rsr2-rcr69-esr29.npz,,,,,0,12,12,26,,right,red,0.79,494.0506069660187,494.4986820220947,,1,7,2,lightness,readingArea,realistic,75,2023-03-25_10h59.00.328,tripletExp_regina_11082022,2022.2.4,120.02037394195716,
10,4,8,2,0.694444444444444,1.0,2,0.694444444444444,0.298245614035088,2,0.25,1.0,ReadingArea_rsl2-rcl69-esl100-rsm2-rcm69-esm29-rsr2-rcr25-esr100,exr/ReadingArea_rsl2-rcl69-esl100-rsm2-rcm69-esm29-rsr2-rcr25-esr100.exr,ReadingArea_rsl2-rcl69-esl100-rsm2-rcm69-esm29-rsr2-rcr25-esr100.npz,,,,,0,13,13,562,,right,red,0.73,496.1859221458435,496.56933212280273,,1,7,2,lightness,readingArea,realistic,75,2023-03-25_10h59.00.328,tripletExp_regina_11082022,2022.2.4,120.02037394195716,
7,5,1,2,0.111111111111111,1.0,2,1.0,0.298245614035088,2,0.111111111111111,0.298245614035088,ReadingArea_rsl2-rcl11-esl100-rsm2-rcm100-esm29-rsr2-rcr11-esr29,exr/ReadingArea_rsl2-rcl11-esl100-rsm2-rcm100-esm29-rsr2-rcr11-esr29.exr,ReadingArea_rsl2-rcl11-esl100-rsm2-rcm100-esm29-rsr2-rcr11-esr29.npz,,,,,0,14,14,513,,left,green,1.11,498.2926480770111,498.6673810482025,,1,7,2,lightness,readingArea,realistic,75,2023-03-25_10h59.00.328,tripletExp_regina_11082022,2022.2.4,120.02037394195716,
14,2,0,2,0.25,3.10526315789474,2,0.25,0.298245614035088,2,0.027777777777778,0.298245614035088,ReadingArea_rsl2-rcl25-esl310-rsm2-rcm25-esm29-rsr2-rcr2-esr29,exr/ReadingArea_rsl2-rcl25-esl310-rsm2-rcm25-esm29-rsr2-rcr2-esr29.exr,ReadingArea_rsl2-rcl25-esl310-rsm2-rcm25-esm29-rsr2-rcr2-esr29.npz,,,,,0,15,15,460,,left,green,2.14,502.13110399246216,502.49464106559753,,1,7,2,lightness,readingArea,realistic,75,2023-03-25_10h59.00.328,tripletExp_regina_11082022,2022.2.4,120.02037394195716,
8,12,7,2,0.25,1.0,2,0.027777777777778,3.10526315789474,2,0.111111111111111,1.0,ReadingArea_rsl2-rcl25-esl100-rsm2-rcm2-esm310-rsr2-rcr11-esr100,exr/ReadingArea_rsl2-rcl25-esl100-rsm2-rcm2-esm310-rsr2-rcr11-esr100.exr,ReadingArea_rsl2-rcl25-esl100-rsm2-rcm2-esm310-rsr2-rcr11-esr100.npz,,,,,0,16,16,467,,right,red,0.99,504.1855871677399,504.5410730838776,,1,7,2,lightness,readingArea,realistic,75,2023-03-25_10h59.00.328,tripletExp_regina_11082022,2022.2.4,120.02037394195716,
11,0,6,2,1.0,1.0,2,0.027777777777778,0.298245614035088,2,0.027777777777778,1.0,ReadingArea_rsl2-rcl100-esl100-rsm2-rcm2-esm29-rsr2-rcr2-esr100,exr/ReadingArea_rsl2-rcl100-esl100-rsm2-rcm2-esm29-rsr2-rcr2-esr100.exr,ReadingArea_rsl2-rcl100-esl100-rsm2-rcm2-esm29-rsr2-rcr2-esr100.npz,,,,,0,17,17,586,,right,red,1.07,506.242182970047,506.64810705184937,,1,7,2,lightness,readingArea,realistic,75,2023-03-25_10h59.00.328,tripletExp_regina_11082022,2022.2.4,120.02037394195716,
1,14,6,2,0.111111111111111,0.298245614035088,2,0.25,3.10526315789474,2,0.027777777777778,1.0,ReadingArea_rsl2-rcl11-esl29-rsm2-rcm25-esm310-rsr2-rcr2-esr100,exr/ReadingArea_rsl2-rcl11-esl29-rsm2-rcm25-esm310-rsr2-rcr2-esr100.exr,ReadingArea_rsl2-rcl11-esl29-rsm2-rcm25-esm310-rsr2-rcr2-esr100.npz,,,,,0,18,18,475,,right,red,2.57,510.1296329498291,510.50223994255066,,1,7,2,lightness,readingArea,realistic,75,2023-03-25_10h59.00.328,tripletExp_regina_11082022,2022.2.4,120.02037394195716,
7,8,11,2,0.111111111111111,1.0,2,0.25,1.0,2,1.0,1.0,ReadingArea_rsl2-rcl11-esl100-rsm2-rcm25-esm100-rsr2-rcr100-esr100,exr/ReadingArea_rsl2-rcl11-esl100-rsm2-rcm25-esm100-rsr2-rcr100-esr100.exr,ReadingArea_rsl2-rcl11-esl100-rsm2-rcm25-esm100-rsr2-rcr100-esr100.npz,,,,,0,19,19,363,,right,red,0.86,512.1926290988922,512.6896641254425,,1,7,2,lightness,readingArea,realistic,75,2023-03-25_10h59.00.328,tripletExp_regina_11082022,2022.2.4,120.02037394195716,
11,13,8,2,1.0,1.0,2,0.111111111111111,3.10526315789474,2,0.25,1.0,ReadingArea_rsl2-rcl100-esl100-rsm2-rcm11-esm310-rsr2-rcr25-esr100,exr/ReadingArea_rsl2-rcl100-esl100-rsm2-rcm11-esm310-rsr2-rcr25-esr100.exr,ReadingArea_rsl2-rcl100-esl100-rsm2-rcm11-esm310-rsr2-rcr25-esr100.npz,,,,,0,20,20,198,,right,red,1.01,514.4022090435028,514.7733950614929,,1,7,2,lightness,readingArea,realistic,75,2023-03-25_10h59.00.328,tripletExp_regina_11082022,2022.2.4,120.02037394195716,
8,7,12,2,0.25,1.0,2,0.111111111111111,1.0,2,0.027777777777778,3.10526315789474,ReadingArea_rsl2-rcl25-esl100-rsm2-rcm11-esm100-rsr2-rcr2-esr310,exr/ReadingArea_rsl2-rcl25-esl100-rsm2-rcm11-esm100-rsr2-rcr2-esr310.exr,ReadingArea_rsl2-rcl25-esl100-rsm2-rcm11-esm100-rsr2-rcr2-esr310.npz,,,,,0,21,21,471,,right,red,2.35,518.2247710227966,518.5993120670319,,1,7,2,lightness,readingArea,realistic,75,2023-03-25_10h59.00.328,tripletExp_regina_11082022,2022.2.4,120.02037394195716,
3,8,7,2,0.444444444444444,0.298245614035088,2,0.25,1.0,2,0.111111111111111,1.0,ReadingArea_rsl2-rcl44-esl29-rsm2-rcm25-esm100-rsr2-rcr11-esr100,exr/ReadingArea_rsl2-rcl44-esl29-rsm2-rcm25-esm100-rsr2-rcr11-esr100.exr,ReadingArea_rsl2-rcl44-esl29-rsm2-rcm25-esm100-rsr2-rcr11-esr100.npz,,,,,0,22,22,484,,right,red,1.21,520.322793006897,520.6873660087585,,1,7,2,lightness,readingArea,realistic,75,2023-03-25_10h59.00.328,tripletExp_regina_11082022,2022.2.4,120.02037394195716,
11,1,12,2,1.0,1.0,2,0.111111111111111,0.298245614035088,2,0.027777777777778,3.10526315789474,ReadingArea_rsl2-rcl100-esl100-rsm2-rcm11-esm29-rsr2-rcr2-esr310,exr/ReadingArea_rsl2-rcl100-esl100-rsm2-rcm11-esm29-rsr2-rcr2-esr310.exr,ReadingArea_rsl2-rcl100-esl100-rsm2-rcm11-esm29-rsr2-rcr2-esr310.npz,,,,,0,23,23,339,,right,red,1.08,522.4063529968262,522.7636091709137,,1,7,2,lightness,readingArea,realistic,75,2023-03-25_10h59.00.328,tripletExp_regina_11082022,2022.2.4,120.02037394195716,
9,6,8,2,0.444444444444444,1.0,2,0.027777777777778,1.0,2,0.25,1.0,ReadingArea_rsl2-rcl44-esl100-rsm2-rcm2-esm100-rsr2-rcr25-esr100,exr/ReadingArea_rsl2-rcl44-esl100-rsm2-rcm2-esm100-rsr2-rcr25-esr100.exr,ReadingArea_rsl2-rcl44-esl100-rsm2-rcm2-esm100-rsr2-rcr25-esr100.npz,,,,,0,24,24,312,,right,red,2.24,526.2366890907288,526.6192359924316,,1,7,2,lightness,readingArea,realistic,75,2023-03-25_10h59.00.328,tripletExp_regina_11082022,2022.2.4,120.02037394195716,
10,6,3,2,0.694444444444444,1.0,2,0.027777777777778,1.0,2,0.444444444444444,0.298245614035088,ReadingArea_rsl2-rcl69-esl100-rsm2-rcm2-esm100-rsr2-rcr44-esr29,exr/ReadingArea_rsl2-rcl69-esl100-rsm2-rcm2-esm100-rsr2-rcr44-esr29.exr,ReadingArea_rsl2-rcl69-esl100-rsm2-rcm2-esm100-rsr2-rcr44-esr29.npz,,,,,0,25,25,0,,right,red,2.09,530.1031351089478,530.4718570709229,,1,7,2,lightness,readingArea,realistic,75,2023-03-25_10h59.00.328,tripletExp_regina_11082022,2022.2.4,120.02037394195716,
2,10,6,2,0.25,0.298245614035088,2,0.694444444444444,1.0,2,0.027777777777778,1.0,ReadingArea_rsl2-rcl25-esl29-rsm2-rcm69-esm100-rsr2-rcr2-esr100,exr/ReadingArea_rsl2-rcl25-esl29-rsm2-rcm69-esm100-rsr2-rcr2-esr100.exr,ReadingArea_rsl2-rcl25-esl29-rsm2-rcm69-esm100-rsr2-rcr2-esr100.npz,,,,,0,26,26,4,,left,green,2.13,533.9500861167908,534.3170380592346,,1,7,2,lightness,readingArea,realistic,75,2023-03-25_10h59.00.328,tripletExp_regina_11082022,2022.2.4,120.02037394195716,
11,12,4,2,1.0,1.0,2,0.027777777777778,3.10526315789474,2,0.694444444444444,0.298245614035088,ReadingArea_rsl2-rcl100-esl100-rsm2-rcm2-esm310-rsr2-rcr69-esr29,exr/ReadingArea_rsl2-rcl100-esl100-rsm2-rcm2-esm310-rsr2-rcr69-esr29.exr,ReadingArea_rsl2-rcl100-esl100-rsm2-rcm2-esm310-rsr2-rcr69-esr29.npz,,,,,0,27,27,250,,right,red,2.05,537.7968890666962,538.1654851436615,,1,7,2,lightness,readingArea,realistic,75,2023-03-25_10h59.00.328,tripletExp_regina_11082022,2022.2.4,120.02037394195716,
14,7,8,2,0.25,3.10526315789474,2,0.111111111111111,1.0,2,0.25,1.0,ReadingArea_rsl2-rcl25-esl310-rsm2-rcm11-esm100-rsr2-rcr25-esr100,exr/ReadingArea_rsl2-rcl25-esl310-rsm2-rcm11-esm100-rsr2-rcr25-esr100.exr,ReadingArea_rsl2-rcl25-esl310-rsm2-rcm11-esm100-rsr2-rcr25-esr100.npz,,,,,0,28,28,326,,right,red,0.94,539.8606240749359,540.2239351272583,,1,7,2,lightness,readingArea,realistic,75,2023-03-25_10h59.00.328,tripletExp_regina_11082022,2022.2.4,120.02037394195716,
12,8,6,2,0.027777777777778,3.10526315789474,2,0.25,1.0,2,0.027777777777778,1.0,ReadingArea_rsl2-rcl2-esl310-rsm2-rcm25-esm100-rsr2-rcr2-esr100,exr/ReadingArea_rsl2-rcl2-esl310-rsm2-rcm25-esm100-rsr2-rcr2-esr100.exr,ReadingArea_rsl2-rcl2-esl310-rsm2-rcm25-esm100-rsr2-rcr2-esr100.npz,,,,,0,29,29,281,,left,green,0.94,541.9289870262146,542.3986451625824,,1,7,2,lightness,readingArea,realistic,75,2023-03-25_10h59.00.328,tripletExp_regina_11082022,2022.2.4,120.02037394195716,
10,13,6,2,0.694444444444444,1.0,2,0.111111111111111,3.10526315789474,2,0.027777777777778,1.0,ReadingArea_rsl2-rcl69-esl100-rsm2-rcm11-esm310-rsr2-rcr2-esr100,exr/ReadingArea_rsl2-rcl69-esl100-rsm2-rcm11-esm310-rsr2-rcr2-esr100.exr,ReadingArea_rsl2-rcl69-esl100-rsm2-rcm11-esm310-rsr2-rcr2-esr100.npz,,,,,0,30,30,351,,left,green,0.77,544.0982241630554,544.4944710731506,,1,7,2,lightness,readingArea,realistic,75,2023-03-25_10h59.00.328,tripletExp_regina_11082022,2022.2.4,120.02037394195716,
13,4,0,2,0.111111111111111,3.10526315789474,2,0.694444444444444,0.298245614035088,2,0.027777777777778,0.298245614035088,ReadingArea_rsl2-rcl11-esl310-rsm2-rcm69-esm29-rsr2-rcr2-esr29,exr/ReadingArea_rsl2-rcl11-esl310-rsm2-rcm69-esm29-rsr2-rcr2-esr29.exr,ReadingArea_rsl2-rcl11-esl310-rsm2-rcm69-esm29-rsr2-rcr2-esr29.npz,,,,,0,31,31,269,,left,green,0.61,546.1824760437012,546.5486900806427,,1,7,2,lightness,readingArea,realistic,75,2023-03-25_10h59.00.328,tripletExp_regina_11082022,2022.2.4,120.02037394195716,
8,10,7,2,0.25,1.0,2,0.694444444444444,1.0,2,0.111111111111111,1.0,ReadingArea_rsl2-rcl25-esl100-rsm2-rcm69-esm100-rsr2-rcr11-esr100,exr/ReadingArea_rsl2-rcl25-esl100-rsm2-rcm69-esm100-rsr2-rcr11-esr100.exr,ReadingArea_rsl2-rcl25-esl100-rsm2-rcm69-esm100-rsr2-rcr11-esr100.npz,,,,,0,32,32,424,,left,green,0.85,548.2574319839478,548.6436080932617,,1,7,2,lightness,readingArea,realistic,75,2023-03-25_10h59.00.328,tripletExp_regina_11082022,2022.2.4,120.02037394195716,
0,1,8,2,0.027777777777778,0.298245614035088,2,0.111111111111111,0.298245614035088,2,0.25,1.0,ReadingArea_rsl2-rcl2-esl29-rsm2-rcm11-esm29-rsr2-rcr25-esr100,exr/ReadingArea_rsl2-rcl2-esl29-rsm2-rcm11-esm29-rsr2-rcr25-esr100.exr,ReadingArea_rsl2-rcl2-esl29-rsm2-rcm11-esm29-rsr2-rcr25-esr100.npz,,,,,0,33,33,107,,right,red,0.82,550.3634209632874,550.7259240150452,,1,7,2,lightness,readingArea,realistic,75,2023-03-25_10h59.00.328,tripletExp_regina_11082022,2022.2.4,120.02037394195716,
0,2,1,2,0.027777777777778,0.298245614035088,2,0.25,0.298245614035088,2,0.111111111111111,0.298245614035088,ReadingArea_rsl2-rcl2-esl29-rsm2-rcm25-esm29-rsr2-rcr11-esr29,exr/ReadingArea_rsl2-rcl2-esl29-rsm2-rcm25-esm29-rsr2-rcr11-esr29.exr,ReadingArea_rsl2-rcl2-esl29-rsm2-rcm25-esm29-rsr2-rcr11-esr29.npz,,,,,0,34,34,527,,right,red,0.96,552.4253749847412,552.7931780815125,,1,7,2,lightness,readingArea,realistic,75,2023-03-25_10h59.00.328,tripletExp_regina_11082022,2022.2.4,120.02037394195716,
5,10,12,2,1.0,0.298245614035088,2,0.694444444444444,1.0,2,0.027777777777778,3.10526315789474,ReadingArea_rsl2-rcl100-esl29-rsm2-rcm69-esm100-rsr2-rcr2-esr310,exr/ReadingArea_rsl2-rcl100-esl29-rsm2-rcm69-esm100-rsr2-rcr2-esr310.exr,ReadingArea_rsl2-rcl100-esl29-rsm2-rcm69-esm100-rsr2-rcr2-esr310.npz,,,,,0,35,35,587,,left,green,0.76,554.4826879501343,554.9033241271973,,1,7,2,lightness,readingArea,realistic,75,2023-03-25_10h59.00.328,tripletExp_regina_11082022,2022.2.4,120.02037394195716,
7,13,4,2,0.111111111111111,1.0,2,0.111111111111111,3.10526315789474,2,0.694444444444444,0.298245614035088,ReadingArea_rsl2-rcl11-esl100-rsm2-rcm11-esm310-rsr2-rcr69-esr29,exr/ReadingArea_rsl2-rcl11-esl100-rsm2-rcm11-esm310-rsr2-rcr69-esr29.exr,ReadingArea_rsl2-rcl11-esl100-rsm2-rcm11-esm310-rsr2-rcr69-esr29.npz,,,,,0,36,36,456,,right,red,2.15,558.3674881458282,558.7409019470215,,1,7,2,lightness,readingArea,realistic,75,2023-03-25_10h59.00.328,tripletExp_regina_11082022,2022.2.4,120.02037394195716,
1,8,5,2,0.111111111111111,0.298245614035088,2,0.25,1.0,2,1.0,0.298245614035088,ReadingArea_rsl2-rcl11-esl29-rsm2-rcm25-esm100-rsr2-rcr100-esr29,exr/ReadingArea_rsl2-rcl11-esl29-rsm2-rcm25-esm100-rsr2-rcr100-esr29.exr,ReadingArea_rsl2-rcl11-esl29-rsm2-rcm25-esm100-rsr2-rcr100-esr29.npz,,,,,0,37,37,445,,right,red,0.77,560.4443249702454,560.8144600391388,,1,7,2,lightness,readingArea,realistic,75,2023-03-25_10h59.00.328,tripletExp_regina_11082022,2022.2.4,120.02037394195716,
10,7,8,2,0.694444444444444,1.0,2,0.111111111111111,1.0,2,0.25,1.0,ReadingArea_rsl2-rcl69-esl100-rsm2-rcm11-esm100-rsr2-rcr25-esr100,exr/ReadingArea_rsl2-rcl69-esl100-rsm2-rcm11-esm100-rsr2-rcr25-esr100.exr,ReadingArea_rsl2-rcl69-esl100-rsm2-rcm11-esm100-rsr2-rcr25-esr100.npz,,,,,0,38,38,57,,right,red,1.11,562.5366170406342,562.9099450111389,,1,7,2,lightness,readingArea,realistic,75,2023-03-25_10h59.00.328,tripletExp_regina_11082022,2022.2.4,120.02037394195716,
11,5,4,2,1.0,1.0,2,1.0,0.298245614035088,2,0.694444444444444,0.298245614035088,ReadingArea_rsl2-rcl100-esl100-rsm2-rcm100-esm29-rsr2-rcr69-esr29,exr/ReadingArea_rsl2-rcl100-esl100-rsm2-rcm100-esm29-rsr2-rcr69-esr29.exr,ReadingArea_rsl2-rcl100-esl100-rsm2-rcm100-esm29-rsr2-rcr69-esr29.npz,,,,,0,39,39,564,,right,red,0.88,564.6200671195984,564.9888119697571,,1,7,2,lightness,readingArea,realistic,75,2023-03-25_10h59.00.328,tripletExp_regina_11082022,2022.2.4,120.02037394195716,
12,10,6,2,0.027777777777778,3.10526315789474,2,0.694444444444444,1.0,2,0.027777777777778,1.0,ReadingArea_rsl2-rcl2-esl310-rsm2-rcm69-esm100-rsr2-rcr2-esr100,exr/ReadingArea_rsl2-rcl2-esl310-rsm2-rcm69-esm100-rsr2-rcr2-esr100.exr,ReadingArea_rsl2-rcl2-esl310-rsm2-rcm69-esm100-rsr2-rcr2-esr100.npz,,,,,0,40,40,273,,left,green,0.78,566.6832900047302,,,1,7,2,lightness,readingArea,realistic,75,2023-03-25_10h59.00.328,tripletExp_regina_11082022,2022.2.4,120.02037394195716,
2,14,9,2,0.25,0.298245614035088,2,0.25,3.10526315789474,2,0.444444444444444,1.0,ReadingArea_rsl2-rcl25-esl29-rsm2-rcm25-esm310-rsr2-rcr44-esr100,exr/ReadingArea_rsl2-rcl25-esl29-rsm2-rcm25-esm310-rsr2-rcr44-esr100.exr,ReadingArea_rsl2-rcl25-esl29-rsm2-rcm25-esm310-rsr2-rcr44-esr100.npz,,,,,0,41,41,51,,right,red,0.7,568.7626459598541,569.133043050766,,1,7,2,lightness,readingArea,realistic,75,2023-03-25_10h59.00.328,tripletExp_regina_11082022,2022.2.4,120.02037394195716,
7,8,3,2,0.111111111111111,1.0,2,0.25,1.0,2,0.444444444444444,0.298245614035088,ReadingArea_rsl2-rcl11-esl100-rsm2-rcm25-esm100-rsr2-rcr44-esr29,exr/ReadingArea_rsl2-rcl11-esl100-rsm2-rcm25-esm100-rsr2-rcr44-esr29.exr,ReadingArea_rsl2-rcl11-esl100-rsm2-rcm25-esm100-rsr2-rcr44-esr29.npz,,,,,0,42,42,459,,left,green,1.0,570.8505070209503,,,1,7,2,lightness,readingArea,realistic,75,2023-03-25_10h59.00.328,tripletExp_regina_11082022,2022.2.4,120.02037394195716,
11,4,2,2,1.0,1.0,2,0.694444444444444,0.298245614035088,2,0.25,0.298245614035088,ReadingArea_rsl2-rcl100-esl100-rsm2-rcm69-esm29-rsr2-rcr25-esr29,exr/ReadingArea_rsl2-rcl100-esl100-rsm2-rcm69-esm29-rsr2-rcr25-esr29.exr,ReadingArea_rsl2-rcl100-esl100-rsm2-rcm69-esm29-rsr2-rcr25-esr29.npz,,,,,0,43,43,280,,right,red,0.67,573.0525829792023,573.4148781299591,,1,7,2,lightness,readingArea,realistic,75,2023-03-25_10h59.00.328,tripletExp_regina_11082022,2022.2.4,120.02037394195716,
8,4,1,2,0.25,1.0,2,0.694444444444444,0.298245614035088,2,0.111111111111111,0.298245614035088,ReadingArea_rsl2-rcl25-esl100-rsm2-rcm69-esm29-rsr2-rcr11-esr29,exr/ReadingArea_rsl2-rcl25-esl100-rsm2-rcm69-esm29-rsr2-rcr11-esr29.exr,ReadingArea_rsl2-rcl25-esl100-rsm2-rcm69-esm29-rsr2-rcr11-esr29.npz,,,,,0,44,44,286,,left,green,0.8,575.1319870948792,575.506597995758,,1,7,2,lightness,readingArea,realistic,75,2023-03-25_10h59.00.328,tripletExp_regina_11082022,2022.2.4,120.02037394195716,
3,12,4,2,0.444444444444444,0.298245614035088,2,0.027777777777778,3.10526315789474,2,0.694444444444444,0.298245614035088,ReadingArea_rsl2-rcl44-esl29-rsm2-rcm2-esm310-rsr2-rcr69-esr29,exr/ReadingArea_rsl2-rcl44-esl29-rsm2-rcm2-esm310-rsr2-rcr69-esr29.exr,ReadingArea_rsl2-rcl44-esl29-rsm2-rcm2-esm310-rsr2-rcr69-esr29.npz,,,,,0,45,45,426,,left,green,2.08,579.0018861293793,,,1,7,2,lightness,readingArea,realistic,75,2023-03-25_10h59.00.328,tripletExp_regina_11082022,2022.2.4,120.02037394195716,
12,13,7,2,0.027777777777778,3.10526315789474,2,0.111111111111111,3.10526315789474,2,0.111111111111111,1.0,ReadingArea_rsl2-rcl2-esl310-rsm2-rcm11-esm310-rsr2-rcr11-esr100,exr/ReadingArea_rsl2-rcl2-esl310-rsm2-rcm11-esm310-rsr2-rcr11-esr100.exr,ReadingArea_rsl2-rcl2-esl310-rsm2-rcm11-esm310-rsr2-rcr11-esr100.npz,,,,,0,46,46,408,,left,green,1.11,581.0986051559448,581.4812960624695,,1,7,2,lightness,readingArea,realistic,75,2023-03-25_10h59.00.328,tripletExp_regina_11082022,2022.2.4,120.02037394195716,
4,2,0,2,0.694444444444444,0.298245614035088,2,0.25,0.298245614035088,2,0.027777777777778,0.298245614035088,ReadingArea_rsl2-rcl69-esl29-rsm2-rcm25-esm29-rsr2-rcr2-esr29,exr/ReadingArea_rsl2-rcl69-esl29-rsm2-rcm25-esm29-rsr2-rcr2-esr29.exr,ReadingArea_rsl2-rcl69-esl29-rsm2-rcm25-esm29-rsr2-rcr2-esr29.npz,,,,,0,47,47,71,,left,green,1.04,583.1921150684357,583.5625600814819,,1,7,2,lightness,readingArea,realistic,75,2023-03-25_10h59.00.328,tripletExp_regina_11082022,2022.2.4,120.02037394195716,
12,14,4,2,0.027777777777778,3.10526315789474,2,0.25,3.10526315789474,2,0.694444444444444,0.298245614035088,ReadingArea_rsl2-rcl2-esl310-rsm2-rcm25-esm310-rsr2-rcr69-esr29,exr/ReadingArea_rsl2-rcl2-esl310-rsm2-rcm25-esm310-rsr2-rcr69-esr29.exr,ReadingArea_rsl2-rcl2-esl310-rsm2-rcm25-esm310-rsr2-rcr69-esr29.npz,,,,,0,48,48,315,,right,red,0.78,585.2564351558685,585.6329100131989,,1,7,2,lightness,readingArea,realistic,75,2023-03-25_10h59.00.328,tripletExp_regina_11082022,2022.2.4,120.02037394195716,
4,8,7,2,0.694444444444444,0.298245614035088,2,0.25,1.0,2,0.111111111111111,1.0,ReadingArea_rsl2-rcl69-esl29-rsm2-rcm25-esm100-rsr2-rcr11-esr100,exr/ReadingArea_rsl2-rcl69-esl29-rsm2-rcm25-esm100-rsr2-rcr11-esr100.exr,ReadingArea_rsl2-rcl69-esl29-rsm2-rcm25-esm100-rsr2-rcr11-esr100.npz,,,,,0,49,49,461,,left,green,2.12,589.0990960597992,589.4815599918365,,1,7,2,lightness,readingArea,realistic,75,2023-03-25_10h59.00.328,tripletExp_regina_11082022,2022.2.4,120.02037394195716,
10,11,0,2,0.694444444444444,1.0,2,1.0,1.0,2,0.027777777777778,0.298245614035088,ReadingArea_rsl2-rcl69-esl100-rsm2-rcm100-esm100-rsr2-rcr2-esr29,exr/ReadingArea_rsl2-rcl69-esl100-rsm2-rcm100-esm100-rsr2-rcr2-esr29.exr,ReadingArea_rsl2-rcl69-esl100-rsm2-rcm100-esm100-rsr2-rcr2-esr29.npz,,,,,0,50,50,58,,left,green,0.64,591.1986539363861,591.5819990634918,,1,7,2,lightness,readingArea,realistic,75,2023-03-25_10h59.00.328,tripletExp_regina_11082022,2022.2.4,120.02037394195716,
3,14,12,2,0.444444444444444,0.298245614035088,2,0.25,3.10526315789474,2,0.027777777777778,3.10526315789474,ReadingArea_rsl2-rcl44-esl29-rsm2-rcm25-esm310-rsr2-rcr2-esr310,exr/ReadingArea_rsl2-rcl44-esl29-rsm2-rcm25-esm310-rsr2-rcr2-esr310.exr,ReadingArea_rsl2-rcl44-esl29-rsm2-rcm25-esm310-rsr2-rcr2-esr310.npz,,,,,0,51,51,336,,right,red,2.12,595.055233001709,595.4336030483246,,1,7,2,lightness,readingArea,realistic,75,2023-03-25_10h59.00.328,tripletExp_regina_11082022,2022.2.4,120.02037394195716,
3,5,7,2,0.444444444444444,0.298245614035088,2,1.0,0.298245614035088,2,0.111111111111111,1.0,ReadingArea_rsl2-rcl44-esl29-rsm2-rcm100-esm29-rsr2-rcr11-esr100,exr/ReadingArea_rsl2-rcl44-esl29-rsm2-rcm100-esm29-rsr2-rcr11-esr100.exr,ReadingArea_rsl2-rcl44-esl29-rsm2-rcm100-esm29-rsr2-rcr11-esr100.npz,,,,,0,52,52,474,,left,green,2.03,598.9310491085052,599.3096311092377,,1,7,2,lightness,readingArea,realistic,75,2023-03-25_10h59.00.328,tripletExp_regina_11082022,2022.2.4,120.02037394195716,
0,12,7,2,0.027777777777778,0.298245614035088,2,0.027777777777778,3.10526315789474,2,0.111111111111111,1.0,ReadingArea_rsl2-rcl2-esl29-rsm2-rcm2-esm310-rsr2-rcr11-esr100,exr/ReadingArea_rsl2-rcl2-esl29-rsm2-rcm2-esm310-rsr2-rcr11-esr100.exr,ReadingArea_rsl2-rcl2-esl29-rsm2-rcm2-esm310-rsr2-rcr11-esr100.npz,,,,,0,53,53,481,,right,red,2.05,602.7807559967041,,,1,7,2,lightness,readingArea,realistic,75,2023-03-25_10h59.00.328,tripletExp_regina_11082022,2022.2.4,120.02037394195716,
1,10,7,2,0.111111111111111,0.298245614035088,2,0.694444444444444,1.0,2,0.111111111111111,1.0,ReadingArea_rsl2-rcl11-esl29-rsm2-rcm69-esm100-rsr2-rcr11-esr100,exr/ReadingArea_rsl2-rcl11-esl29-rsm2-rcm69-esm100-rsr2-rcr11-esr100.exr,ReadingArea_rsl2-rcl11-esl29-rsm2-rcm69-esm100-rsr2-rcr11-esr100.npz,,,,,0,54,54,94,,right,red,2.1,606.6274530887604,606.9988050460815,,1,7,2,lightness,readingArea,realistic,75,2023-03-25_10h59.00.328,tripletExp_regina_11082022,2022.2.4,120.02037394195716,
13,4,12,2,0.111111111111111,3.10526315789474,2,0.694444444444444,0.298245614035088,2,0.027777777777778,3.10526315789474,ReadingArea_rsl2-rcl11-esl310-rsm2-rcm69-esm29-rsr2-rcr2-esr310,exr/ReadingArea_rsl2-rcl11-esl310-rsm2-rcm69-esm29-rsr2-rcr2-esr310.exr,ReadingArea_rsl2-rcl11-esl310-rsm2-rcm69-esm29-rsr2-rcr2-esr310.npz,,,,,0,55,55,122,,left,green,0.79,608.7071740627289,609.0850069522858,,1,7,2,lightness,readingArea,realistic,75,2023-03-25_10h59.00.328,tripletExp_regina_11082022,2022.2.4,120.02037394195716,
12,1,2,2,0.027777777777778,3.10526315789474,2,0.111111111111111,0.298245614035088,2,0.25,0.298245614035088,ReadingArea_rsl2-rcl2-esl310-rsm2-rcm11-esm29-rsr2-rcr25-esr29,exr/ReadingArea_rsl2-rcl2-esl310-rsm2-rcm11-esm29-rsr2-rcr25-esr29.exr,ReadingArea_rsl2-rcl2-esl310-rsm2-rcm11-esm29-rsr2-rcr25-esr29.npz,,,,,0,56,56,231,,right,red,0.86,610.7884049415588,611.1564190387726,,1,7,2,lightness,readingArea,realistic,75,2023-03-25_10h59.00.328,tripletExp_regina_11082022,2022.2.4,120.02037394195716,
11,7,10,2,1.0,1.0,2,0.111111111111111,1.0,2,0.694444444444444,1.0,ReadingArea_rsl2-rcl100-esl100-rsm2-rcm11-esm100-rsr2-rcr69-esr100,exr/ReadingArea_rsl2-rcl100-esl100-rsm2-rcm11-esm100-rsr2-rcr69-esr100.exr,ReadingArea_rsl2-rcl100-esl100-rsm2-rcm11-esm100-rsr2-rcr69-esr100.npz,,,,,0,57,57,411,,left,green,2.05,614.6149730682373,615.0166161060333,,1,7,2,lightness,readingArea,realistic,75,2023-03-25_10h59.00.328,tripletExp_regina_11082022,2022.2.4,120.02037394195716,
14,8,2,2,0.25,3.10526315789474,2,0.25,1.0,2,0.25,0.298245614035088,ReadingArea_rsl2-rcl25-esl310-rsm2-rcm25-esm100-rsr2-rcr25-esr29,exr/ReadingArea_rsl2-rcl25-esl310-rsm2-rcm25-esm100-rsr2-rcr25-esr29.exr,ReadingArea_rsl2-rcl25-esl310-rsm2-rcm25-esm100-rsr2-rcr25-esr29.npz,,,,,0,58,58,251,,right,red,0.65,616.7309081554413,617.1147720813751,,1,7,2,lightness,readingArea,realistic,75,2023-03-25_10h59.00.328,tripletExp_regina_11082022,2022.2.4,120.02037394195716,
14,6,7,2,0.25,3.10526315789474,2,0.027777777777778,1.0,2,0.111111111111111,1.0,ReadingArea_rsl2-rcl25-esl310-rsm2-rcm2-esm100-rsr2-rcr11-esr100,exr/ReadingArea_rsl2-rcl25-esl310-rsm2-rcm2-esm100-rsr2-rcr11-esr100.exr,ReadingArea_rsl2-rcl25-esl310-rsm2-rcm2-esm100-rsr2-rcr11-esr100.npz,,,,,0,59,59,306,,right,red,0.89,618.8151111602783,619.1979789733887,,1,7,2,lightness,readingArea,realistic,75,2023-03-25_10h59.00.328,tripletExp_regina_11082022,2022.2.4,120.02037394195716,
4,13,2,2,0.694444444444444,0.298245614035088,2,0.111111111111111,3.10526315789474,2,0.25,0.298245614035088,ReadingArea_rsl2-rcl69-esl29-rsm2-rcm11-esm310-rsr2-rcr25-esr29,exr/ReadingArea_rsl2-rcl69-esl29-rsm2-rcm11-esm310-rsr2-rcr25-esr29.exr,ReadingArea_rsl2-rcl69-esl29-rsm2-rcm11-esm310-rsr2-rcr25-esr29.npz,,,,,0,60,60,592,,left,green,0.99,620.8847539424896,621.254889011383,,1,7,2,lightness,readingArea,realistic,75,2023-03-25_10h59.00.328,tripletExp_regina_11082022,2022.2.4,120.02037394195716,
14,9,0,2,0.25,3.10526315789474,2,0.444444444444444,1.0,2,0.027777777777778,0.298245614035088,ReadingArea_rsl2-rcl25-esl310-rsm2-rcm44-esm100-rsr2-rcr2-esr29,exr/ReadingArea_rsl2-rcl25-esl310-rsm2-rcm44-esm100-rsr2-rcr2-esr29.exr,ReadingArea_rsl2-rcl25-esl310-rsm2-rcm44-esm100-rsr2-rcr2-esr29.npz,,,,,0,61,61,313,,left,green,0.74,622.9608600139618,623.3356220722198,,1,7,2,lightness,readingArea,realistic,75,2023-03-25_10h59.00.328,tripletExp_regina_11082022,2022.2.4,120.02037394195716,
7,2,6,2,0.111111111111111,1.0,2,0.25,0.298245614035088,2,0.027777777777778,1.0,ReadingArea_rsl2-rcl11-esl100-rsm2-rcm25-esm29-rsr2-rcr2-esr100,exr/ReadingArea_rsl2-rcl11-esl100-rsm2-rcm25-esm29-rsr2-rcr2-esr100.exr,ReadingArea_rsl2-rcl11-esl100-rsm2-rcm25-esm29-rsr2-rcr2-esr100.npz,,,,,0,62,62,506,,left,green,0.87,625.0353510379791,625.5205149650574,,1,7,2,lightness,readingArea,realistic,75,2023-03-25_10h59.00.328,tripletExp_regina_11082022,2022.2.4,120.02037394195716,
3,6,4,2,0.444444444444444,0.298245614035088,2,0.027777777777778,1.0,2,0.694444444444444,0.298245614035088,ReadingArea_rsl2-rcl44-esl29-rsm2-rcm2-esm100-rsr2-rcr69-esr29,exr/ReadingArea_rsl2-rcl44-esl29-rsm2-rcm2-esm100-rsr2-rcr69-esr29.exr,ReadingArea_rsl2-rcl44-esl29-rsm2-rcm2-esm100-rsr2-rcr69-esr29.npz,,,,,0,63,63,154,,left,green,1.32,627.2104201316833,627.6205480098724,,1,7,2,lightness,readingArea,realistic,75,2023-03-25_10h59.00.328,tripletExp_regina_11082022,2022.2.4,120.02037394195716,
9,7,2,2,0.444444444444444,1.0,2,0.111111111111111,1.0,2,0.25,0.298245614035088,ReadingArea_rsl2-rcl44-esl100-rsm2-rcm11-esm100-rsr2-rcr25-esr29,exr/ReadingArea_rsl2-rcl44-esl100-rsm2-rcm11-esm100-rsr2-rcr25-esr29.exr,ReadingArea_rsl2-rcl44-esl100-rsm2-rcm11-esm100-rsr2-rcr25-esr29.npz,,,,,0,64,64,428,,right,red,0.82,629.3383240699768,629.709892988205,,1,7,2,lightness,readingArea,realistic,75,2023-03-25_10h59.00.328,tripletExp_regina_11082022,2022.2.4,120.02037394195716,
2,1,14,2,0.25,0.298245614035088,2,0.111111111111111,0.298245614035088,2,0.25,3.10526315789474,ReadingArea_rsl2-rcl25-esl29-rsm2-rcm11-esm29-rsr2-rcr25-esr310,exr/ReadingArea_rsl2-rcl25-esl29-rsm2-rcm11-esm29-rsr2-rcr25-esr310.exr,ReadingArea_rsl2-rcl25-esl29-rsm2-rcm11-esm29-rsr2-rcr25-esr310.npz,,,,,0,65,65,59,,left,green,0.72,631.4316141605377,631.8002059459686,,1,7,2,lightness,readingArea,realistic,75,2023-03-25_10h59.00.328,tripletExp_regina_11082022,2022.2.4,120.02037394195716,
12,3,10,2,0.027777777777778,3.10526315789474,2,0.444444444444444,0.298245614035088,2,0.694444444444444,1.0,ReadingArea_rsl2-rcl2-esl310-rsm2-rcm44-esm29-rsr2-rcr69-esr100,exr/ReadingArea_rsl2-rcl2-esl310-rsm2-rcm44-esm29-rsr2-rcr69-esr100.exr,ReadingArea_rsl2-rcl2-esl310-rsm2-rcm44-esm29-rsr2-rcr69-esr100.npz,,,,,0,66,66,437,,left,green,1.26,633.4899020195007,633.8638730049133,,1,7,2,lightness,readingArea,realistic,75,2023-03-25_10h59.00.328,tripletExp_regina_11082022,2022.2.4,120.02037394195716,
0,13,12,2,0.027777777777778,0.298245614035088,2,0.111111111111111,3.10526315789474,2,0.027777777777778,3.10526315789474,ReadingArea_rsl2-rcl2-esl29-rsm2-rcm11-esm310-rsr2-rcr2-esr310,exr/ReadingArea_rsl2-rcl2-esl29-rsm2-rcm11-esm310-rsr2-rcr2-esr310.exr,ReadingArea_rsl2-rcl2-esl29-rsm2-rcm11-esm310-rsr2-rcr2-esr310.npz,,,,,0,67,67,501,,right,red,0.92,635.584673166275,635.9949100017548,,1,7,2,lightness,readingArea,realistic,75,2023-03-25_10h59.00.328,tripletExp_regina_11082022,2022.2.4,120.02037394195716,
1,10,0,2,0.111111111111111,0.298245614035088,2,0.694444444444444,1.0,2,0.027777777777778,0.298245614035088,ReadingArea_rsl2-rcl11-esl29-rsm2-rcm69-esm100-rsr2-rcr2-esr29,exr/ReadingArea_rsl2-rcl11-esl29-rsm2-rcm69-esm100-rsr2-rcr2-esr29.exr,ReadingArea_rsl2-rcl11-esl29-rsm2-rcm69-esm100-rsr2-rcr2-esr29.npz,,,,,0,68,68,196,,left,green,0.97,637.6982131004333,638.1688799858093,,1,7,2,lightness,readingArea,realistic,75,2023-03-25_10h59.00.328,tripletExp_regina_11082022,2022.2.4,120.02037394195716,
11,3,12,2,1.0,1.0,2,0.444444444444444,0.298245614035088,2,0.027777777777778,3.10526315789474,ReadingArea_rsl2-rcl100-esl100-rsm2-rcm44-esm29-rsr2-rcr2-esr310,exr/ReadingArea_rsl2-rcl100-esl100-rsm2-rcm44-esm29-rsr2-rcr2-esr310.exr,ReadingArea_rsl2-rcl100-esl100-rsm2-rcm44-esm29-rsr2-rcr2-esr310.npz,,,,,0,69,69,355,,right,red,1.0,639.8872780799866,640.2624881267548,,1,7,2,lightness,readingArea,realistic,75,2023-03-25_10h59.00.328,tripletExp_regina_11082022,2022.2.4,120.02037394195716,
14,8,5,2,0.25,3.10526315789474,2,0.25,1.0,2,1.0,0.298245614035088,ReadingArea_rsl2-rcl25-esl310-rsm2-rcm25-esm100-rsr2-rcr100-esr29,exr/ReadingArea_rsl2-rcl25-esl310-rsm2-rcm25-esm100-rsr2-rcr100-esr29.exr,ReadingArea_rsl2-rcl25-esl310-rsm2-rcm25-esm100-rsr2-rcr100-esr29.npz,,,,,0,70,70,28,,right,red,0.77,641.9710111618042,642.3397920131683,,1,7,2,lightness,readingArea,realistic,75,2023-03-25_10h59.00.328,tripletExp_regina_11082022,2022.2.4,120.02037394195716,
11,8,2,2,1.0,1.0,2,0.25,1.0,2,0.25,0.298245614035088,ReadingArea_rsl2-rcl100-esl100-rsm2-rcm25-esm100-rsr2-rcr25-esr29,exr/ReadingArea_rsl2-rcl100-esl100-rsm2-rcm25-esm100-rsr2-rcr25-esr29.exr,ReadingArea_rsl2-rcl100-esl100-rsm2-rcm25-esm100-rsr2-rcr25-esr29.npz,,,,,0,71,71,406,,right,red,0.86,644.0278720855713,644.3863129615784,,1,7,2,lightness,readingArea,realistic,75,2023-03-25_10h59.00.328,tripletExp_regina_11082022,2022.2.4,120.02037394195716,
0,10,12,2,0.027777777777778,0.298245614035088,2,0.694444444444444,1.0,2,0.027777777777778,3.10526315789474,ReadingArea_rsl2-rcl2-esl29-rsm2-rcm69-esm100-rsr2-rcr2-esr310,exr/ReadingArea_rsl2-rcl2-esl29-rsm2-rcm69-esm100-rsr2-rcr2-esr310.exr,ReadingArea_rsl2-rcl2-esl29-rsm2-rcm69-esm100-rsr2-rcr2-esr310.npz,,,,,0,72,72,531,,right,red,1.0,646.0778341293335,646.4585411548615,,1,7,2,lightness,readingArea,realistic,75,2023-03-25_10h59.00.328,tripletExp_regina_11082022,2022.2.4,120.02037394195716,
6,12,8,2,0.027777777777778,1.0,2,0.027777777777778,3.10526315789474,2,0.25,1.0,ReadingArea_rsl2-rcl2-esl100-rsm2-rcm2-esm310-rsr2-rcr25-esr100,exr/ReadingArea_rsl2-rcl2-esl100-rsm2-rcm2-esm310-rsr2-rcr25-esr100.exr,ReadingArea_rsl2-rcl2-esl100-rsm2-rcm2-esm310-rsr2-rcr25-esr100.npz,,,,,0,73,73,186,,left,green,2.83,649.9260470867157,650.3064329624176,,1,7,2,lightness,readingArea,realistic,75,2023-03-25_10h59.00.328,tripletExp_regina_11082022,2022.2.4,120.02037394195716,
6,3,13,2,0.027777777777778,1.0,2,0.444444444444444,0.298245614035088,2,0.111111111111111,3.10526315789474,ReadingArea_rsl2-rcl2-esl100-rsm2-rcm44-esm29-rsr2-rcr11-esr310,exr/ReadingArea_rsl2-rcl2-esl100-rsm2-rcm44-esm29-rsr2-rcr11-esr310.exr,ReadingArea_rsl2-rcl2-esl100-rsm2-rcm44-esm29-rsr2-rcr11-esr310.npz,,,,,0,74,74,228,,right,red,2.07,653.7452261447906,653.9456920623779,,1,7,2,lightness,readingArea,realistic,75,2023-03-25_10h59.00.328,tripletExp_regina_11082022,2022.2.4,120.02037394195716,
11,0,10,2,1.0,1.0,2,0.027777777777778,0.298245614035088,2,0.694444444444444,1.0,ReadingArea_rsl2-rcl100-esl100-rsm2-rcm2-esm29-rsr2-rcr69-esr100,exr/ReadingArea_rsl2-rcl100-esl100-rsm2-rcm2-esm29-rsr2-rcr69-esr100.exr,ReadingArea_rsl2-rcl100-esl100-rsm2-rcm2-esm29-rsr2-rcr69-esr100.npz,,,,,0,75,75,259,,left,green,3.89,664.1409561634064,664.5274419784546,,2,7,2,lightness,readingArea,realistic,75,2023-03-25_10h59.00.328,tripletExp_regina_11082022,2022.2.4,120.02037394195716,
7,4,2,2,0.111111111111111,1.0,2,0.694444444444444,0.298245614035088,2,0.25,0.298245614035088,ReadingArea_rsl2-rcl11-esl100-rsm2-rcm69-esm29-rsr2-rcr25-esr29,exr/ReadingArea_rsl2-rcl11-esl100-rsm2-rcm69-esm29-rsr2-rcr25-esr29.exr,ReadingArea_rsl2-rcl11-esl100-rsm2-rcm69-esm29-rsr2-rcr25-esr29.npz,,,,,0,76,76,146,,left,green,1.91,667.9675381183624,668.3449380397797,,2,7,2,lightness,readingArea,realistic,75,2023-03-25_10h59.00.328,tripletExp_regina_11082022,2022.2.4,120.02037394195716,
6,2,5,2,0.027777777777778,1.0,2,0.25,0.298245614035088,2,1.0,0.298245614035088,ReadingArea_rsl2-rcl2-esl100-rsm2-rcm25-esm29-rsr2-rcr100-esr29,exr/ReadingArea_rsl2-rcl2-esl100-rsm2-rcm25-esm29-rsr2-rcr100-esr29.exr,ReadingArea_rsl2-rcl2-esl100-rsm2-rcm25-esm29-rsr2-rcr100-esr29.npz,,,,,0,77,77,504,,right,red,0.87,670.0661721229553,,,2,7,2,lightness,readingArea,realistic,75,2023-03-25_10h59.00.328,tripletExp_regina_11082022,2022.2.4,120.02037394195716,
9,11,2,2,0.444444444444444,1.0,2,1.0,1.0,2,0.25,0.298245614035088,ReadingArea_rsl2-rcl44-esl100-rsm2-rcm100-esm100-rsr2-rcr25-esr29,exr/ReadingArea_rsl2-rcl44-esl100-rsm2-rcm100-esm100-rsr2-rcr25-esr29.exr,ReadingArea_rsl2-rcl44-esl100-rsm2-rcm100-esm100-rsr2-rcr25-esr29.npz,,,,,0,78,78,329,,left,green,0.78,672.2483880519867,672.65101313591,,2,7,2,lightness,readingArea,realistic,75,2023-03-25_10h59.00.328,tripletExp_regina_11082022,2022.2.4,120.02037394195716,
12,10,9,2,0.027777777777778,3.10526315789474,2,0.694444444444444,1.0,2,0.444444444444444,1.0,ReadingArea_rsl2-rcl2-esl310-rsm2-rcm69-esm100-rsr2-rcr44-esr100,exr/ReadingArea_rsl2-rcl2-esl310-rsm2-rcm69-esm100-rsr2-rcr44-esr100.exr,ReadingArea_rsl2-rcl2-esl310-rsm2-rcm69-esm100-rsr2-rcr44-esr100.npz,,,,,0,79,79,126,,right,red,0.76,674.3403811454773,674.7134981155396,,2,7,2,lightness,readingArea,realistic,75,2023-03-25_10h59.00.328,tripletExp_regina_11082022,2022.2.4,120.02037394195716,
2,1,3,2,0.25,0.298245614035088,2,0.111111111111111,0.298245614035088,2,0.444444444444444,0.298245614035088,ReadingArea_rsl2-rcl25-esl29-rsm2-rcm11-esm29-rsr2-rcr44-esr29,exr/ReadingArea_rsl2-rcl25-esl29-rsm2-rcm11-esm29-rsr2-rcr44-esr29.exr,ReadingArea_rsl2-rcl25-esl29-rsm2-rcm11-esm29-rsr2-rcr44-esr29.npz,,,,,0,80,80,85,,left,green,0.87,676.4300539493561,676.8163249492645,,2,7,2,lightness,readingArea,realistic,75,2023-03-25_10h59.00.328,tripletExp_regina_11082022,2022.2.4,120.02037394195716,
12,9,11,2,0.027777777777778,3.10526315789474,2,0.444444444444444,1.0,2,1.0,1.0,ReadingArea_rsl2-rcl2-esl310-rsm2-rcm44-esm100-rsr2-rcr100-esr100,exr/ReadingArea_rsl2-rcl2-esl310-rsm2-rcm44-esm100-rsr2-rcr100-esr100.exr,ReadingArea_rsl2-rcl2-esl310-rsm2-rcm44-esm100-rsr2-rcr100-esr100.npz,,,,,0,81,81,18,,right,red,0.89,678.5083210468292,678.9090270996094,,2,7,2,lightness,readingArea,realistic,75,2023-03-25_10h59.00.328,tripletExp_regina_11082022,2022.2.4,120.02037394195716,
4,1,9,2,0.694444444444444,0.298245614035088,2,0.111111111111111,0.298245614035088,2,0.444444444444444,1.0,ReadingArea_rsl2-rcl69-esl29-rsm2-rcm11-esm29-rsr2-rcr44-esr100,exr/ReadingArea_rsl2-rcl69-esl29-rsm2-rcm11-esm29-rsr2-rcr44-esr100.exr,ReadingArea_rsl2-rcl69-esl29-rsm2-rcm11-esm29-rsr2-rcr44-esr100.npz,,,,,0,82,82,7,,left,green,0.9,680.600487947464,680.9709701538086,,2,7,2,lightness,readingArea,realistic,75,2023-03-25_10h59.00.328,tripletExp_regina_11082022,2022.2.4,120.02037394195716,
1,13,8,2,0.111111111111111,0.298245614035088,2,0.111111111111111,3.10526315789474,2,0.25,1.0,ReadingArea_rsl2-rcl11-esl29-rsm2-rcm11-esm310-rsr2-rcr25-esr100,exr/ReadingArea_rsl2-rcl11-esl29-rsm2-rcm11-esm310-rsr2-rcr25-esr100.exr,ReadingArea_rsl2-rcl11-esl29-rsm2-rcm11-esm310-rsr2-rcr25-esr100.npz,,,,,0,83,83,64,,right,red,1.03,682.6867020130157,683.0818259716034,,2,7,2,lightness,readingArea,realistic,75,2023-03-25_10h59.00.328,tripletExp_regina_11082022,2022.2.4,120.02037394195716,
2,4,10,2,0.25,0.298245614035088,2,0.694444444444444,0.298245614035088,2,0.694444444444444,1.0,ReadingArea_rsl2-rcl25-esl29-rsm2-rcm69-esm29-rsr2-rcr69-esr100,exr/ReadingArea_rsl2-rcl25-esl29-rsm2-rcm69-esm29-rsr2-rcr69-esr100.exr,ReadingArea_rsl2-rcl25-esl29-rsm2-rcm69-esm29-rsr2-rcr69-esr100.npz,,,,,0,84,84,174,,right,red,1.03,684.7863659858704,685.1725571155548,,2,7,2,lightness,readingArea,realistic,75,2023-03-25_10h59.00.328,tripletExp_regina_11082022,2022.2.4,120.02037394195716,
14,2,7,2,0.25,3.10526315789474,2,0.25,0.298245614035088,2,0.111111111111111,1.0,ReadingArea_rsl2-rcl25-esl310-rsm2-rcm25-esm29-rsr2-rcr11-esr100,exr/ReadingArea_rsl2-rcl25-esl310-rsm2-rcm25-esm29-rsr2-rcr11-esr100.exr,ReadingArea_rsl2-rcl25-esl310-rsm2-rcm25-esm29-rsr2-rcr11-esr100.npz,,,,,0,85,85,569,,right,red,2.11,688.6696419715881,689.036383152008,,2,7,2,lightness,readingArea,realistic,75,2023-03-25_10h59.00.328,tripletExp_regina_11082022,2022.2.4,120.02037394195716,
14,6,2,2,0.25,3.10526315789474,2,0.027777777777778,1.0,2,0.25,0.298245614035088,ReadingArea_rsl2-rcl25-esl310-rsm2-rcm2-esm100-rsr2-rcr25-esr29,exr/ReadingArea_rsl2-rcl25-esl310-rsm2-rcm2-esm100-rsr2-rcr25-esr29.exr,ReadingArea_rsl2-rcl25-esl310-rsm2-rcm2-esm100-rsr2-rcr25-esr29.npz,,,,,0,86,86,272,,right,red,2.12,692.5381550788879,692.9187850952148,,2,7,2,lightness,readingArea,realistic,75,2023-03-25_10h59.00.328,tripletExp_regina_11082022,2022.2.4,120.02037394195716,
2,9,11,2,0.25,0.298245614035088,2,0.444444444444444,1.0,2,1.0,1.0,ReadingArea_rsl2-rcl25-esl29-rsm2-rcm44-esm100-rsr2-rcr100-esr100,exr/ReadingArea_rsl2-rcl25-esl29-rsm2-rcm44-esm100-rsr2-rcr100-esr100.exr,ReadingArea_rsl2-rcl25-esl29-rsm2-rcm44-esm100-rsr2-rcr100-esr100.npz,,,,,0,87,87,164,,right,red,1.26,694.6075720787048,694.993175983429,,2,7,2,lightness,readingArea,realistic,75,2023-03-25_10h59.00.328,tripletExp_regina_11082022,2022.2.4,120.02037394195716,
10,14,4,2,0.694444444444444,1.0,2,0.25,3.10526315789474,2,0.694444444444444,0.298245614035088,ReadingArea_rsl2-rcl69-esl100-rsm2-rcm25-esm310-rsr2-rcr69-esr29,exr/ReadingArea_rsl2-rcl69-esl100-rsm2-rcm25-esm310-rsr2-rcr69-esr29.exr,ReadingArea_rsl2-rcl69-esl100-rsm2-rcm25-esm310-rsr2-rcr69-esr29.npz,,,,,0,88,88,267,,left,green,0.73,696.6939499378204,697.0550789833069,,2,7,2,lightness,readingArea,realistic,75,2023-03-25_10h59.00.328,tripletExp_regina_11082022,2022.2.4,120.02037394195716,
12,3,13,2,0.027777777777778,3.10526315789474,2,0.444444444444444,0.298245614035088,2,0.111111111111111,3.10526315789474,ReadingArea_rsl2-rcl2-esl310-rsm2-rcm44-esm29-rsr2-rcr11-esr310,exr/ReadingArea_rsl2-rcl2-esl310-rsm2-rcm44-esm29-rsr2-rcr11-esr310.exr,ReadingArea_rsl2-rcl2-esl310-rsm2-rcm44-esm29-rsr2-rcr11-esr310.npz,,,,,0,89,89,383,,right,red,0.6,698.7610340118408,699.1542041301727,,2,7,2,lightness,readingArea,realistic,75,2023-03-25_10h59.00.328,tripletExp_regina_11082022,2022.2.4,120.02037394195716,
13,10,9,2,0.111111111111111,3.10526315789474,2,0.694444444444444,1.0,2,0.444444444444444,1.0,ReadingArea_rsl2-rcl11-esl310-rsm2-rcm69-esm100-rsr2-rcr44-esr100,exr/ReadingArea_rsl2-rcl11-esl310-rsm2-rcm69-esm100-rsr2-rcr44-esr100.exr,ReadingArea_rsl2-rcl11-esl310-rsm2-rcm69-esm100-rsr2-rcr44-esr100.npz,,,,,0,90,90,330,,right,red,0.82,700.8452680110931,701.2202670574188,,2,7,2,lightness,readingArea,realistic,75,2023-03-25_10h59.00.328,tripletExp_regina_11082022,2022.2.4,120.02037394195716,
7,0,3,2,0.111111111111111,1.0,2,0.027777777777778,0.298245614035088,2,0.444444444444444,0.298245614035088,ReadingArea_rsl2-rcl11-esl100-rsm2-rcm2-esm29-rsr2-rcr44-esr29,exr/ReadingArea_rsl2-rcl11-esl100-rsm2-rcm2-esm29-rsr2-rcr44-esr29.exr,ReadingArea_rsl2-rcl11-esl100-rsm2-rcm2-esm29-rsr2-rcr44-esr29.npz,,,,,0,91,91,237,,left,green,2.62,704.7072319984436,705.1004619598389,,2,7,2,lightness,readingArea,realistic,75,2023-03-25_10h59.00.328,tripletExp_regina_11082022,2022.2.4,120.02037394195716,
12,5,4,2,0.027777777777778,3.10526315789474,2,1.0,0.298245614035088,2,0.694444444444444,0.298245614035088,ReadingArea_rsl2-rcl2-esl310-rsm2-rcm100-esm29-rsr2-rcr69-esr29,exr/ReadingArea_rsl2-rcl2-esl310-rsm2-rcm100-esm29-rsr2-rcr69-esr29.exr,ReadingArea_rsl2-rcl2-esl310-rsm2-rcm100-esm29-rsr2-rcr69-esr29.npz,,,,,0,92,92,566,,right,red,0.83,706.8184640407562,707.2011229991913,,2,7,2,lightness,readingArea,realistic,75,2023-03-25_10h59.00.328,tripletExp_regina_11082022,2022.2.4,120.02037394195716,
3,4,5,2,0.444444444444444,0.298245614035088,2,0.694444444444444,0.298245614035088,2,1.0,0.298245614035088,ReadingArea_rsl2-rcl44-esl29-rsm2-rcm69-esm29-rsr2-rcr100-esr29,exr/ReadingArea_rsl2-rcl44-esl29-rsm2-rcm69-esm29-rsr2-rcr100-esr29.exr,ReadingArea_rsl2-rcl44-esl29-rsm2-rcm69-esm29-rsr2-rcr100-esr29.npz,,,,,0,93,93,233,,right,red,1.2,708.9069859981537,709.2818710803986,,2,7,2,lightness,readingArea,realistic,75,2023-03-25_10h59.00.328,tripletExp_regina_11082022,2022.2.4,120.02037394195716,
14,7,0,2,0.25,3.10526315789474,2,0.111111111111111,1.0,2,0.027777777777778,0.298245614035088,ReadingArea_rsl2-rcl25-esl310-rsm2-rcm11-esm100-rsr2-rcr2-esr29,exr/ReadingArea_rsl2-rcl25-esl310-rsm2-rcm11-esm100-rsr2-rcr2-esr29.exr,ReadingArea_rsl2-rcl25-esl310-rsm2-rcm11-esm100-rsr2-rcr2-esr29.npz,,,,,0,94,94,412,,left,green,0.87,710.996885061264,711.3700051307678,,2,7,2,lightness,readingArea,realistic,75,2023-03-25_10h59.00.328,tripletExp_regina_11082022,2022.2.4,120.02037394195716,
13,0,4,2,0.111111111111111,3.10526315789474,2,0.027777777777778,0.298245614035088,2,0.694444444444444,0.298245614035088,ReadingArea_rsl2-rcl11-esl310-rsm2-rcm2-esm29-rsr2-rcr69-esr29,exr/ReadingArea_rsl2-rcl11-esl310-rsm2-rcm2-esm29-rsr2-rcr69-esr29.exr,ReadingArea_rsl2-rcl11-esl310-rsm2-rcm2-esm29-rsr2-rcr69-esr29.npz,,,,,0,95,95,270,,right,red,2.17,714.8288819789886,715.2145121097565,,2,7,2,lightness,readingArea,realistic,75,2023-03-25_10h59.00.328,tripletExp_regina_11082022,2022.2.4,120.02037394195716,
3,9,10,2,0.444444444444444,0.298245614035088,2,0.444444444444444,1.0,2,0.694444444444444,1.0,ReadingArea_rsl2-rcl44-esl29-rsm2-rcm44-esm100-rsr2-rcr69-esr100,exr/ReadingArea_rsl2-rcl44-esl29-rsm2-rcm44-esm100-rsr2-rcr69-esr100.exr,ReadingArea_rsl2-rcl44-esl29-rsm2-rcm44-esm100-rsr2-rcr69-esr100.npz,,,,,0,96,96,581,,right,red,0.7,716.9277241230011,717.3025500774384,,2,7,2,lightness,readingArea,realistic,75,2023-03-25_10h59.00.328,tripletExp_regina_11082022,2022.2.4,120.02037394195716,
7,5,11,2,0.111111111111111,1.0,2,1.0,0.298245614035088,2,1.0,1.0,ReadingArea_rsl2-rcl11-esl100-rsm2-rcm100-esm29-rsr2-rcr100-esr100,exr/ReadingArea_rsl2-rcl11-esl100-rsm2-rcm100-esm29-rsr2-rcr100-esr100.exr,ReadingArea_rsl2-rcl11-esl100-rsm2-rcm100-esm29-rsr2-rcr100-esr100.npz,,,,,0,97,97,10,,right,red,1.01,718.9961581230164,719.376186132431,,2,7,2,lightness,readingArea,realistic,75,2023-03-25_10h59.00.328,tripletExp_regina_11082022,2022.2.4,120.02037394195716,
3,14,5,2,0.444444444444444,0.298245614035088,2,0.25,3.10526315789474,2,1.0,0.298245614035088,ReadingArea_rsl2-rcl44-esl29-rsm2-rcm25-esm310-rsr2-rcr100-esr29,exr/ReadingArea_rsl2-rcl44-esl29-rsm2-rcm25-esm310-rsr2-rcr100-esr29.exr,ReadingArea_rsl2-rcl44-esl29-rsm2-rcm25-esm310-rsr2-rcr100-esr29.npz,,,,,0,98,98,131,,right,red,2.14,722.869891166687,723.2503790855408,,2,7,2,lightness,readingArea,realistic,75,2023-03-25_10h59.00.328,tripletExp_regina_11082022,2022.2.4,120.02037394195716,
6,12,3,2,0.027777777777778,1.0,2,0.027777777777778,3.10526315789474,2,0.444444444444444,0.298245614035088,ReadingArea_rsl2-rcl2-esl100-rsm2-rcm2-esm310-rsr2-rcr44-esr29,exr/ReadingArea_rsl2-rcl2-esl100-rsm2-rcm2-esm310-rsr2-rcr44-esr29.exr,ReadingArea_rsl2-rcl2-esl100-rsm2-rcm2-esm310-rsr2-rcr44-esr29.npz,,,,,0,99,99,284,,right,red,2.11,726.698438167572,727.0840909481049,,2,7,2,lightness,readingArea,realistic,75,2023-03-25_10h59.00.328,tripletExp_regina_11082022,2022.2.4,120.02037394195716,
7,13,5,2,0.111111111111111,1.0,2,0.111111111111111,3.10526315789474,2,1.0,0.298245614035088,ReadingArea_rsl2-rcl11-esl100-rsm2-rcm11-esm310-rsr2-rcr100-esr29,exr/ReadingArea_rsl2-rcl11-esl100-rsm2-rcm11-esm310-rsr2-rcr100-esr29.exr,ReadingArea_rsl2-rcl11-esl100-rsm2-rcm11-esm310-rsr2-rcr100-esr29.npz,,,,,0,100,100,332,,right,red,2.04,730.5908060073853,730.9605000019073,,2,7,2,lightness,readingArea,realistic,75,2023-03-25_10h59.00.328,tripletExp_regina_11082022,2022.2.4,120.02037394195716,
7,2,0,2,0.111111111111111,1.0,2,0.25,0.298245614035088,2,0.027777777777778,0.298245614035088,ReadingArea_rsl2-rcl11-esl100-rsm2-rcm25-esm29-rsr2-rcr2-esr29,exr/ReadingArea_rsl2-rcl11-esl100-rsm2-rcm25-esm29-rsr2-rcr2-esr29.exr,ReadingArea_rsl2-rcl11-esl100-rsm2-rcm25-esm29-rsr2-rcr2-esr29.npz,,,,,0,101,101,520,,left,green,0.8,732.65327501297,733.1242311000824,,2,7,2,lightness,readingArea,realistic,75,2023-03-25_10h59.00.328,tripletExp_regina_11082022,2022.2.4,120.02037394195716,
13,2,9,2,0.111111111111111,3.10526315789474,2,0.25,0.298245614035088,2,0.444444444444444,1.0,ReadingArea_rsl2-rcl11-esl310-rsm2-rcm25-esm29-rsr2-rcr44-esr100,exr/ReadingArea_rsl2-rcl11-esl310-rsm2-rcm25-esm29-rsr2-rcr44-esr100.exr,ReadingArea_rsl2-rcl11-esl310-rsm2-rcm25-esm29-rsr2-rcr44-esr100.npz,,,,,0,102,102,457,,left,green,2.26,736.5779280662537,736.9599659442902,,2,7,2,lightness,readingArea,realistic,75,2023-03-25_10h59.00.328,tripletExp_regina_11082022,2022.2.4,120.02037394195716,
6,12,0,2,0.027777777777778,1.0,2,0.027777777777778,3.10526315789474,2,0.027777777777778,0.298245614035088,ReadingArea_rsl2-rcl2-esl100-rsm2-rcm2-esm310-rsr2-rcr2-esr29,exr/ReadingArea_rsl2-rcl2-esl100-rsm2-rcm2-esm310-rsr2-rcr2-esr29.exr,ReadingArea_rsl2-rcl2-esl100-rsm2-rcm2-esm310-rsr2-rcr2-esr29.npz,,,,,0,103,103,23,,left,green,2.08,740.429053068161,740.8133859634399,,2,7,2,lightness,readingArea,realistic,75,2023-03-25_10h59.00.328,tripletExp_regina_11082022,2022.2.4,120.02037394195716,
7,10,5,2,0.111111111111111,1.0,2,0.694444444444444,1.0,2,1.0,0.298245614035088,ReadingArea_rsl2-rcl11-esl100-rsm2-rcm69-esm100-rsr2-rcr100-esr29,exr/ReadingArea_rsl2-rcl11-esl100-rsm2-rcm69-esm100-rsr2-rcr100-esr29.exr,ReadingArea_rsl2-rcl11-esl100-rsm2-rcm69-esm100-rsr2-rcr100-esr29.npz,,,,,0,104,104,395,,right,red,1.23,742.5065741539001,742.8855011463165,,2,7,2,lightness,readingArea,realistic,75,2023-03-25_10h59.00.328,tripletExp_regina_11082022,2022.2.4,120.02037394195716,
8,6,0,2,0.25,1.0,2,0.027777777777778,1.0,2,0.027777777777778,0.298245614035088,ReadingArea_rsl2-rcl25-esl100-rsm2-rcm2-esm100-rsr2-rcr2-esr29,exr/ReadingArea_rsl2-rcl25-esl100-rsm2-rcm2-esm100-rsr2-rcr2-esr29.exr,ReadingArea_rsl2-rcl25-esl100-rsm2-rcm2-esm100-rsr2-rcr2-esr29.npz,,,,,0,105,105,187,,left,green,0.96,744.6087291240692,744.9838719367981,,2,7,2,lightness,readingArea,realistic,75,2023-03-25_10h59.00.328,tripletExp_regina_11082022,2022.2.4,120.02037394195716,
5,9,0,2,1.0,0.298245614035088,2,0.444444444444444,1.0,2,0.027777777777778,0.298245614035088,ReadingArea_rsl2-rcl100-esl29-rsm2-rcm44-esm100-rsr2-rcr2-esr29,exr/ReadingArea_rsl2-rcl100-esl29-rsm2-rcm44-esm100-rsr2-rcr2-esr29.exr,ReadingArea_rsl2-rcl100-esl29-rsm2-rcm44-esm100-rsr2-rcr2-esr29.npz,,,,,0,106,106,575,,left,green,0.59,746.6764271259308,747.0933721065521,,2,7,2,lightness,readingArea,realistic,75,2023-03-25_10h59.00.328,tripletExp_regina_11082022,2022.2.4,120.02037394195716,
1,4,7,2,0.111111111111111,0.298245614035088,2,0.694444444444444,0.298245614035088,2,0.111111111111111,1.0,ReadingArea_rsl2-rcl11-esl29-rsm2-rcm69-esm29-rsr2-rcr11-esr100,exr/ReadingArea_rsl2-rcl11-esl29-rsm2-rcm69-esm29-rsr2-rcr11-esr100.exr,ReadingArea_rsl2-rcl11-esl29-rsm2-rcm69-esm29-rsr2-rcr11-esr100.npz,,,,,0,107,107,522,,right,red,0.61,748.7849550247192,749.1602749824524,,2,7,2,lightness,readingArea,realistic,75,2023-03-25_10h59.00.328,tripletExp_regina_11082022,2022.2.4,120.02037394195716,
11,2,4,2,1.0,1.0,2,0.25,0.298245614035088,2,0.694444444444444,0.298245614035088,ReadingArea_rsl2-rcl100-esl100-rsm2-rcm25-esm29-rsr2-rcr69-esr29,exr/ReadingArea_rsl2-rcl100-esl100-rsm2-rcm25-esm29-rsr2-rcr69-esr29.exr,ReadingArea_rsl2-rcl100-esl100-rsm2-rcm25-esm29-rsr2-rcr69-esr29.npz,,,,,0,108,108,359,,right,red,2.11,752.6221671104431,753.0134451389313,,2,7,2,lightness,readingArea,realistic,75,2023-03-25_10h59.00.328,tripletExp_regina_11082022,2022.2.4,120.02037394195716,
8,9,1,2,0.25,1.0,2,0.444444444444444,1.0,2,0.111111111111111,0.298245614035088,ReadingArea_rsl2-rcl25-esl100-rsm2-rcm44-esm100-rsr2-rcr11-esr29,exr/ReadingArea_rsl2-rcl25-esl100-rsm2-rcm44-esm100-rsr2-rcr11-esr29.exr,ReadingArea_rsl2-rcl25-esl100-rsm2-rcm44-esm100-rsr2-rcr11-esr29.npz,,,,,0,109,109,266,,left,green,0.69,754.7121291160583,755.0818920135498,,2,7,2,lightness,readingArea,realistic,75,2023-03-25_10h59.00.328,tripletExp_regina_11082022,2022.2.4,120.02037394195716,
11,10,0,2,1.0,1.0,2,0.694444444444444,1.0,2,0.027777777777778,0.298245614035088,ReadingArea_rsl2-rcl100-esl100-rsm2-rcm69-esm100-rsr2-rcr2-esr29,exr/ReadingArea_rsl2-rcl100-esl100-rsm2-rcm69-esm100-rsr2-rcr2-esr29.exr,ReadingArea_rsl2-rcl100-esl100-rsm2-rcm69-esm100-rsr2-rcr2-esr29.npz,,,,,0,110,110,549,,left,green,0.57,756.7887010574341,757.1788020133972,,2,7,2,lightness,readingArea,realistic,75,2023-03-25_10h59.00.328,tripletExp_regina_11082022,2022.2.4,120.02037394195716,
7,14,5,2,0.111111111111111,1.0,2,0.25,3.10526315789474,2,1.0,0.298245614035088,ReadingArea_rsl2-rcl11-esl100-rsm2-rcm25-esm310-rsr2-rcr100-esr29,exr/ReadingArea_rsl2-rcl11-esl100-rsm2-rcm25-esm310-rsr2-rcr100-esr29.exr,ReadingArea_rsl2-rcl11-esl100-rsm2-rcm25-esm310-rsr2-rcr100-esr29.npz,,,,,0,111,111,372,,right,red,0.59,758.9025671482086,759.2649619579315,,2,7,2,lightness,readingArea,realistic,75,2023-03-25_10h59.00.328,tripletExp_regina_11082022,2022.2.4,120.02037394195716,
9,11,10,2,0.444444444444444,1.0,2,1.0,1.0,2,0.694444444444444,1.0,ReadingArea_rsl2-rcl44-esl100-rsm2-rcm100-esm100-rsr2-rcr69-esr100,exr/ReadingArea_rsl2-rcl44-esl100-rsm2-rcm100-esm100-rsr2-rcr69-esr100.exr,ReadingArea_rsl2-rcl44-esl100-rsm2-rcm100-esm100-rsr2-rcr69-esr100.npz,,,,,0,112,112,591,,right,red,0.77,760.9614579677582,761.3496220111847,,2,7,2,lightness,readingArea,realistic,75,2023-03-25_10h59.00.328,tripletExp_regina_11082022,2022.2.4,120.02037394195716,
10,8,11,2,0.694444444444444,1.0,2,0.25,1.0,2,1.0,1.0,ReadingArea_rsl2-rcl69-esl100-rsm2-rcm25-esm100-rsr2-rcr100-esr100,exr/ReadingArea_rsl2-rcl69-esl100-rsm2-rcm25-esm100-rsr2-rcr100-esr100.exr,ReadingArea_rsl2-rcl69-esl100-rsm2-rcm25-esm100-rsr2-rcr100-esr100.npz,,,,,0,113,113,578,,right,red,1.25,763.0557751655579,,,2,7,2,lightness,readingArea,realistic,75,2023-03-25_10h59.00.328,tripletExp_regina_11082022,2022.2.4,120.02037394195716,
5,14,3,2,1.0,0.298245614035088,2,0.25,3.10526315789474,2,0.444444444444444,0.298245614035088,ReadingArea_rsl2-rcl100-esl29-rsm2-rcm25-esm310-rsr2-rcr44-esr29,exr/ReadingArea_rsl2-rcl100-esl29-rsm2-rcm25-esm310-rsr2-rcr44-esr29.exr,ReadingArea_rsl2-rcl100-esl29-rsm2-rcm25-esm310-rsr2-rcr44-esr29.npz,,,,,0,114,114,93,,left,green,1.07,765.1472401618958,765.5464770793915,,2,7,2,lightness,readingArea,realistic,75,2023-03-25_10h59.00.328,tripletExp_regina_11082022,2022.2.4,120.02037394195716,
14,6,13,2,0.25,3.10526315789474,2,0.027777777777778,1.0,2,0.111111111111111,3.10526315789474,ReadingArea_rsl2-rcl25-esl310-rsm2-rcm2-esm100-rsr2-rcr11-esr310,exr/ReadingArea_rsl2-rcl25-esl310-rsm2-rcm2-esm100-rsr2-rcr11-esr310.exr,ReadingArea_rsl2-rcl25-esl310-rsm2-rcm2-esm100-rsr2-rcr11-esr310.npz,,,,,0,115,115,91,,right,red,1.99,768.9901740550995,,,2,7,2,lightness,readingArea,realistic,75,2023-03-25_10h59.00.328,tripletExp_regina_11082022,2022.2.4,120.02037394195716,
5,2,8,2,1.0,0.298245614035088,2,0.25,0.298245614035088,2,0.25,1.0,ReadingArea_rsl2-rcl100-esl29-rsm2-rcm25-esm29-rsr2-rcr25-esr100,exr/ReadingArea_rsl2-rcl100-esl29-rsm2-rcm25-esm29-rsr2-rcr25-esr100.exr,ReadingArea_rsl2-rcl100-esl29-rsm2-rcm25-esm29-rsr2-rcr25-esr100.npz,,,,,0,116,116,538,,left,green,1.05,771.1795430183411,771.5732991695404,,2,7,2,lightness,readingArea,realistic,75,2023-03-25_10h59.00.328,tripletExp_regina_11082022,2022.2.4,120.02037394195716,
2,1,10,2,0.25,0.298245614035088,2,0.111111111111111,0.298245614035088,2,0.694444444444444,1.0,ReadingArea_rsl2-rcl25-esl29-rsm2-rcm11-esm29-rsr2-rcr69-esr100,exr/ReadingArea_rsl2-rcl25-esl29-rsm2-rcm11-esm29-rsr2-rcr69-esr100.exr,ReadingArea_rsl2-rcl25-esl29-rsm2-rcm11-esm29-rsr2-rcr69-esr100.npz,,,,,0,117,117,585,,right,red,0.61,773.264771938324,773.6366879940033,,2,7,2,lightness,readingArea,realistic,75,2023-03-25_10h59.00.328,tripletExp_regina_11082022,2022.2.4,120.02037394195716,
0,5,2,2,0.027777777777778,0.298245614035088,2,1.0,0.298245614035088,2,0.25,0.298245614035088,ReadingArea_rsl2-rcl2-esl29-rsm2-rcm100-esm29-rsr2-rcr25-esr29,exr/ReadingArea_rsl2-rcl2-esl29-rsm2-rcm100-esm29-rsr2-rcr25-esr29.exr,ReadingArea_rsl2-rcl2-esl29-rsm2-rcm100-esm29-rsr2-rcr25-esr29.npz,,,,,0,118,118,25,,right,red,2.01,777.119145154953,777.4896769523621,,2,7,2,lightness,readingArea,realistic,75,2023-03-25_10h59.00.328,tripletExp_regina_11082022,2022.2.4,120.02037394195716,
6,1,10,2,0.027777777777778,1.0,2,0.111111111111111,0.298245614035088,2,0.694444444444444,1.0,ReadingArea_rsl2-rcl2-esl100-rsm2-rcm11-esm29-rsr2-rcr69-esr100,exr/ReadingArea_rsl2-rcl2-esl100-rsm2-rcm11-esm29-rsr2-rcr69-esr100.exr,ReadingArea_rsl2-rcl2-esl100-rsm2-rcm11-esm29-rsr2-rcr69-esr100.npz,,,,,0,119,119,561,,left,green,0.92,779.1855800151825,779.5755529403687,,2,7,2,lightness,readingArea,realistic,75,2023-03-25_10h59.00.328,tripletExp_regina_11082022,2022.2.4,120.02037394195716,
11,5,8,2,1.0,1.0,2,1.0,0.298245614035088,2,0.25,1.0,ReadingArea_rsl2-rcl100-esl100-rsm2-rcm100-esm29-rsr2-rcr25-esr100,exr/ReadingArea_rsl2-rcl100-esl100-rsm2-rcm100-esm29-rsr2-rcr25-esr100.exr,ReadingArea_rsl2-rcl100-esl100-rsm2-rcm100-esm29-rsr2-rcr25-esr100.npz,,,,,0,120,120,86,,right,red,2.03,783.0425410270691,,,2,7,2,lightness,readingArea,realistic,75,2023-03-25_10h59.00.328,tripletExp_regina_11082022,2022.2.4,120.02037394195716,
3,4,13,2,0.444444444444444,0.298245614035088,2,0.694444444444444,0.298245614035088,2,0.111111111111111,3.10526315789474,ReadingArea_rsl2-rcl44-esl29-rsm2-rcm69-esm29-rsr2-rcr11-esr310,exr/ReadingArea_rsl2-rcl44-esl29-rsm2-rcm69-esm29-rsr2-rcr11-esr310.exr,ReadingArea_rsl2-rcl44-esl29-rsm2-rcm69-esm29-rsr2-rcr11-esr310.npz,,,,,0,121,121,63,,left,green,0.72,785.1270101070404,785.5229649543762,,2,7,2,lightness,readingArea,realistic,75,2023-03-25_10h59.00.328,tripletExp_regina_11082022,2022.2.4,120.02037394195716,
12,8,9,2,0.027777777777778,3.10526315789474,2,0.25,1.0,2,0.444444444444444,1.0,ReadingArea_rsl2-rcl2-esl310-rsm2-rcm25-esm100-rsr2-rcr44-esr100,exr/ReadingArea_rsl2-rcl2-esl310-rsm2-rcm25-esm100-rsr2-rcr44-esr100.exr,ReadingArea_rsl2-rcl2-esl310-rsm2-rcm25-esm100-rsr2-rcr44-esr100.npz,,,,,0,122,122,517,,left,green,2.46,788.9985041618347,789.3875770568848,,2,7,2,lightness,readingArea,realistic,75,2023-03-25_10h59.00.328,tripletExp_regina_11082022,2022.2.4,120.02037394195716,
3,1,6,2,0.444444444444444,0.298245614035088,2,0.111111111111111,0.298245614035088,2,0.027777777777778,1.0,ReadingArea_rsl2-rcl44-esl29-rsm2-rcm11-esm29-rsr2-rcr2-esr100,exr/ReadingArea_rsl2-rcl44-esl29-rsm2-rcm11-esm29-rsr2-rcr2-esr100.exr,ReadingArea_rsl2-rcl44-esl29-rsm2-rcm11-esm29-rsr2-rcr2-esr100.npz,,,,,0,123,123,464,,right,red,1.99,792.8554949760437,793.3076870441437,,2,7,2,lightness,readingArea,realistic,75,2023-03-25_10h59.00.328,tripletExp_regina_11082022,2022.2.4,120.02037394195716,
0,5,7,2,0.027777777777778,0.298245614035088,2,1.0,0.298245614035088,2,0.111111111111111,1.0,ReadingArea_rsl2-rcl2-esl29-rsm2-rcm100-esm29-rsr2-rcr11-esr100,exr/ReadingArea_rsl2-rcl2-esl29-rsm2-rcm100-esm29-rsr2-rcr11-esr100.exr,ReadingArea_rsl2-rcl2-esl29-rsm2-rcm100-esm29-rsr2-rcr11-esr100.npz,,,,,0,124,124,217,,right,red,2.06,796.7811479568481,797.1526210308075,,2,7,2,lightness,readingArea,realistic,75,2023-03-25_10h59.00.328,tripletExp_regina_11082022,2022.2.4,120.02037394195716,
0,8,9,2,0.027777777777778,0.298245614035088,2,0.25,1.0,2,0.444444444444444,1.0,ReadingArea_rsl2-rcl2-esl29-rsm2-rcm25-esm100-rsr2-rcr44-esr100,exr/ReadingArea_rsl2-rcl2-esl29-rsm2-rcm25-esm100-rsr2-rcr44-esr100.exr,ReadingArea_rsl2-rcl2-esl29-rsm2-rcm25-esm100-rsr2-rcr44-esr100.npz,,,,,0,125,125,541,,right,red,0.99,798.8523709774017,799.2283911705017,,2,7,2,lightness,readingArea,realistic,75,2023-03-25_10h59.00.328,tripletExp_regina_11082022,2022.2.4,120.02037394195716,
0,9,10,2,0.027777777777778,0.298245614035088,2,0.444444444444444,1.0,2,0.694444444444444,1.0,ReadingArea_rsl2-rcl2-esl29-rsm2-rcm44-esm100-rsr2-rcr69-esr100,exr/ReadingArea_rsl2-rcl2-esl29-rsm2-rcm44-esm100-rsr2-rcr69-esr100.exr,ReadingArea_rsl2-rcl2-esl29-rsm2-rcm44-esm100-rsr2-rcr69-esr100.npz,,,,,0,126,126,434,,right,red,1.03,800.9278540611267,801.291023015976,,2,7,2,lightness,readingArea,realistic,75,2023-03-25_10h59.00.328,tripletExp_regina_11082022,2022.2.4,120.02037394195716,
0,5,1,2,0.027777777777778,0.298245614035088,2,1.0,0.298245614035088,2,0.111111111111111,0.298245614035088,ReadingArea_rsl2-rcl2-esl29-rsm2-rcm100-esm29-rsr2-rcr11-esr29,exr/ReadingArea_rsl2-rcl2-esl29-rsm2-rcm100-esm29-rsr2-rcr11-esr29.exr,ReadingArea_rsl2-rcl2-esl29-rsm2-rcm100-esm29-rsr2-rcr11-esr29.npz,,,,,0,127,127,367,,right,red,2.13,804.7751109600067,805.1577160358429,,2,7,2,lightness,readingArea,realistic,75,2023-03-25_10h59.00.328,tripletExp_regina_11082022,2022.2.4,120.02037394195716,
10,7,2,2,0.694444444444444,1.0,2,0.111111111111111,1.0,2,0.25,0.298245614035088,ReadingArea_rsl2-rcl69-esl100-rsm2-rcm11-esm100-rsr2-rcr25-esr29,exr/ReadingArea_rsl2-rcl69-esl100-rsm2-rcm11-esm100-rsr2-rcr25-esr29.exr,ReadingArea_rsl2-rcl69-esl100-rsm2-rcm11-esm100-rsr2-rcr25-esr29.npz,,,,,0,128,128,523,,right,red,2.03,808.6400561332703,809.1304070949554,,2,7,2,lightness,readingArea,realistic,75,2023-03-25_10h59.00.328,tripletExp_regina_11082022,2022.2.4,120.02037394195716,
4,2,13,2,0.694444444444444,0.298245614035088,2,0.25,0.298245614035088,2,0.111111111111111,3.10526315789474,ReadingArea_rsl2-rcl69-esl29-rsm2-rcm25-esm29-rsr2-rcr11-esr310,exr/ReadingArea_rsl2-rcl69-esl29-rsm2-rcm25-esm29-rsr2-rcr11-esr310.exr,ReadingArea_rsl2-rcl69-esl29-rsm2-rcm25-esm29-rsr2-rcr11-esr310.npz,,,,,0,129,129,304,,left,green,3.88,814.3594560623169,814.7455830574036,,2,7,2,lightness,readingArea,realistic,75,2023-03-25_10h59.00.328,tripletExp_regina_11082022,2022.2.4,120.02037394195716,
3,8,1,2,0.444444444444444,0.298245614035088,2,0.25,1.0,2,0.111111111111111,0.298245614035088,ReadingArea_rsl2-rcl44-esl29-rsm2-rcm25-esm100-rsr2-rcr11-esr29,exr/ReadingArea_rsl2-rcl44-esl29-rsm2-rcm25-esm100-rsr2-rcr11-esr29.exr,ReadingArea_rsl2-rcl44-esl29-rsm2-rcm25-esm100-rsr2-rcr11-esr29.npz,,,,,0,130,130,230,,left,green,1.93,818.2417759895325,818.6306569576263,,2,7,2,lightness,readingArea,realistic,75,2023-03-25_10h59.00.328,tripletExp_regina_11082022,2022.2.4,120.02037394195716,
10,5,1,2,0.694444444444444,1.0,2,1.0,0.298245614035088,2,0.111111111111111,0.298245614035088,ReadingArea_rsl2-rcl69-esl100-rsm2-rcm100-esm29-rsr2-rcr11-esr29,exr/ReadingArea_rsl2-rcl69-esl100-rsm2-rcm100-esm29-rsr2-rcr11-esr29.exr,ReadingArea_rsl2-rcl69-esl100-rsm2-rcm100-esm29-rsr2-rcr11-esr29.npz,,,,,0,131,131,152,,left,green,0.76,820.3209381103516,820.696699142456,,2,7,2,lightness,readingArea,realistic,75,2023-03-25_10h59.00.328,tripletExp_regina_11082022,2022.2.4,120.02037394195716,
9,11,3,2,0.444444444444444,1.0,2,1.0,1.0,2,0.444444444444444,0.298245614035088,ReadingArea_rsl2-rcl44-esl100-rsm2-rcm100-esm100-rsr2-rcr44-esr29,exr/ReadingArea_rsl2-rcl44-esl100-rsm2-rcm100-esm100-rsr2-rcr44-esr29.exr,ReadingArea_rsl2-rcl44-esl100-rsm2-rcm100-esm100-rsr2-rcr44-esr29.npz,,,,,0,132,132,348,,left,green,2.13,824.1686429977417,824.7040190696716,,2,7,2,lightness,readingArea,realistic,75,2023-03-25_10h59.00.328,tripletExp_regina_11082022,2022.2.4,120.02037394195716,
13,8,14,2,0.111111111111111,3.10526315789474,2,0.25,1.0,2,0.25,3.10526315789474,ReadingArea_rsl2-rcl11-esl310-rsm2-rcm25-esm100-rsr2-rcr25-esr310,exr/ReadingArea_rsl2-rcl11-esl310-rsm2-rcm25-esm100-rsr2-rcr25-esr310.exr,ReadingArea_rsl2-rcl11-esl310-rsm2-rcm25-esm100-rsr2-rcr25-esr310.npz,,,,,0,133,133,345,,left,green,2.14,828.1917970180511,,,2,7,2,lightness,readingArea,realistic,75,2023-03-25_10h59.00.328,tripletExp_regina_11082022,2022.2.4,120.02037394195716,
14,0,3,2,0.25,3.10526315789474,2,0.027777777777778,0.298245614035088,2,0.444444444444444,0.298245614035088,ReadingArea_rsl2-rcl25-esl310-rsm2-rcm2-esm29-rsr2-rcr44-esr29,exr/ReadingArea_rsl2-rcl25-esl310-rsm2-rcm2-esm29-rsr2-rcr44-esr29.exr,ReadingArea_rsl2-rcl25-esl310-rsm2-rcm2-esm29-rsr2-rcr44-esr29.npz,,,,,0,134,134,75,,right,red,2.1,832.0448670387268,832.4245581626892,,2,7,2,lightness,readingArea,realistic,75,2023-03-25_10h59.00.328,tripletExp_regina_11082022,2022.2.4,120.02037394195716,
2,0,13,2,0.25,0.298245614035088,2,0.027777777777778,0.298245614035088,2,0.111111111111111,3.10526315789474,ReadingArea_rsl2-rcl25-esl29-rsm2-rcm2-esm29-rsr2-rcr11-esr310,exr/ReadingArea_rsl2-rcl25-esl29-rsm2-rcm2-esm29-rsr2-rcr11-esr310.exr,ReadingArea_rsl2-rcl25-esl29-rsm2-rcm2-esm29-rsr2-rcr11-esr310.npz,,,,,0,135,135,50,,left,green,2.04,835.8831231594086,836.2726800441742,,2,7,2,lightness,readingArea,realistic,75,2023-03-25_10h59.00.328,tripletExp_regina_11082022,2022.2.4,120.02037394195716,
8,10,9,2,0.25,1.0,2,0.694444444444444,1.0,2,0.444444444444444,1.0,ReadingArea_rsl2-rcl25-esl100-rsm2-rcm69-esm100-rsr2-rcr44-esr100,exr/ReadingArea_rsl2-rcl25-esl100-rsm2-rcm69-esm100-rsr2-rcr44-esr100.exr,ReadingArea_rsl2-rcl25-esl100-rsm2-rcm69-esm100-rsr2-rcr44-esr100.npz,,,,,0,136,136,342,,right,red,0.74,837.9923219680786,,,2,7,2,lightness,readingArea,realistic,75,2023-03-25_10h59.00.328,tripletExp_regina_11082022,2022.2.4,120.02037394195716,
2,12,6,2,0.25,0.298245614035088,2,0.027777777777778,3.10526315789474,2,0.027777777777778,1.0,ReadingArea_rsl2-rcl25-esl29-rsm2-rcm2-esm310-rsr2-rcr2-esr100,exr/ReadingArea_rsl2-rcl25-esl29-rsm2-rcm2-esm310-rsr2-rcr2-esr100.exr,ReadingArea_rsl2-rcl25-esl29-rsm2-rcm2-esm310-rsr2-rcr2-esr100.npz,,,,,0,137,137,400,,left,green,0.89,840.0659761428833,840.4543671607971,,2,7,2,lightness,readingArea,realistic,75,2023-03-25_10h59.00.328,tripletExp_regina_11082022,2022.2.4,120.02037394195716,
5,0,6,2,1.0,0.298245614035088,2,0.027777777777778,0.298245614035088,2,0.027777777777778,1.0,ReadingArea_rsl2-rcl100-esl29-rsm2-rcm2-esm29-rsr2-rcr2-esr100,exr/ReadingArea_rsl2-rcl100-esl29-rsm2-rcm2-esm29-rsr2-rcr2-esr100.exr,ReadingArea_rsl2-rcl100-esl29-rsm2-rcm2-esm29-rsr2-rcr2-esr100.npz,,,,,0,138,138,1,,right,red,2.1,843.9374289512634,844.3085651397705,,2,7,2,lightness,readingArea,realistic,75,2023-03-25_10h59.00.328,tripletExp_regina_11082022,2022.2.4,120.02037394195716,
8,1,14,2,0.25,1.0,2,0.111111111111111,0.298245614035088,2,0.25,3.10526315789474,ReadingArea_rsl2-rcl25-esl100-rsm2-rcm11-esm29-rsr2-rcr25-esr310,exr/ReadingArea_rsl2-rcl25-esl100-rsm2-rcm11-esm29-rsr2-rcr25-esr310.exr,ReadingArea_rsl2-rcl25-esl100-rsm2-rcm11-esm29-rsr2-rcr25-esr310.npz,,,,,0,139,139,500,,left,green,2.07,847.7890200614929,848.1740641593933,,2,7,2,lightness,readingArea,realistic,75,2023-03-25_10h59.00.328,tripletExp_regina_11082022,2022.2.4,120.02037394195716,
5,1,13,2,1.0,0.298245614035088,2,0.111111111111111,0.298245614035088,2,0.111111111111111,3.10526315789474,ReadingArea_rsl2-rcl100-esl29-rsm2-rcm11-esm29-rsr2-rcr11-esr310,exr/ReadingArea_rsl2-rcl100-esl29-rsm2-rcm11-esm29-rsr2-rcr11-esr310.exr,ReadingArea_rsl2-rcl100-esl29-rsm2-rcm11-esm29-rsr2-rcr11-esr310.npz,,,,,0,140,140,594,,left,green,0.79,849.8821821212769,850.2769179344177,,2,7,2,lightness,readingArea,realistic,75,2023-03-25_10h59.00.328,tripletExp_regina_11082022,2022.2.4,120.02037394195716,
12,7,2,2,0.027777777777778,3.10526315789474,2,0.111111111111111,1.0,2,0.25,0.298245614035088,ReadingArea_rsl2-rcl2-esl310-rsm2-rcm11-esm100-rsr2-rcr25-esr29,exr/ReadingArea_rsl2-rcl2-esl310-rsm2-rcm11-esm100-rsr2-rcr25-esr29.exr,ReadingArea_rsl2-rcl2-esl310-rsm2-rcm11-esm100-rsr2-rcr25-esr29.npz,,,,,0,141,141,248,,right,red,0.69,851.9739179611206,852.3661601543427,,2,7,2,lightness,readingArea,realistic,75,2023-03-25_10h59.00.328,tripletExp_regina_11082022,2022.2.4,120.02037394195716,
0,10,14,2,0.027777777777778,0.298245614035088,2,0.694444444444444,1.0,2,0.25,3.10526315789474,ReadingArea_rsl2-rcl2-esl29-rsm2-rcm69-esm100-rsr2-rcr25-esr310,exr/ReadingArea_rsl2-rcl2-esl29-rsm2-rcm69-esm100-rsr2-rcr25-esr310.exr,ReadingArea_rsl2-rcl2-esl29-rsm2-rcm69-esm100-rsr2-rcr25-esr310.npz,,,,,0,142,142,31,,right,red,0.7,854.0798799991608,854.4569749832153,,2,7,2,lightness,readingArea,realistic,75,2023-03-25_10h59.00.328,tripletExp_regina_11082022,2022.2.4,120.02037394195716,
12,14,8,2,0.027777777777778,3.10526315789474,2,0.25,3.10526315789474,2,0.25,1.0,ReadingArea_rsl2-rcl2-esl310-rsm2-rcm25-esm310-rsr2-rcr25-esr100,exr/ReadingArea_rsl2-rcl2-esl310-rsm2-rcm25-esm310-rsr2-rcr25-esr100.exr,ReadingArea_rsl2-rcl2-esl310-rsm2-rcm25-esm310-rsr2-rcr25-esr100.npz,,,,,0,143,143,466,,right,red,2.15,857.9573979377747,858.352786064148,,2,7,2,lightness,readingArea,realistic,75,2023-03-25_10h59.00.328,tripletExp_regina_11082022,2022.2.4,120.02037394195716,
12,8,3,2,0.027777777777778,3.10526315789474,2,0.25,1.0,2,0.444444444444444,0.298245614035088,ReadingArea_rsl2-rcl2-esl310-rsm2-rcm25-esm100-rsr2-rcr44-esr29,exr/ReadingArea_rsl2-rcl2-esl310-rsm2-rcm25-esm100-rsr2-rcr44-esr29.exr,ReadingArea_rsl2-rcl2-esl310-rsm2-rcm25-esm100-rsr2-rcr44-esr29.npz,,,,,0,144,144,386,,right,red,2.65,861.8223690986633,862.2861490249634,,2,7,2,lightness,readingArea,realistic,75,2023-03-25_10h59.00.328,tripletExp_regina_11082022,2022.2.4,120.02037394195716,
3,7,0,2,0.444444444444444,0.298245614035088,2,0.111111111111111,1.0,2,0.027777777777778,0.298245614035088,ReadingArea_rsl2-rcl44-esl29-rsm2-rcm11-esm100-rsr2-rcr2-esr29,exr/ReadingArea_rsl2-rcl44-esl29-rsm2-rcm11-esm100-rsr2-rcr2-esr29.exr,ReadingArea_rsl2-rcl44-esl29-rsm2-rcm11-esm100-rsr2-rcr2-esr29.npz,,,,,0,145,145,327,,left,green,0.73,863.9824750423431,864.3711850643158,,2,7,2,lightness,readingArea,realistic,75,2023-03-25_10h59.00.328,tripletExp_regina_11082022,2022.2.4,120.02037394195716,
12,9,2,2,0.027777777777778,3.10526315789474,2,0.444444444444444,1.0,2,0.25,0.298245614035088,ReadingArea_rsl2-rcl2-esl310-rsm2-rcm44-esm100-rsr2-rcr25-esr29,exr/ReadingArea_rsl2-rcl2-esl310-rsm2-rcm44-esm100-rsr2-rcr25-esr29.exr,ReadingArea_rsl2-rcl2-esl310-rsm2-rcm44-esm100-rsr2-rcr25-esr29.npz,,,,,0,146,146,226,,right,red,2.01,867.8502910137177,868.2449040412903,,2,7,2,lightness,readingArea,realistic,75,2023-03-25_10h59.00.328,tripletExp_regina_11082022,2022.2.4,120.02037394195716,
2,4,13,2,0.25,0.298245614035088,2,0.694444444444444,0.298245614035088,2,0.111111111111111,3.10526315789474,ReadingArea_rsl2-rcl25-esl29-rsm2-rcm69-esm29-rsr2-rcr11-esr310,exr/ReadingArea_rsl2-rcl25-esl29-rsm2-rcm69-esm29-rsr2-rcr11-esr310.exr,ReadingArea_rsl2-rcl25-esl29-rsm2-rcm69-esm29-rsr2-rcr11-esr310.npz,,,,,0,147,147,325,,right,red,0.63,869.962443113327,870.3395359516144,,2,7,2,lightness,readingArea,realistic,75,2023-03-25_10h59.00.328,tripletExp_regina_11082022,2022.2.4,120.02037394195716,
3,6,11,2,0.444444444444444,0.298245614035088,2,0.027777777777778,1.0,2,1.0,1.0,ReadingArea_rsl2-rcl44-esl29-rsm2-rcm2-esm100-rsr2-rcr100-esr100,exr/ReadingArea_rsl2-rcl44-esl29-rsm2-rcm2-esm100-rsr2-rcr100-esr100.exr,ReadingArea_rsl2-rcl44-esl29-rsm2-rcm2-esm100-rsr2-rcr100-esr100.npz,,,,,0,148,148,155,,left,green,2.09,873.8122680187225,874.208909034729,,2,7,2,lightness,readingArea,realistic,75,2023-03-25_10h59.00.328,tripletExp_regina_11082022,2022.2.4,120.02037394195716,
8,13,2,2,0.25,1.0,2,0.111111111111111,3.10526315789474,2,0.25,0.298245614035088,ReadingArea_rsl2-rcl25-esl100-rsm2-rcm11-esm310-rsr2-rcr25-esr29,exr/ReadingArea_rsl2-rcl25-esl100-rsm2-rcm11-esm310-rsr2-rcr25-esr29.exr,ReadingArea_rsl2-rcl25-esl100-rsm2-rcm11-esm310-rsr2-rcr25-esr29.npz,,,,,0,149,149,376,,left,green,0.65,875.9007470607758,876.1055359840393,,2,7,2,lightness,readingArea,realistic,75,2023-03-25_10h59.00.328,tripletExp_regina_11082022,2022.2.4,120.02037394195716,
9,0,6,2,0.444444444444444,1.0,2,0.027777777777778,0.298245614035088,2,0.027777777777778,1.0,ReadingArea_rsl2-rcl44-esl100-rsm2-rcm2-esm29-rsr2-rcr2-esr100,exr/ReadingArea_rsl2-rcl44-esl100-rsm2-rcm2-esm29-rsr2-rcr2-esr100.exr,ReadingArea_rsl2-rcl44-esl100-rsm2-rcm2-esm29-rsr2-rcr2-esr100.npz,,,,,0,150,150,362,,right,red,1.38,915.688012123108,,,3,7,2,lightness,readingArea,realistic,75,2023-03-25_10h59.00.328,tripletExp_regina_11082022,2022.2.4,120.02037394195716,
9,0,8,2,0.444444444444444,1.0,2,0.027777777777778,0.298245614035088,2,0.25,1.0,ReadingArea_rsl2-rcl44-esl100-rsm2-rcm2-esm29-rsr2-rcr25-esr100,exr/ReadingArea_rsl2-rcl44-esl100-rsm2-rcm2-esm29-rsr2-rcr25-esr100.exr,ReadingArea_rsl2-rcl44-esl100-rsm2-rcm2-esm29-rsr2-rcr25-esr100.npz,,,,,0,151,151,27,,right,red,1.31,917.7754330635072,918.1699600219728,,3,7,2,lightness,readingArea,realistic,75,2023-03-25_10h59.00.328,tripletExp_regina_11082022,2022.2.4,120.02037394195716,
12,7,9,2,0.027777777777778,3.10526315789474,2,0.111111111111111,1.0,2,0.444444444444444,1.0,ReadingArea_rsl2-rcl2-esl310-rsm2-rcm11-esm100-rsr2-rcr44-esr100,exr/ReadingArea_rsl2-rcl2-esl310-rsm2-rcm11-esm100-rsr2-rcr44-esr100.exr,ReadingArea_rsl2-rcl2-esl310-rsm2-rcm11-esm100-rsr2-rcr44-esr100.npz,,,,,0,152,152,124,,left,green,0.95,919.8887751102448,,,3,7,2,lightness,readingArea,realistic,75,2023-03-25_10h59.00.328,tripletExp_regina_11082022,2022.2.4,120.02037394195716,
11,4,0,2,1.0,1.0,2,0.694444444444444,0.298245614035088,2,0.027777777777778,0.298245614035088,ReadingArea_rsl2-rcl100-esl100-rsm2-rcm69-esm29-rsr2-rcr2-esr29,exr/ReadingArea_rsl2-rcl100-esl100-rsm2-rcm69-esm29-rsr2-rcr2-esr29.exr,ReadingArea_rsl2-rcl100-esl100-rsm2-rcm69-esm29-rsr2-rcr2-esr29.npz,,,,,0,153,153,219,,right,red,0.98,921.9815440177916,922.3741619586943,,3,7,2,lightness,readingArea,realistic,75,2023-03-25_10h59.00.328,tripletExp_regina_11082022,2022.2.4,120.02037394195716,
2,4,6,2,0.25,0.298245614035088,2,0.694444444444444,0.298245614035088,2,0.027777777777778,1.0,ReadingArea_rsl2-rcl25-esl29-rsm2-rcm69-esm29-rsr2-rcr2-esr100,exr/ReadingArea_rsl2-rcl25-esl29-rsm2-rcm69-esm29-rsr2-rcr2-esr100.exr,ReadingArea_rsl2-rcl25-esl29-rsm2-rcm69-esm29-rsr2-rcr2-esr100.npz,,,,,0,154,154,563,,left,green,1.17,924.062863111496,924.4486050605774,,3,7,2,lightness,readingArea,realistic,75,2023-03-25_10h59.00.328,tripletExp_regina_11082022,2022.2.4,120.02037394195716,
4,5,9,2,0.694444444444444,0.298245614035088,2,1.0,0.298245614035088,2,0.444444444444444,1.0,ReadingArea_rsl2-rcl69-esl29-rsm2-rcm100-esm29-rsr2-rcr44-esr100,exr/ReadingArea_rsl2-rcl69-esl29-rsm2-rcm100-esm29-rsr2-rcr44-esr100.exr,ReadingArea_rsl2-rcl69-esl29-rsm2-rcm100-esm29-rsr2-rcr44-esr100.npz,,,,,0,155,155,211,,right,red,0.84,926.134752035141,926.5629861354828,,3,7,2,lightness,readingArea,realistic,75,2023-03-25_10h59.00.328,tripletExp_regina_11082022,2022.2.4,120.02037394195716,
4,13,1,2,0.694444444444444,0.298245614035088,2,0.111111111111111,3.10526315789474,2,0.111111111111111,0.298245614035088,ReadingArea_rsl2-rcl69-esl29-rsm2-rcm11-esm310-rsr2-rcr11-esr29,exr/ReadingArea_rsl2-rcl69-esl29-rsm2-rcm11-esm310-rsr2-rcr11-esr29.exr,ReadingArea_rsl2-rcl69-esl29-rsm2-rcm11-esm310-rsr2-rcr11-esr29.npz,,,,,0,156,156,192,,left,green,2.15,930.0628550052644,930.4523270130156,,3,7,2,lightness,readingArea,realistic,75,2023-03-25_10h59.00.328,tripletExp_regina_11082022,2022.2.4,120.02037394195716,
10,1,13,2,0.694444444444444,1.0,2,0.111111111111111,0.298245614035088,2,0.111111111111111,3.10526315789474,ReadingArea_rsl2-rcl69-esl100-rsm2-rcm11-esm29-rsr2-rcr11-esr310,exr/ReadingArea_rsl2-rcl69-esl100-rsm2-rcm11-esm29-rsr2-rcr11-esr310.exr,ReadingArea_rsl2-rcl69-esl100-rsm2-rcm11-esm29-rsr2-rcr11-esr310.npz,,,,,0,157,157,45,,left,green,2.23,933.938758134842,934.312654018402,,3,7,2,lightness,readingArea,realistic,75,2023-03-25_10h59.00.328,tripletExp_regina_11082022,2022.2.4,120.02037394195716,
14,3,6,2,0.25,3.10526315789474,2,0.444444444444444,0.298245614035088,2,0.027777777777778,1.0,ReadingArea_rsl2-rcl25-esl310-rsm2-rcm44-esm29-rsr2-rcr2-esr100,exr/ReadingArea_rsl2-rcl25-esl310-rsm2-rcm44-esm29-rsr2-rcr2-esr100.exr,ReadingArea_rsl2-rcl25-esl310-rsm2-rcm44-esm29-rsr2-rcr2-esr100.npz,,,,,0,158,158,244,,right,red,2.12,937.778568983078,938.1649310588836,,3,7,2,lightness,readingArea,realistic,75,2023-03-25_10h59.00.328,tripletExp_regina_11082022,2022.2.4,120.02037394195716,
6,11,14,2,0.027777777777778,1.0,2,1.0,1.0,2,0.25,3.10526315789474,ReadingArea_rsl2-rcl2-esl100-rsm2-rcm100-esm100-rsr2-rcr25-esr310,exr/ReadingArea_rsl2-rcl2-esl100-rsm2-rcm100-esm100-rsr2-rcr25-esr310.exr,ReadingArea_rsl2-rcl2-esl100-rsm2-rcm100-esm100-rsr2-rcr25-esr310.npz,,,,,0,159,159,262,,right,red,0.7,939.872810125351,940.2556021213531,,3,7,2,lightness,readingArea,realistic,75,2023-03-25_10h59.00.328,tripletExp_regina_11082022,2022.2.4,120.02037394195716,
3,6,10,2,0.444444444444444,0.298245614035088,2,0.027777777777778,1.0,2,0.694444444444444,1.0,ReadingArea_rsl2-rcl44-esl29-rsm2-rcm2-esm100-rsr2-rcr69-esr100,exr/ReadingArea_rsl2-rcl44-esl29-rsm2-rcm2-esm100-rsr2-rcr69-esr100.exr,ReadingArea_rsl2-rcl44-esl29-rsm2-rcm2-esm100-rsr2-rcr69-esr100.npz,,,,,0,160,160,138,,left,green,2.1,943.710175037384,944.0984489917756,,3,7,2,lightness,readingArea,realistic,75,2023-03-25_10h59.00.328,tripletExp_regina_11082022,2022.2.4,120.02037394195716,
8,6,13,2,0.25,1.0,2,0.027777777777778,1.0,2,0.111111111111111,3.10526315789474,ReadingArea_rsl2-rcl25-esl100-rsm2-rcm2-esm100-rsr2-rcr11-esr310,exr/ReadingArea_rsl2-rcl25-esl100-rsm2-rcm2-esm100-rsr2-rcr11-esr310.exr,ReadingArea_rsl2-rcl25-esl100-rsm2-rcm2-esm100-rsr2-rcr11-esr310.npz,,,,,0,161,161,440,,left,green,1.89,947.5721130371094,947.957512140274,,3,7,2,lightness,readingArea,realistic,75,2023-03-25_10h59.00.328,tripletExp_regina_11082022,2022.2.4,120.02037394195716,
14,13,6,2,0.25,3.10526315789474,2,0.111111111111111,3.10526315789474,2,0.027777777777778,1.0,ReadingArea_rsl2-rcl25-esl310-rsm2-rcm11-esm310-rsr2-rcr2-esr100,exr/ReadingArea_rsl2-rcl25-esl310-rsm2-rcm11-esm310-rsr2-rcr2-esr100.exr,ReadingArea_rsl2-rcl25-esl310-rsm2-rcm11-esm310-rsr2-rcr2-esr100.npz,,,,,0,162,162,102,,left,green,0.84,949.6612870693208,950.0570120811462,,3,7,2,lightness,readingArea,realistic,75,2023-03-25_10h59.00.328,tripletExp_regina_11082022,2022.2.4,120.02037394195716,
1,3,12,2,0.111111111111111,0.298245614035088,2,0.444444444444444,0.298245614035088,2,0.027777777777778,3.10526315789474,ReadingArea_rsl2-rcl11-esl29-rsm2-rcm44-esm29-rsr2-rcr2-esr310,exr/ReadingArea_rsl2-rcl11-esl29-rsm2-rcm44-esm29-rsr2-rcr2-esr310.exr,ReadingArea_rsl2-rcl11-esl29-rsm2-rcm44-esm29-rsr2-rcr2-esr310.npz,,,,,0,163,163,323,,right,red,2.1,953.544510126114,,,3,7,2,lightness,readingArea,realistic,75,2023-03-25_10h59.00.328,tripletExp_regina_11082022,2022.2.4,120.02037394195716,
6,5,0,2,0.027777777777778,1.0,2,1.0,0.298245614035088,2,0.027777777777778,0.298245614035088,ReadingArea_rsl2-rcl2-esl100-rsm2-rcm100-esm29-rsr2-rcr2-esr29,exr/ReadingArea_rsl2-rcl2-esl100-rsm2-rcm100-esm29-rsr2-rcr2-esr29.exr,ReadingArea_rsl2-rcl2-esl100-rsm2-rcm100-esm29-rsr2-rcr2-esr29.npz,,,,,0,164,164,558,,left,green,3.05,957.409938097,957.7961790561676,,3,7,2,lightness,readingArea,realistic,75,2023-03-25_10h59.00.328,tripletExp_regina_11082022,2022.2.4,120.02037394195716,
2,11,14,2,0.25,0.298245614035088,2,1.0,1.0,2,0.25,3.10526315789474,ReadingArea_rsl2-rcl25-esl29-rsm2-rcm100-esm100-rsr2-rcr25-esr310,exr/ReadingArea_rsl2-rcl25-esl29-rsm2-rcm100-esm100-rsr2-rcr25-esr310.exr,ReadingArea_rsl2-rcl25-esl29-rsm2-rcm100-esm100-rsr2-rcr25-esr310.npz,,,,,0,165,165,534,,right,red,0.68,959.4982340335846,959.8694591522216,,3,7,2,lightness,readingArea,realistic,75,2023-03-25_10h59.00.328,tripletExp_regina_11082022,2022.2.4,120.02037394195716,
8,9,6,2,0.25,1.0,2,0.444444444444444,1.0,2,0.027777777777778,1.0,ReadingArea_rsl2-rcl25-esl100-rsm2-rcm44-esm100-rsr2-rcr2-esr100,exr/ReadingArea_rsl2-rcl25-esl100-rsm2-rcm44-esm100-rsr2-rcr2-esr100.exr,ReadingArea_rsl2-rcl25-esl100-rsm2-rcm44-esm100-rsr2-rcr2-esr100.npz,,,,,0,166,166,3,,left,green,0.71,961.5584509372712,961.9383959770204,,3,7,2,lightness,readingArea,realistic,75,2023-03-25_10h59.00.328,tripletExp_regina_11082022,2022.2.4,120.02037394195716,
10,11,12,2,0.694444444444444,1.0,2,1.0,1.0,2,0.027777777777778,3.10526315789474,ReadingArea_rsl2-rcl69-esl100-rsm2-rcm100-esm100-rsr2-rcr2-esr310,exr/ReadingArea_rsl2-rcl69-esl100-rsm2-rcm100-esm100-rsr2-rcr2-esr310.exr,ReadingArea_rsl2-rcl69-esl100-rsm2-rcm100-esm100-rsr2-rcr2-esr310.npz,,,,,0,167,167,533,,left,green,0.65,963.6366651058196,964.025943994522,,3,7,2,lightness,readingArea,realistic,75,2023-03-25_10h59.00.328,tripletExp_regina_11082022,2022.2.4,120.02037394195716,
8,4,2,2,0.25,1.0,2,0.694444444444444,0.298245614035088,2,0.25,0.298245614035088,ReadingArea_rsl2-rcl25-esl100-rsm2-rcm69-esm29-rsr2-rcr25-esr29,exr/ReadingArea_rsl2-rcl25-esl100-rsm2-rcm69-esm29-rsr2-rcr25-esr29.exr,ReadingArea_rsl2-rcl25-esl100-rsm2-rcm69-esm29-rsr2-rcr25-esr29.npz,,,,,0,168,168,184,,left,green,0.88,965.7425379753112,966.1116869449615,,3,7,2,lightness,readingArea,realistic,75,2023-03-25_10h59.00.328,tripletExp_regina_11082022,2022.2.4,120.02037394195716,
10,8,1,2,0.694444444444444,1.0,2,0.25,1.0,2,0.111111111111111,0.298245614035088,ReadingArea_rsl2-rcl69-esl100-rsm2-rcm25-esm100-rsr2-rcr11-esr29,exr/ReadingArea_rsl2-rcl69-esl100-rsm2-rcm25-esm100-rsr2-rcr11-esr29.exr,ReadingArea_rsl2-rcl69-esl100-rsm2-rcm25-esm100-rsr2-rcr11-esr29.npz,,,,,0,169,169,247,,left,green,0.97,967.8035809993744,968.1861109733582,,3,7,2,lightness,readingArea,realistic,75,2023-03-25_10h59.00.328,tripletExp_regina_11082022,2022.2.4,120.02037394195716,
4,12,2,2,0.694444444444444,0.298245614035088,2,0.027777777777778,3.10526315789474,2,0.25,0.298245614035088,ReadingArea_rsl2-rcl69-esl29-rsm2-rcm2-esm310-rsr2-rcr25-esr29,exr/ReadingArea_rsl2-rcl69-esl29-rsm2-rcm2-esm310-rsr2-rcr25-esr29.exr,ReadingArea_rsl2-rcl69-esl29-rsm2-rcm2-esm310-rsr2-rcr25-esr29.npz,,,,,0,170,170,543,,right,red,2.14,971.6582889556884,972.1396100521088,,3,7,2,lightness,readingArea,realistic,75,2023-03-25_10h59.00.328,tripletExp_regina_11082022,2022.2.4,120.02037394195716,
4,11,14,2,0.694444444444444,0.298245614035088,2,1.0,1.0,2,0.25,3.10526315789474,ReadingArea_rsl2-rcl69-esl29-rsm2-rcm100-esm100-rsr2-rcr25-esr310,exr/ReadingArea_rsl2-rcl69-esl29-rsm2-rcm100-esm100-rsr2-rcr25-esr310.exr,ReadingArea_rsl2-rcl69-esl29-rsm2-rcm100-esm100-rsr2-rcr25-esr310.npz,,,,,0,171,171,165,,right,red,0.88,973.8450119495392,974.2286450862885,,3,7,2,lightness,readingArea,realistic,75,2023-03-25_10h59.00.328,tripletExp_regina_11082022,2022.2.4,120.02037394195716,
14,2,1,2,0.25,3.10526315789474,2,0.25,0.298245614035088,2,0.111111111111111,0.298245614035088,ReadingArea_rsl2-rcl25-esl310-rsm2-rcm25-esm29-rsr2-rcr11-esr29,exr/ReadingArea_rsl2-rcl25-esl310-rsm2-rcm25-esm29-rsr2-rcr11-esr29.exr,ReadingArea_rsl2-rcl25-esl310-rsm2-rcm25-esm29-rsr2-rcr11-esr29.npz,,,,,0,172,172,321,,right,red,1.06,975.9370851516724,976.3492341041564,,3,7,2,lightness,readingArea,realistic,75,2023-03-25_10h59.00.328,tripletExp_regina_11082022,2022.2.4,120.02037394195716,
6,11,7,2,0.027777777777778,1.0,2,1.0,1.0,2,0.111111111111111,1.0,ReadingArea_rsl2-rcl2-esl100-rsm2-rcm100-esm100-rsr2-rcr11-esr100,exr/ReadingArea_rsl2-rcl2-esl100-rsm2-rcm100-esm100-rsr2-rcr11-esr100.exr,ReadingArea_rsl2-rcl2-esl100-rsm2-rcm100-esm100-rsr2-rcr11-esr100.npz,,,,,0,173,173,571,,right,red,1.02,978.0493171215056,978.4458539485933,,3,7,2,lightness,readingArea,realistic,75,2023-03-25_10h59.00.328,tripletExp_regina_11082022,2022.2.4,120.02037394195716,
3,4,11,2,0.444444444444444,0.298245614035088,2,0.694444444444444,0.298245614035088,2,1.0,1.0,ReadingArea_rsl2-rcl44-esl29-rsm2-rcm69-esm29-rsr2-rcr100-esr100,exr/ReadingArea_rsl2-rcl44-esl29-rsm2-rcm69-esm29-rsr2-rcr100-esr100.exr,ReadingArea_rsl2-rcl44-esl29-rsm2-rcm69-esm29-rsr2-rcr100-esr100.npz,,,,,0,174,174,207,,left,green,0.82,980.1597199440002,980.5552740097046,,3,7,2,lightness,readingArea,realistic,75,2023-03-25_10h59.00.328,tripletExp_regina_11082022,2022.2.4,120.02037394195716,
10,2,0,2,0.694444444444444,1.0,2,0.25,0.298245614035088,2,0.027777777777778,0.298245614035088,ReadingArea_rsl2-rcl69-esl100-rsm2-rcm25-esm29-rsr2-rcr2-esr29,exr/ReadingArea_rsl2-rcl69-esl100-rsm2-rcm25-esm29-rsr2-rcr2-esr29.exr,ReadingArea_rsl2-rcl69-esl100-rsm2-rcm25-esm29-rsr2-rcr2-esr29.npz,,,,,0,175,175,427,,left,green,2.16,984.022889137268,984.4062011241912,,3,7,2,lightness,readingArea,realistic,75,2023-03-25_10h59.00.328,tripletExp_regina_11082022,2022.2.4,120.02037394195716,
13,6,12,2,0.111111111111111,3.10526315789474,2,0.027777777777778,1.0,2,0.027777777777778,3.10526315789474,ReadingArea_rsl2-rcl11-esl310-rsm2-rcm2-esm100-rsr2-rcr2-esr310,exr/ReadingArea_rsl2-rcl11-esl310-rsm2-rcm2-esm100-rsr2-rcr2-esr310.exr,ReadingArea_rsl2-rcl11-esl310-rsm2-rcm2-esm100-rsr2-rcr2-esr310.npz,,,,,0,176,176,147,,right,red,2.14,987.9079520702362,,,3,7,2,lightness,readingArea,realistic,75,2023-03-25_10h59.00.328,tripletExp_regina_11082022,2022.2.4,120.02037394195716,
14,13,2,2,0.25,3.10526315789474,2,0.111111111111111,3.10526315789474,2,0.25,0.298245614035088,ReadingArea_rsl2-rcl25-esl310-rsm2-rcm11-esm310-rsr2-rcr25-esr29,exr/ReadingArea_rsl2-rcl25-esl310-rsm2-rcm11-esm310-rsr2-rcr25-esr29.exr,ReadingArea_rsl2-rcl25-esl310-rsm2-rcm11-esm310-rsr2-rcr25-esr29.npz,,,,,0,177,177,377,,left,green,2.14,991.7680549621582,992.1625909805298,,3,7,2,lightness,readingArea,realistic,75,2023-03-25_10h59.00.328,tripletExp_regina_11082022,2022.2.4,120.02037394195716,
9,3,14,2,0.444444444444444,1.0,2,0.444444444444444,0.298245614035088,2,0.25,3.10526315789474,ReadingArea_rsl2-rcl44-esl100-rsm2-rcm44-esm29-rsr2-rcr25-esr310,exr/ReadingArea_rsl2-rcl44-esl100-rsm2-rcm44-esm29-rsr2-rcr25-esr310.exr,ReadingArea_rsl2-rcl44-esl100-rsm2-rcm44-esm29-rsr2-rcr25-esr310.npz,,,,,0,178,178,17,,left,green,1.95,995.653242111206,996.0460240840912,,3,7,2,lightness,readingArea,realistic,75,2023-03-25_10h59.00.328,tripletExp_regina_11082022,2022.2.4,120.02037394195716,
14,12,0,2,0.25,3.10526315789474,2,0.027777777777778,3.10526315789474,2,0.027777777777778,0.298245614035088,ReadingArea_rsl2-rcl25-esl310-rsm2-rcm2-esm310-rsr2-rcr2-esr29,exr/ReadingArea_rsl2-rcl25-esl310-rsm2-rcm2-esm310-rsr2-rcr2-esr29.exr,ReadingArea_rsl2-rcl25-esl310-rsm2-rcm2-esm310-rsr2-rcr2-esr29.npz,,,,,0,179,179,409,,left,green,2.07,999.5098719596864,,,3,7,2,lightness,readingArea,realistic,75,2023-03-25_10h59.00.328,tripletExp_regina_11082022,2022.2.4,120.02037394195716,
2,1,8,2,0.25,0.298245614035088,2,0.111111111111111,0.298245614035088,2,0.25,1.0,ReadingArea_rsl2-rcl25-esl29-rsm2-rcm11-esm29-rsr2-rcr25-esr100,exr/ReadingArea_rsl2-rcl25-esl29-rsm2-rcm11-esm29-rsr2-rcr25-esr100.exr,ReadingArea_rsl2-rcl25-esl29-rsm2-rcm11-esm29-rsr2-rcr25-esr100.npz,,,,,0,180,180,125,,left,green,0.89,1001.5854680538176,1001.973315000534,,3,7,2,lightness,readingArea,realistic,75,2023-03-25_10h59.00.328,tripletExp_regina_11082022,2022.2.4,120.02037394195716,
12,7,1,2,0.027777777777778,3.10526315789474,2,0.111111111111111,1.0,2,0.111111111111111,0.298245614035088,ReadingArea_rsl2-rcl2-esl310-rsm2-rcm11-esm100-rsr2-rcr11-esr29,exr/ReadingArea_rsl2-rcl2-esl310-rsm2-rcm11-esm100-rsr2-rcr11-esr29.exr,ReadingArea_rsl2-rcl2-esl310-rsm2-rcm11-esm100-rsr2-rcr11-esr29.npz,,,,,0,181,181,264,,left,green,2.03,1005.4624149799348,1005.8830749988556,,3,7,2,lightness,readingArea,realistic,75,2023-03-25_10h59.00.328,tripletExp_regina_11082022,2022.2.4,120.02037394195716,
10,7,11,2,0.694444444444444,1.0,2,0.111111111111111,1.0,2,1.0,1.0,ReadingArea_rsl2-rcl69-esl100-rsm2-rcm11-esm100-rsr2-rcr100-esr100,exr/ReadingArea_rsl2-rcl69-esl100-rsm2-rcm11-esm100-rsr2-rcr100-esr100.exr,ReadingArea_rsl2-rcl69-esl100-rsm2-rcm11-esm100-rsr2-rcr100-esr100.npz,,,,,0,182,182,542,,left,green,2.13,1009.3308420181274,1009.7234251499176,,3,7,2,lightness,readingArea,realistic,75,2023-03-25_10h59.00.328,tripletExp_regina_11082022,2022.2.4,120.02037394195716,
0,11,9,2,0.027777777777778,0.298245614035088,2,1.0,1.0,2,0.444444444444444,1.0,ReadingArea_rsl2-rcl2-esl29-rsm2-rcm100-esm100-rsr2-rcr44-esr100,exr/ReadingArea_rsl2-rcl2-esl29-rsm2-rcm100-esm100-rsr2-rcr44-esr100.exr,ReadingArea_rsl2-rcl2-esl29-rsm2-rcm100-esm100-rsr2-rcr44-esr100.npz,,,,,0,183,183,32,,right,red,0.85,1011.4337961673735,1011.8523199558258,,3,7,2,lightness,readingArea,realistic,75,2023-03-25_10h59.00.328,tripletExp_regina_11082022,2022.2.4,120.02037394195716,
5,4,12,2,1.0,0.298245614035088,2,0.694444444444444,0.298245614035088,2,0.027777777777778,3.10526315789474,ReadingArea_rsl2-rcl100-esl29-rsm2-rcm69-esm29-rsr2-rcr2-esr310,exr/ReadingArea_rsl2-rcl100-esl29-rsm2-rcm69-esm29-rsr2-rcr2-esr310.exr,ReadingArea_rsl2-rcl100-esl29-rsm2-rcm69-esm29-rsr2-rcr2-esr310.npz,,,,,0,184,184,82,,left,green,2.09,1015.3301401138306,1015.7175631523132,,3,7,2,lightness,readingArea,realistic,75,2023-03-25_10h59.00.328,tripletExp_regina_11082022,2022.2.4,120.02037394195716,
14,7,13,2,0.25,3.10526315789474,2,0.111111111111111,1.0,2,0.111111111111111,3.10526315789474,ReadingArea_rsl2-rcl25-esl310-rsm2-rcm11-esm100-rsr2-rcr11-esr310,exr/ReadingArea_rsl2-rcl25-esl310-rsm2-rcm11-esm100-rsr2-rcr11-esr310.exr,ReadingArea_rsl2-rcl25-esl310-rsm2-rcm11-esm100-rsr2-rcr11-esr310.npz,,,,,0,185,185,358,,right,red,1.84,1019.2107141017914,1019.5977759361268,,3,7,2,lightness,readingArea,realistic,75,2023-03-25_10h59.00.328,tripletExp_regina_11082022,2022.2.4,120.02037394195716,
5,14,8,2,1.0,0.298245614035088,2,0.25,3.10526315789474,2,0.25,1.0,ReadingArea_rsl2-rcl100-esl29-rsm2-rcm25-esm310-rsr2-rcr25-esr100,exr/ReadingArea_rsl2-rcl100-esl29-rsm2-rcm25-esm310-rsr2-rcr25-esr100.exr,ReadingArea_rsl2-rcl100-esl29-rsm2-rcm25-esm310-rsr2-rcr25-esr100.npz,,,,,0,186,186,14,,left,green,2.12,1023.0970301628112,,,3,7,2,lightness,readingArea,realistic,75,2023-03-25_10h59.00.328,tripletExp_regina_11082022,2022.2.4,120.02037394195716,
5,13,7,2,1.0,0.298245614035088,2,0.111111111111111,3.10526315789474,2,0.111111111111111,1.0,ReadingArea_rsl2-rcl100-esl29-rsm2-rcm11-esm310-rsr2-rcr11-esr100,exr/ReadingArea_rsl2-rcl100-esl29-rsm2-rcm11-esm310-rsr2-rcr11-esr100.exr,ReadingArea_rsl2-rcl100-esl29-rsm2-rcm11-esm310-rsr2-rcr11-esr100.npz,,,,,0,187,187,189,,left,green,0.74,1025.1774010658264,1025.5765039920807,,3,7,2,lightness,readingArea,realistic,75,2023-03-25_10h59.00.328,tripletExp_regina_11082022,2022.2.4,120.02037394195716,
1,14,7,2,0.111111111111111,0.298245614035088,2,0.25,3.10526315789474,2,0.111111111111111,1.0,ReadingArea_rsl2-rcl11-esl29-rsm2-rcm25-esm310-rsr2-rcr11-esr100,exr/ReadingArea_rsl2-rcl11-esl29-rsm2-rcm25-esm310-rsr2-rcr11-esr100.exr,ReadingArea_rsl2-rcl11-esl29-rsm2-rcm25-esm310-rsr2-rcr11-esr100.npz,,,,,0,188,188,583,,right,red,0.93,1027.2931079864502,1027.678437948227,,3,7,2,lightness,readingArea,realistic,75,2023-03-25_10h59.00.328,tripletExp_regina_11082022,2022.2.4,120.02037394195716,
1,7,8,2,0.111111111111111,0.298245614035088,2,0.111111111111111,1.0,2,0.25,1.0,ReadingArea_rsl2-rcl11-esl29-rsm2-rcm11-esm100-rsr2-rcr25-esr100,exr/ReadingArea_rsl2-rcl11-esl29-rsm2-rcm11-esm100-rsr2-rcr25-esr100.exr,ReadingArea_rsl2-rcl11-esl29-rsm2-rcm11-esm100-rsr2-rcr25-esr100.npz,,,,,0,189,189,260,,right,red,0.95,1029.381735086441,1029.756628990173,,3,7,2,lightness,readingArea,realistic,75,2023-03-25_10h59.00.328,tripletExp_regina_11082022,2022.2.4,120.02037394195716,
2,14,7,2,0.25,0.298245614035088,2,0.25,3.10526315789474,2,0.111111111111111,1.0,ReadingArea_rsl2-rcl25-esl29-rsm2-rcm25-esm310-rsr2-rcr11-esr100,exr/ReadingArea_rsl2-rcl25-esl29-rsm2-rcm25-esm310-rsr2-rcr11-esr100.exr,ReadingArea_rsl2-rcl25-esl29-rsm2-rcm25-esm310-rsr2-rcr11-esr100.npz,,,,,0,190,190,310,,right,red,1.11,1031.4693529605863,1031.855623006821,,3,7,2,lightness,readingArea,realistic,75,2023-03-25_10h59.00.328,tripletExp_regina_11082022,2022.2.4,120.02037394195716,
12,0,2,2,0.027777777777778,3.10526315789474,2,0.027777777777778,0.298245614035088,2,0.25,0.298245614035088,ReadingArea_rsl2-rcl2-esl310-rsm2-rcm2-esm29-rsr2-rcr25-esr29,exr/ReadingArea_rsl2-rcl2-esl310-rsm2-rcm2-esm29-rsr2-rcr25-esr29.exr,ReadingArea_rsl2-rcl2-esl310-rsm2-rcm2-esm29-rsr2-rcr25-esr29.npz,,,,,0,191,191,77,,right,red,2.14,1035.3394169807434,1035.7198190689087,,3,7,2,lightness,readingArea,realistic,75,2023-03-25_10h59.00.328,tripletExp_regina_11082022,2022.2.4,120.02037394195716,
13,1,3,2,0.111111111111111,3.10526315789474,2,0.111111111111111,0.298245614035088,2,0.444444444444444,0.298245614035088,ReadingArea_rsl2-rcl11-esl310-rsm2-rcm11-esm29-rsr2-rcr44-esr29,exr/ReadingArea_rsl2-rcl11-esl310-rsm2-rcm11-esm29-rsr2-rcr44-esr29.exr,ReadingArea_rsl2-rcl11-esl310-rsm2-rcm11-esm29-rsr2-rcr44-esr29.npz,,,,,0,192,192,588,,right,red,2.15,1039.204869031906,1039.6033339500427,,3,7,2,lightness,readingArea,realistic,75,2023-03-25_10h59.00.328,tripletExp_regina_11082022,2022.2.4,120.02037394195716,
4,3,9,2,0.694444444444444,0.298245614035088,2,0.444444444444444,0.298245614035088,2,0.444444444444444,1.0,ReadingArea_rsl2-rcl69-esl29-rsm2-rcm44-esm29-rsr2-rcr44-esr100,exr/ReadingArea_rsl2-rcl69-esl29-rsm2-rcm44-esm29-rsr2-rcr44-esr100.exr,ReadingArea_rsl2-rcl69-esl29-rsm2-rcm44-esm29-rsr2-rcr44-esr100.npz,,,,,0,193,193,451,,left,green,2.19,1043.0875480175018,1043.475919961929,,3,7,2,lightness,readingArea,realistic,75,2023-03-25_10h59.00.328,tripletExp_regina_11082022,2022.2.4,120.02037394195716,
14,8,9,2,0.25,3.10526315789474,2,0.25,1.0,2,0.444444444444444,1.0,ReadingArea_rsl2-rcl25-esl310-rsm2-rcm25-esm100-rsr2-rcr44-esr100,exr/ReadingArea_rsl2-rcl25-esl310-rsm2-rcm25-esm100-rsr2-rcr44-esr100.exr,ReadingArea_rsl2-rcl25-esl310-rsm2-rcm25-esm100-rsr2-rcr44-esr100.npz,,,,,0,194,194,518,,right,red,2.15,1046.951462984085,1047.356017112732,,3,7,2,lightness,readingArea,realistic,75,2023-03-25_10h59.00.328,tripletExp_regina_11082022,2022.2.4,120.02037394195716,
5,11,8,2,1.0,0.298245614035088,2,1.0,1.0,2,0.25,1.0,ReadingArea_rsl2-rcl100-esl29-rsm2-rcm100-esm100-rsr2-rcr25-esr100,exr/ReadingArea_rsl2-rcl100-esl29-rsm2-rcm100-esm100-rsr2-rcr25-esr100.exr,ReadingArea_rsl2-rcl100-esl29-rsm2-rcm100-esm100-rsr2-rcr25-esr100.npz,,,,,0,195,195,548,,right,red,1.19,1049.0572011470797,1049.4328191280365,,3,7,2,lightness,readingArea,realistic,75,2023-03-25_10h59.00.328,tripletExp_regina_11082022,2022.2.4,120.02037394195716,
5,3,2,2,1.0,0.298245614035088,2,0.444444444444444,0.298245614035088,2,0.25,0.298245614035088,ReadingArea_rsl2-rcl100-esl29-rsm2-rcm44-esm29-rsr2-rcr25-esr29,exr/ReadingArea_rsl2-rcl100-esl29-rsm2-rcm44-esm29-rsr2-rcr25-esr29.exr,ReadingArea_rsl2-rcl100-esl29-rsm2-rcm44-esm29-rsr2-rcr25-esr29.npz,,,,,0,196,196,143,,right,red,1.99,1052.8947789669037,1053.2987389564514,,3,7,2,lightness,readingArea,realistic,75,2023-03-25_10h59.00.328,tripletExp_regina_11082022,2022.2.4,120.02037394195716,
12,6,7,2,0.027777777777778,3.10526315789474,2,0.027777777777778,1.0,2,0.111111111111111,1.0,ReadingArea_rsl2-rcl2-esl310-rsm2-rcm2-esm100-rsr2-rcr11-esr100,exr/ReadingArea_rsl2-rcl2-esl310-rsm2-rcm2-esm100-rsr2-rcr11-esr100.exr,ReadingArea_rsl2-rcl2-esl310-rsm2-rcm2-esm100-rsr2-rcr11-esr100.npz,,,,,0,197,197,308,,left,green,2.18,1056.7601370811462,,,3,7,2,lightness,readingArea,realistic,75,2023-03-25_10h59.00.328,tripletExp_regina_11082022,2022.2.4,120.02037394195716,
5,2,10,2,1.0,0.298245614035088,2,0.25,0.298245614035088,2,0.694444444444444,1.0,ReadingArea_rsl2-rcl100-esl29-rsm2-rcm25-esm29-rsr2-rcr69-esr100,exr/ReadingArea_rsl2-rcl100-esl29-rsm2-rcm25-esm29-rsr2-rcr69-esr100.exr,ReadingArea_rsl2-rcl100-esl29-rsm2-rcm25-esm29-rsr2-rcr69-esr100.npz,,,,,0,198,198,595,,left,green,2.11,1060.642812013626,1061.05260515213,,3,7,2,lightness,readingArea,realistic,75,2023-03-25_10h59.00.328,tripletExp_regina_11082022,2022.2.4,120.02037394195716,
4,14,1,2,0.694444444444444,0.298245614035088,2,0.25,3.10526315789474,2,0.111111111111111,0.298245614035088,ReadingArea_rsl2-rcl69-esl29-rsm2-rcm25-esm310-rsr2-rcr11-esr29,exr/ReadingArea_rsl2-rcl69-esl29-rsm2-rcm25-esm310-rsr2-rcr11-esr29.exr,ReadingArea_rsl2-rcl69-esl29-rsm2-rcm25-esm310-rsr2-rcr11-esr29.npz,,,,,0,199,199,477,,left,green,2.55,1064.5353209972382,1064.9860980510712,,3,7,2,lightness,readingArea,realistic,75,2023-03-25_10h59.00.328,tripletExp_regina_11082022,2022.2.4,120.02037394195716,
13,8,0,2,0.111111111111111,3.10526315789474,2,0.25,1.0,2,0.027777777777778,0.298245614035088,ReadingArea_rsl2-rcl11-esl310-rsm2-rcm25-esm100-rsr2-rcr2-esr29,exr/ReadingArea_rsl2-rcl11-esl310-rsm2-rcm25-esm100-rsr2-rcr2-esr29.exr,ReadingArea_rsl2-rcl11-esl310-rsm2-rcm25-esm100-rsr2-rcr2-esr29.npz,,,,,0,200,200,429,,left,green,2.07,1068.429458141327,1068.8207759857178,,3,7,2,lightness,readingArea,realistic,75,2023-03-25_10h59.00.328,tripletExp_regina_11082022,2022.2.4,120.02037394195716,
12,13,10,2,0.027777777777778,3.10526315789474,2,0.111111111111111,3.10526315789474,2,0.694444444444444,1.0,ReadingArea_rsl2-rcl2-esl310-rsm2-rcm11-esm310-rsr2-rcr69-esr100,exr/ReadingArea_rsl2-rcl2-esl310-rsm2-rcm11-esm310-rsr2-rcr69-esr100.exr,ReadingArea_rsl2-rcl2-esl310-rsm2-rcm11-esm310-rsr2-rcr69-esr100.npz,,,,,0,201,201,295,,right,red,0.96,1070.5205330848694,1070.902487039566,,3,7,2,lightness,readingArea,realistic,75,2023-03-25_10h59.00.328,tripletExp_regina_11082022,2022.2.4,120.02037394195716,
3,13,6,2,0.444444444444444,0.298245614035088,2,0.111111111111111,3.10526315789474,2,0.027777777777778,1.0,ReadingArea_rsl2-rcl44-esl29-rsm2-rcm11-esm310-rsr2-rcr2-esr100,exr/ReadingArea_rsl2-rcl44-esl29-rsm2-rcm11-esm310-rsr2-rcr2-esr100.exr,ReadingArea_rsl2-rcl44-esl29-rsm2-rcm11-esm310-rsr2-rcr2-esr100.npz,,,,,0,202,202,199,,left,green,1.07,1072.5977129936218,1072.9872629642489,,3,7,2,lightness,readingArea,realistic,75,2023-03-25_10h59.00.328,tripletExp_regina_11082022,2022.2.4,120.02037394195716,
0,4,7,2,0.027777777777778,0.298245614035088,2,0.694444444444444,0.298245614035088,2,0.111111111111111,1.0,ReadingArea_rsl2-rcl2-esl29-rsm2-rcm69-esm29-rsr2-rcr11-esr100,exr/ReadingArea_rsl2-rcl2-esl29-rsm2-rcm69-esm29-rsr2-rcr11-esr100.exr,ReadingArea_rsl2-rcl2-esl29-rsm2-rcm69-esm29-rsr2-rcr11-esr100.npz,,,,,0,203,203,200,,right,red,0.86,1074.6873421669006,1075.088533163071,,3,7,2,lightness,readingArea,realistic,75,2023-03-25_10h59.00.328,tripletExp_regina_11082022,2022.2.4,120.02037394195716,
