index_left,index_middle,index_right,reflectance_surround_left,reflectance_center_left,emission_spot_left,reflectance_surround_middle,reflectance_center_middle,emission_spot_middle,reflectance_surround_right,reflectance_center_right,emission_spot_right,ImageName,ImageExr,ImageNpy,trials_2.thisRepN,trials_2.thisTrialN,trials_2.thisN,trials_2.thisIndex,trials.thisRepN,trials.thisTrialN,trials.thisN,trials.thisIndex,sound_1.started,BB_Trial.resp,BB_Trial.color,BB_Trial.rt,text.started,text.stopped,block,sound_4.started,participant,session,L/B,scene,condition,nTrialsPerBlock,date,expName,psychopyVersion,frameRate,
4,3,9,2,0.694444444444444,0.298245614035088,2,0.444444444444444,0.298245614035088,2,0.444444444444444,1.0,ReadingArea_rsl2-rcl69-esl29-rsm2-rcm44-esm29-rsr2-rcr44-esr100,exr/ReadingArea_rsl2-rcl69-esl29-rsm2-rcm44-esm29-rsr2-rcr44-esr100.exr,ReadingArea_rsl2-rcl69-esl29-rsm2-rcm44-esm29-rsr2-rcr44-esr100.npz,,,,,0,0,0,451,235.38288559913636,left,green,4.3,263.2027440071106,263.6661961078644,1,,2,8,lightness,readingArea,realistic,75,2023-03-27_15h15.16.774,tripletExp_regina_11082022,2022.2.4,119.88109937348517,
14,4,8,2,0.25,3.10526315789474,2,0.694444444444444,0.298245614035088,2,0.25,1.0,ReadingArea_rsl2-rcl25-esl310-rsm2-rcm69-esm29-rsr2-rcr25-esr100,exr/ReadingArea_rsl2-rcl25-esl310-rsm2-rcm69-esm29-rsr2-rcr25-esr100.exr,ReadingArea_rsl2-rcl25-esl310-rsm2-rcm69-esm29-rsr2-rcr25-esr100.npz,,,,,0,1,1,253,,right,red,2.81,267.1605110168457,267.6175711154938,1,,2,8,lightness,readingArea,realistic,75,2023-03-27_15h15.16.774,tripletExp_regina_11082022,2022.2.4,119.88109937348517,
8,1,14,2,0.25,1.0,2,0.111111111111111,0.298245614035088,2,0.25,3.10526315789474,ReadingArea_rsl2-rcl25-esl100-rsm2-rcm11-esm29-rsr2-rcr25-esr310,exr/ReadingArea_rsl2-rcl25-esl100-rsm2-rcm11-esm29-rsr2-rcr25-esr310.exr,ReadingArea_rsl2-rcl25-esl100-rsm2-rcm11-esm29-rsr2-rcr25-esr310.npz,,,,,0,2,2,500,,left,green,2.28,271.087769985199,271.51979303359985,1,,2,8,lightness,readingArea,realistic,75,2023-03-27_15h15.16.774,tripletExp_regina_11082022,2022.2.4,119.88109937348517,
10,14,4,2,0.694444444444444,1.0,2,0.25,3.10526315789474,2,0.694444444444444,0.298245614035088,ReadingArea_rsl2-rcl69-esl100-rsm2-rcm25-esm310-rsr2-rcr69-esr29,exr/ReadingArea_rsl2-rcl69-esl100-rsm2-rcm25-esm310-rsr2-rcr69-esr29.exr,ReadingArea_rsl2-rcl69-esl100-rsm2-rcm25-esm310-rsr2-rcr69-esr29.npz,,,,,0,3,3,267,,right,red,2.54,274.99028396606445,275.39417791366577,1,,2,8,lightness,readingArea,realistic,75,2023-03-27_15h15.16.774,tripletExp_regina_11082022,2022.2.4,119.88109937348517,
1,5,14,2,0.111111111111111,0.298245614035088,2,1.0,0.298245614035088,2,0.25,3.10526315789474,ReadingArea_rsl2-rcl11-esl29-rsm2-rcm100-esm29-rsr2-rcr25-esr310,exr/ReadingArea_rsl2-rcl11-esl29-rsm2-rcm100-esm29-rsr2-rcr25-esr310.exr,ReadingArea_rsl2-rcl11-esl29-rsm2-rcm100-esm29-rsr2-rcr25-esr310.npz,,,,,0,4,4,191,,right,red,3.59,278.8794491291046,279.2851619720459,1,,2,8,lightness,readingArea,realistic,75,2023-03-27_15h15.16.774,tripletExp_regina_11082022,2022.2.4,119.88109937348517,
12,13,10,2,0.027777777777778,3.10526315789474,2,0.111111111111111,3.10526315789474,2,0.694444444444444,1.0,ReadingArea_rsl2-rcl2-esl310-rsm2-rcm11-esm310-rsr2-rcr69-esr100,exr/ReadingArea_rsl2-rcl2-esl310-rsm2-rcm11-esm310-rsr2-rcr69-esr100.exr,ReadingArea_rsl2-rcl2-esl310-rsm2-rcm11-esm310-rsr2-rcr69-esr100.npz,,,,,0,5,5,295,,left,green,2.06,282.7428939342499,283.1528980731964,1,,2,8,lightness,readingArea,realistic,75,2023-03-27_15h15.16.774,tripletExp_regina_11082022,2022.2.4,119.88109937348517,
0,14,11,2,0.027777777777778,0.298245614035088,2,0.25,3.10526315789474,2,1.0,1.0,ReadingArea_rsl2-rcl2-esl29-rsm2-rcm25-esm310-rsr2-rcr100-esr100,exr/ReadingArea_rsl2-rcl2-esl29-rsm2-rcm25-esm310-rsr2-rcr100-esr100.exr,ReadingArea_rsl2-rcl2-esl29-rsm2-rcm25-esm310-rsr2-rcr100-esr100.npz,,,,,0,6,6,557,,right,red,0.94,284.8670799732208,285.26981592178345,1,,2,8,lightness,readingArea,realistic,75,2023-03-27_15h15.16.774,tripletExp_regina_11082022,2022.2.4,119.88109937348517,
9,0,8,2,0.444444444444444,1.0,2,0.027777777777778,0.298245614035088,2,0.25,1.0,ReadingArea_rsl2-rcl44-esl100-rsm2-rcm2-esm29-rsr2-rcr25-esr100,exr/ReadingArea_rsl2-rcl44-esl100-rsm2-rcm2-esm29-rsr2-rcr25-esr100.exr,ReadingArea_rsl2-rcl44-esl100-rsm2-rcm2-esm29-rsr2-rcr25-esr100.npz,,,,,0,7,7,27,,right,red,1.23,286.9659810066223,287.3694009780884,1,,2,8,lightness,readingArea,realistic,75,2023-03-27_15h15.16.774,tripletExp_regina_11082022,2022.2.4,119.88109937348517,
6,14,10,2,0.027777777777778,1.0,2,0.25,3.10526315789474,2,0.694444444444444,1.0,ReadingArea_rsl2-rcl2-esl100-rsm2-rcm25-esm310-rsr2-rcr69-esr100,exr/ReadingArea_rsl2-rcl2-esl100-rsm2-rcm25-esm310-rsr2-rcr69-esr100.exr,ReadingArea_rsl2-rcl2-esl100-rsm2-rcm25-esm310-rsr2-rcr69-esr100.npz,,,,,0,8,8,413,,right,red,1.27,289.08516812324524,,1,,2,8,lightness,readingArea,realistic,75,2023-03-27_15h15.16.774,tripletExp_regina_11082022,2022.2.4,119.88109937348517,
14,2,1,2,0.25,3.10526315789474,2,0.25,0.298245614035088,2,0.111111111111111,0.298245614035088,ReadingArea_rsl2-rcl25-esl310-rsm2-rcm25-esm29-rsr2-rcr11-esr29,exr/ReadingArea_rsl2-rcl25-esl310-rsm2-rcm25-esm29-rsr2-rcr11-esr29.exr,ReadingArea_rsl2-rcl25-esl310-rsm2-rcm25-esm29-rsr2-rcr11-esr29.npz,,,,,0,9,9,321,,right,red,1.21,291.2018139362335,,1,,2,8,lightness,readingArea,realistic,75,2023-03-27_15h15.16.774,tripletExp_regina_11082022,2022.2.4,119.88109937348517,
12,5,4,2,0.027777777777778,3.10526315789474,2,1.0,0.298245614035088,2,0.694444444444444,0.298245614035088,ReadingArea_rsl2-rcl2-esl310-rsm2-rcm100-esm29-rsr2-rcr69-esr29,exr/ReadingArea_rsl2-rcl2-esl310-rsm2-rcm100-esm29-rsr2-rcr69-esr29.exr,ReadingArea_rsl2-rcl2-esl310-rsm2-rcm100-esm29-rsr2-rcr69-esr29.npz,,,,,0,10,10,566,,right,red,1.1,293.33487200737,293.788516998291,1,,2,8,lightness,readingArea,realistic,75,2023-03-27_15h15.16.774,tripletExp_regina_11082022,2022.2.4,119.88109937348517,
7,10,5,2,0.111111111111111,1.0,2,0.694444444444444,1.0,2,1.0,0.298245614035088,ReadingArea_rsl2-rcl11-esl100-rsm2-rcm69-esm100-rsr2-rcr100-esr29,exr/ReadingArea_rsl2-rcl11-esl100-rsm2-rcm69-esm100-rsr2-rcr100-esr29.exr,ReadingArea_rsl2-rcl11-esl100-rsm2-rcm69-esm100-rsr2-rcr100-esr29.npz,,,,,0,11,11,395,,right,red,1.07,295.4986500740051,295.903263092041,1,,2,8,lightness,readingArea,realistic,75,2023-03-27_15h15.16.774,tripletExp_regina_11082022,2022.2.4,119.88109937348517,
7,8,12,2,0.111111111111111,1.0,2,0.25,1.0,2,0.027777777777778,3.10526315789474,ReadingArea_rsl2-rcl11-esl100-rsm2-rcm25-esm100-rsr2-rcr2-esr310,exr/ReadingArea_rsl2-rcl11-esl100-rsm2-rcm25-esm100-rsr2-rcr2-esr310.exr,ReadingArea_rsl2-rcl11-esl100-rsm2-rcm25-esm100-rsr2-rcr2-esr310.npz,,,,,0,12,12,271,,left,green,1.33,297.61930203437805,298.0198199748993,1,,2,8,lightness,readingArea,realistic,75,2023-03-27_15h15.16.774,tripletExp_regina_11082022,2022.2.4,119.88109937348517,
13,3,14,2,0.111111111111111,3.10526315789474,2,0.444444444444444,0.298245614035088,2,0.25,3.10526315789474,ReadingArea_rsl2-rcl11-esl310-rsm2-rcm44-esm29-rsr2-rcr25-esr310,exr/ReadingArea_rsl2-rcl11-esl310-rsm2-rcm44-esm29-rsr2-rcr25-esr310.exr,ReadingArea_rsl2-rcl11-esl310-rsm2-rcm44-esm29-rsr2-rcr25-esr310.npz,,,,,0,13,13,38,,left,green,2.33,301.4914391040802,301.89621806144714,1,,2,8,lightness,readingArea,realistic,75,2023-03-27_15h15.16.774,tripletExp_regina_11082022,2022.2.4,119.88109937348517,
4,13,2,2,0.694444444444444,0.298245614035088,2,0.111111111111111,3.10526315789474,2,0.25,0.298245614035088,ReadingArea_rsl2-rcl69-esl29-rsm2-rcm11-esm310-rsr2-rcr25-esr29,exr/ReadingArea_rsl2-rcl69-esl29-rsm2-rcm11-esm310-rsr2-rcr25-esr29.exr,ReadingArea_rsl2-rcl69-esl29-rsm2-rcm11-esm310-rsr2-rcr25-esr29.npz,,,,,0,14,14,592,,right,red,2.13,305.3409969806671,305.750785112381,1,,2,8,lightness,readingArea,realistic,75,2023-03-27_15h15.16.774,tripletExp_regina_11082022,2022.2.4,119.88109937348517,
2,1,3,2,0.25,0.298245614035088,2,0.111111111111111,0.298245614035088,2,0.444444444444444,0.298245614035088,ReadingArea_rsl2-rcl25-esl29-rsm2-rcm11-esm29-rsr2-rcr44-esr29,exr/ReadingArea_rsl2-rcl25-esl29-rsm2-rcm11-esm29-rsr2-rcr44-esr29.exr,ReadingArea_rsl2-rcl25-esl29-rsm2-rcm11-esm29-rsr2-rcr44-esr29.npz,,,,,0,15,15,85,,left,green,0.94,307.4428479671478,307.8470709323883,1,,2,8,lightness,readingArea,realistic,75,2023-03-27_15h15.16.774,tripletExp_regina_11082022,2022.2.4,119.88109937348517,
9,8,7,2,0.444444444444444,1.0,2,0.25,1.0,2,0.111111111111111,1.0,ReadingArea_rsl2-rcl44-esl100-rsm2-rcm25-esm100-rsr2-rcr11-esr100,exr/ReadingArea_rsl2-rcl44-esl100-rsm2-rcm25-esm100-rsr2-rcr11-esr100.exr,ReadingArea_rsl2-rcl44-esl100-rsm2-rcm25-esm100-rsr2-rcr11-esr100.npz,,,,,0,16,16,368,,right,red,2.09,311.2924280166626,311.7030279636383,1,,2,8,lightness,readingArea,realistic,75,2023-03-27_15h15.16.774,tripletExp_regina_11082022,2022.2.4,119.88109937348517,
12,1,2,2,0.027777777777778,3.10526315789474,2,0.111111111111111,0.298245614035088,2,0.25,0.298245614035088,ReadingArea_rsl2-rcl2-esl310-rsm2-rcm11-esm29-rsr2-rcr25-esr29,exr/ReadingArea_rsl2-rcl2-esl310-rsm2-rcm11-esm29-rsr2-rcr25-esr29.exr,ReadingArea_rsl2-rcl2-esl310-rsm2-rcm11-esm29-rsr2-rcr25-esr29.npz,,,,,0,17,17,231,,left,green,2.09,315.1848781108856,315.5929629802704,1,,2,8,lightness,readingArea,realistic,75,2023-03-27_15h15.16.774,tripletExp_regina_11082022,2022.2.4,119.88109937348517,
7,2,0,2,0.111111111111111,1.0,2,0.25,0.298245614035088,2,0.027777777777778,0.298245614035088,ReadingArea_rsl2-rcl11-esl100-rsm2-rcm25-esm29-rsr2-rcr2-esr29,exr/ReadingArea_rsl2-rcl11-esl100-rsm2-rcm25-esm29-rsr2-rcr2-esr29.exr,ReadingArea_rsl2-rcl11-esl100-rsm2-rcm25-esm29-rsr2-rcr2-esr29.npz,,,,,0,18,18,520,,left,green,1.23,317.31234407424927,317.7160680294037,1,,2,8,lightness,readingArea,realistic,75,2023-03-27_15h15.16.774,tripletExp_regina_11082022,2022.2.4,119.88109937348517,
8,10,6,2,0.25,1.0,2,0.694444444444444,1.0,2,0.027777777777778,1.0,ReadingArea_rsl2-rcl25-esl100-rsm2-rcm69-esm100-rsr2-rcr2-esr100,exr/ReadingArea_rsl2-rcl25-esl100-rsm2-rcm69-esm100-rsr2-rcr2-esr100.exr,ReadingArea_rsl2-rcl25-esl100-rsm2-rcm69-esm100-rsr2-rcr2-esr100.npz,,,,,0,19,19,129,,left,green,1.29,319.40792894363403,319.8360540866852,1,,2,8,lightness,readingArea,realistic,75,2023-03-27_15h15.16.774,tripletExp_regina_11082022,2022.2.4,119.88109937348517,
5,9,0,2,1.0,0.298245614035088,2,0.444444444444444,1.0,2,0.027777777777778,0.298245614035088,ReadingArea_rsl2-rcl100-esl29-rsm2-rcm44-esm100-rsr2-rcr2-esr29,exr/ReadingArea_rsl2-rcl100-esl29-rsm2-rcm44-esm100-rsr2-rcr2-esr29.exr,ReadingArea_rsl2-rcl100-esl29-rsm2-rcm44-esm100-rsr2-rcr2-esr29.npz,,,,,0,20,20,575,,left,green,0.83,321.54839301109314,,1,,2,8,lightness,readingArea,realistic,75,2023-03-27_15h15.16.774,tripletExp_regina_11082022,2022.2.4,119.88109937348517,
10,5,4,2,0.694444444444444,1.0,2,1.0,0.298245614035088,2,0.694444444444444,0.298245614035088,ReadingArea_rsl2-rcl69-esl100-rsm2-rcm100-esm29-rsr2-rcr69-esr29,exr/ReadingArea_rsl2-rcl69-esl100-rsm2-rcm100-esm29-rsr2-rcr69-esr29.exr,ReadingArea_rsl2-rcl69-esl100-rsm2-rcm100-esm29-rsr2-rcr69-esr29.npz,,,,,0,21,21,455,,right,red,1.43,323.6861379146576,324.09376406669617,1,,2,8,lightness,readingArea,realistic,75,2023-03-27_15h15.16.774,tripletExp_regina_11082022,2022.2.4,119.88109937348517,
8,10,9,2,0.25,1.0,2,0.694444444444444,1.0,2,0.444444444444444,1.0,ReadingArea_rsl2-rcl25-esl100-rsm2-rcm69-esm100-rsr2-rcr44-esr100,exr/ReadingArea_rsl2-rcl25-esl100-rsm2-rcm69-esm100-rsr2-rcr44-esr100.exr,ReadingArea_rsl2-rcl25-esl100-rsm2-rcm69-esm100-rsr2-rcr44-esr100.npz,,,,,0,22,22,342,,right,red,2.43,327.5483069419861,327.95141792297363,1,,2,8,lightness,readingArea,realistic,75,2023-03-27_15h15.16.774,tripletExp_regina_11082022,2022.2.4,119.88109937348517,
8,4,1,2,0.25,1.0,2,0.694444444444444,0.298245614035088,2,0.111111111111111,0.298245614035088,ReadingArea_rsl2-rcl25-esl100-rsm2-rcm69-esm29-rsr2-rcr11-esr29,exr/ReadingArea_rsl2-rcl25-esl100-rsm2-rcm69-esm29-rsr2-rcr11-esr29.exr,ReadingArea_rsl2-rcl25-esl100-rsm2-rcm69-esm29-rsr2-rcr11-esr29.npz,,,,,0,23,23,286,,left,green,2.18,331.4263060092926,331.8364419937134,1,,2,8,lightness,readingArea,realistic,75,2023-03-27_15h15.16.774,tripletExp_regina_11082022,2022.2.4,119.88109937348517,
8,14,6,2,0.25,1.0,2,0.25,3.10526315789474,2,0.027777777777778,1.0,ReadingArea_rsl2-rcl25-esl100-rsm2-rcm25-esm310-rsr2-rcr2-esr100,exr/ReadingArea_rsl2-rcl25-esl100-rsm2-rcm25-esm310-rsr2-rcr2-esr100.exr,ReadingArea_rsl2-rcl25-esl100-rsm2-rcm25-esm310-rsr2-rcr2-esr100.npz,,,,,0,24,24,469,,left,green,1.22,333.55347895622253,333.9625470638275,1,,2,8,lightness,readingArea,realistic,75,2023-03-27_15h15.16.774,tripletExp_regina_11082022,2022.2.4,119.88109937348517,
11,4,0,2,1.0,1.0,2,0.694444444444444,0.298245614035088,2,0.027777777777778,0.298245614035088,ReadingArea_rsl2-rcl100-esl100-rsm2-rcm69-esm29-rsr2-rcr2-esr29,exr/ReadingArea_rsl2-rcl100-esl100-rsm2-rcm69-esm29-rsr2-rcr2-esr29.exr,ReadingArea_rsl2-rcl100-esl100-rsm2-rcm69-esm29-rsr2-rcr2-esr29.npz,,,,,0,25,25,219,,left,green,0.8,335.68348503112793,336.0866129398346,1,,2,8,lightness,readingArea,realistic,75,2023-03-27_15h15.16.774,tripletExp_regina_11082022,2022.2.4,119.88109937348517,
5,13,12,2,1.0,0.298245614035088,2,0.111111111111111,3.10526315789474,2,0.027777777777778,3.10526315789474,ReadingArea_rsl2-rcl100-esl29-rsm2-rcm11-esm310-rsr2-rcr2-esr310,exr/ReadingArea_rsl2-rcl100-esl29-rsm2-rcm11-esm310-rsr2-rcr2-esr310.exr,ReadingArea_rsl2-rcl100-esl29-rsm2-rcm11-esm310-rsr2-rcr2-esr310.npz,,,,,0,26,26,389,,right,red,2.1,339.56978607177734,339.98210310935974,1,,2,8,lightness,readingArea,realistic,75,2023-03-27_15h15.16.774,tripletExp_regina_11082022,2022.2.4,119.88109937348517,
9,8,0,2,0.444444444444444,1.0,2,0.25,1.0,2,0.027777777777778,0.298245614035088,ReadingArea_rsl2-rcl44-esl100-rsm2-rcm25-esm100-rsr2-rcr2-esr29,exr/ReadingArea_rsl2-rcl44-esl100-rsm2-rcm25-esm100-rsr2-rcr2-esr29.exr,ReadingArea_rsl2-rcl44-esl100-rsm2-rcm25-esm100-rsr2-rcr2-esr29.npz,,,,,0,27,27,66,,left,green,0.82,341.6780469417572,342.0880560874939,1,,2,8,lightness,readingArea,realistic,75,2023-03-27_15h15.16.774,tripletExp_regina_11082022,2022.2.4,119.88109937348517,
2,11,7,2,0.25,0.298245614035088,2,1.0,1.0,2,0.111111111111111,1.0,ReadingArea_rsl2-rcl25-esl29-rsm2-rcm100-esm100-rsr2-rcr11-esr100,exr/ReadingArea_rsl2-rcl25-esl29-rsm2-rcm100-esm100-rsr2-rcr11-esr100.exr,ReadingArea_rsl2-rcl25-esl29-rsm2-rcm100-esm100-rsr2-rcr11-esr100.npz,,,,,0,28,28,576,,right,red,2.91,345.53812193870544,345.9488830566406,1,,2,8,lightness,readingArea,realistic,75,2023-03-27_15h15.16.774,tripletExp_regina_11082022,2022.2.4,119.88109937348517,
13,12,11,2,0.111111111111111,3.10526315789474,2,0.027777777777778,3.10526315789474,2,1.0,1.0,ReadingArea_rsl2-rcl11-esl310-rsm2-rcm2-esm310-rsr2-rcr100-esr100,exr/ReadingArea_rsl2-rcl11-esl310-rsm2-rcm2-esm310-rsr2-rcr100-esr100.exr,ReadingArea_rsl2-rcl11-esl310-rsm2-rcm2-esm310-rsr2-rcr100-esr100.npz,,,,,0,29,29,441,,left,green,1.12,347.6426200866699,348.0512111186981,1,,2,8,lightness,readingArea,realistic,75,2023-03-27_15h15.16.774,tripletExp_regina_11082022,2022.2.4,119.88109937348517,
1,14,7,2,0.111111111111111,0.298245614035088,2,0.25,3.10526315789474,2,0.111111111111111,1.0,ReadingArea_rsl2-rcl11-esl29-rsm2-rcm25-esm310-rsr2-rcr11-esr100,exr/ReadingArea_rsl2-rcl11-esl29-rsm2-rcm25-esm310-rsr2-rcr11-esr100.exr,ReadingArea_rsl2-rcl11-esl29-rsm2-rcm25-esm310-rsr2-rcr11-esr100.npz,,,,,0,30,30,583,,right,red,1.07,349.7427201271057,350.14896297454834,1,,2,8,lightness,readingArea,realistic,75,2023-03-27_15h15.16.774,tripletExp_regina_11082022,2022.2.4,119.88109937348517,
6,12,3,2,0.027777777777778,1.0,2,0.027777777777778,3.10526315789474,2,0.444444444444444,0.298245614035088,ReadingArea_rsl2-rcl2-esl100-rsm2-rcm2-esm310-rsr2-rcr44-esr29,exr/ReadingArea_rsl2-rcl2-esl100-rsm2-rcm2-esm310-rsr2-rcr44-esr29.exr,ReadingArea_rsl2-rcl2-esl100-rsm2-rcm2-esm310-rsr2-rcr44-esr29.npz,,,,,0,31,31,284,,left,green,0.97,351.8723690509796,352.2834041118622,1,,2,8,lightness,readingArea,realistic,75,2023-03-27_15h15.16.774,tripletExp_regina_11082022,2022.2.4,119.88109937348517,
11,5,3,2,1.0,1.0,2,1.0,0.298245614035088,2,0.444444444444444,0.298245614035088,ReadingArea_rsl2-rcl100-esl100-rsm2-rcm100-esm29-rsr2-rcr44-esr29,exr/ReadingArea_rsl2-rcl100-esl100-rsm2-rcm100-esm29-rsr2-rcr44-esr29.exr,ReadingArea_rsl2-rcl100-esl100-rsm2-rcm100-esm29-rsr2-rcr44-esr29.npz,,,,,0,32,32,172,,right,red,2.22,355.768000125885,356.1906650066376,1,,2,8,lightness,readingArea,realistic,75,2023-03-27_15h15.16.774,tripletExp_regina_11082022,2022.2.4,119.88109937348517,
13,8,0,2,0.111111111111111,3.10526315789474,2,0.25,1.0,2,0.027777777777778,0.298245614035088,ReadingArea_rsl2-rcl11-esl310-rsm2-rcm25-esm100-rsr2-rcr2-esr29,exr/ReadingArea_rsl2-rcl11-esl310-rsm2-rcm25-esm100-rsr2-rcr2-esr29.exr,ReadingArea_rsl2-rcl11-esl310-rsm2-rcm25-esm100-rsr2-rcr2-esr29.npz,,,,,0,33,33,429,,left,green,0.77,357.87986993789673,358.3055651187897,1,,2,8,lightness,readingArea,realistic,75,2023-03-27_15h15.16.774,tripletExp_regina_11082022,2022.2.4,119.88109937348517,
7,12,2,2,0.111111111111111,1.0,2,0.027777777777778,3.10526315789474,2,0.25,0.298245614035088,ReadingArea_rsl2-rcl11-esl100-rsm2-rcm2-esm310-rsr2-rcr25-esr29,exr/ReadingArea_rsl2-rcl11-esl100-rsm2-rcm2-esm310-rsr2-rcr25-esr29.exr,ReadingArea_rsl2-rcl11-esl100-rsm2-rcm2-esm310-rsr2-rcr25-esr29.npz,,,,,0,34,34,72,,left,green,4.46,363.56950402259827,364.0435130596161,1,,2,8,lightness,readingArea,realistic,75,2023-03-27_15h15.16.774,tripletExp_regina_11082022,2022.2.4,119.88109937348517,
2,5,14,2,0.25,0.298245614035088,2,1.0,0.298245614035088,2,0.25,3.10526315789474,ReadingArea_rsl2-rcl25-esl29-rsm2-rcm100-esm29-rsr2-rcr25-esr310,exr/ReadingArea_rsl2-rcl25-esl29-rsm2-rcm100-esm29-rsr2-rcr25-esr310.exr,ReadingArea_rsl2-rcl25-esl29-rsm2-rcm100-esm29-rsr2-rcr25-esr310.npz,,,,,0,35,35,390,,right,red,1.55,365.74699091911316,,1,,2,8,lightness,readingArea,realistic,75,2023-03-27_15h15.16.774,tripletExp_regina_11082022,2022.2.4,119.88109937348517,
7,0,3,2,0.111111111111111,1.0,2,0.027777777777778,0.298245614035088,2,0.444444444444444,0.298245614035088,ReadingArea_rsl2-rcl11-esl100-rsm2-rcm2-esm29-rsr2-rcr44-esr29,exr/ReadingArea_rsl2-rcl11-esl100-rsm2-rcm2-esm29-rsr2-rcr44-esr29.exr,ReadingArea_rsl2-rcl11-esl100-rsm2-rcm2-esm29-rsr2-rcr44-esr29.npz,,,,,0,36,36,237,,left,green,2.06,369.61677408218384,370.0280261039734,1,,2,8,lightness,readingArea,realistic,75,2023-03-27_15h15.16.774,tripletExp_regina_11082022,2022.2.4,119.88109937348517,
9,3,14,2,0.444444444444444,1.0,2,0.444444444444444,0.298245614035088,2,0.25,3.10526315789474,ReadingArea_rsl2-rcl44-esl100-rsm2-rcm44-esm29-rsr2-rcr25-esr310,exr/ReadingArea_rsl2-rcl44-esl100-rsm2-rcm44-esm29-rsr2-rcr25-esr310.exr,ReadingArea_rsl2-rcl44-esl100-rsm2-rcm44-esm29-rsr2-rcr25-esr310.npz,,,,,0,37,37,17,,left,green,1.15,371.7256190776825,372.13767194747925,1,,2,8,lightness,readingArea,realistic,75,2023-03-27_15h15.16.774,tripletExp_regina_11082022,2022.2.4,119.88109937348517,
5,1,4,2,1.0,0.298245614035088,2,0.111111111111111,0.298245614035088,2,0.694444444444444,0.298245614035088,ReadingArea_rsl2-rcl100-esl29-rsm2-rcm11-esm29-rsr2-rcr69-esr29,exr/ReadingArea_rsl2-rcl100-esl29-rsm2-rcm11-esm29-rsr2-rcr69-esr29.exr,ReadingArea_rsl2-rcl100-esl29-rsm2-rcm11-esm29-rsr2-rcr69-esr29.npz,,,,,0,38,38,287,,right,red,1.39,373.84817600250244,,1,,2,8,lightness,readingArea,realistic,75,2023-03-27_15h15.16.774,tripletExp_regina_11082022,2022.2.4,119.88109937348517,
13,8,5,2,0.111111111111111,3.10526315789474,2,0.25,1.0,2,1.0,0.298245614035088,ReadingArea_rsl2-rcl11-esl310-rsm2-rcm25-esm100-rsr2-rcr100-esr29,exr/ReadingArea_rsl2-rcl11-esl310-rsm2-rcm25-esm100-rsr2-rcr100-esr29.exr,ReadingArea_rsl2-rcl11-esl310-rsm2-rcm25-esm100-rsr2-rcr100-esr29.npz,,,,,0,39,39,209,,left,green,1.17,375.9599931240082,376.37016010284424,1,,2,8,lightness,readingArea,realistic,75,2023-03-27_15h15.16.774,tripletExp_regina_11082022,2022.2.4,119.88109937348517,
6,11,1,2,0.027777777777778,1.0,2,1.0,1.0,2,0.111111111111111,0.298245614035088,ReadingArea_rsl2-rcl2-esl100-rsm2-rcm100-esm100-rsr2-rcr11-esr29,exr/ReadingArea_rsl2-rcl2-esl100-rsm2-rcm100-esm100-rsr2-rcr11-esr29.exr,ReadingArea_rsl2-rcl2-esl100-rsm2-rcm100-esm100-rsr2-rcr11-esr29.npz,,,,,0,40,40,436,,right,red,1.32,378.06446504592896,378.47269201278687,1,,2,8,lightness,readingArea,realistic,75,2023-03-27_15h15.16.774,tripletExp_regina_11082022,2022.2.4,119.88109937348517,
10,3,11,2,0.694444444444444,1.0,2,0.444444444444444,0.298245614035088,2,1.0,1.0,ReadingArea_rsl2-rcl69-esl100-rsm2-rcm44-esm29-rsr2-rcr100-esr100,exr/ReadingArea_rsl2-rcl69-esl100-rsm2-rcm44-esm29-rsr2-rcr100-esr100.exr,ReadingArea_rsl2-rcl69-esl100-rsm2-rcm44-esm29-rsr2-rcr100-esr100.npz,,,,,0,41,41,485,,left,green,2.28,381.94036293029785,382.3466739654541,1,,2,8,lightness,readingArea,realistic,75,2023-03-27_15h15.16.774,tripletExp_regina_11082022,2022.2.4,119.88109937348517,
10,11,9,2,0.694444444444444,1.0,2,1.0,1.0,2,0.444444444444444,1.0,ReadingArea_rsl2-rcl69-esl100-rsm2-rcm100-esm100-rsr2-rcr44-esr100,exr/ReadingArea_rsl2-rcl69-esl100-rsm2-rcm100-esm100-rsr2-rcr44-esr100.exr,ReadingArea_rsl2-rcl69-esl100-rsm2-rcm100-esm100-rsr2-rcr44-esr100.npz,,,,,0,42,42,492,,left,green,2.82,385.81711506843567,,1,,2,8,lightness,readingArea,realistic,75,2023-03-27_15h15.16.774,tripletExp_regina_11082022,2022.2.4,119.88109937348517,
7,9,8,2,0.111111111111111,1.0,2,0.444444444444444,1.0,2,0.25,1.0,ReadingArea_rsl2-rcl11-esl100-rsm2-rcm44-esm100-rsr2-rcr25-esr100,exr/ReadingArea_rsl2-rcl11-esl100-rsm2-rcm44-esm100-rsr2-rcr25-esr100.exr,ReadingArea_rsl2-rcl11-esl100-rsm2-rcm44-esm100-rsr2-rcr25-esr100.npz,,,,,0,43,43,515,,right,red,1.77,387.91973090171814,388.33010601997375,1,,2,8,lightness,readingArea,realistic,75,2023-03-27_15h15.16.774,tripletExp_regina_11082022,2022.2.4,119.88109937348517,
9,11,5,2,0.444444444444444,1.0,2,1.0,1.0,2,1.0,0.298245614035088,ReadingArea_rsl2-rcl44-esl100-rsm2-rcm100-esm100-rsr2-rcr100-esr29,exr/ReadingArea_rsl2-rcl44-esl100-rsm2-rcm100-esm100-rsr2-rcr100-esr29.exr,ReadingArea_rsl2-rcl44-esl100-rsm2-rcm100-esm100-rsr2-rcr100-esr29.npz,,,,,0,44,44,142,,right,red,2.79,391.8403971195221,392.25185203552246,1,,2,8,lightness,readingArea,realistic,75,2023-03-27_15h15.16.774,tripletExp_regina_11082022,2022.2.4,119.88109937348517,
4,7,10,2,0.694444444444444,0.298245614035088,2,0.111111111111111,1.0,2,0.694444444444444,1.0,ReadingArea_rsl2-rcl69-esl29-rsm2-rcm11-esm100-rsr2-rcr69-esr100,exr/ReadingArea_rsl2-rcl69-esl29-rsm2-rcm11-esm100-rsr2-rcr69-esr100.exr,ReadingArea_rsl2-rcl69-esl29-rsm2-rcm11-esm100-rsr2-rcr69-esr100.npz,,,,,0,45,45,8,,left,green,1.04,393.94248604774475,394.34750294685364,1,,2,8,lightness,readingArea,realistic,75,2023-03-27_15h15.16.774,tripletExp_regina_11082022,2022.2.4,119.88109937348517,
2,13,0,2,0.25,0.298245614035088,2,0.111111111111111,3.10526315789474,2,0.027777777777778,0.298245614035088,ReadingArea_rsl2-rcl25-esl29-rsm2-rcm11-esm310-rsr2-rcr2-esr29,exr/ReadingArea_rsl2-rcl25-esl29-rsm2-rcm11-esm310-rsr2-rcr2-esr29.exr,ReadingArea_rsl2-rcl25-esl29-rsm2-rcm11-esm310-rsr2-rcr2-esr29.npz,,,,,0,46,46,454,,left,green,0.93,396.070867061615,396.48243594169617,1,,2,8,lightness,readingArea,realistic,75,2023-03-27_15h15.16.774,tripletExp_regina_11082022,2022.2.4,119.88109937348517,
6,5,11,2,0.027777777777778,1.0,2,1.0,0.298245614035088,2,1.0,1.0,ReadingArea_rsl2-rcl2-esl100-rsm2-rcm100-esm29-rsr2-rcr100-esr100,exr/ReadingArea_rsl2-rcl2-esl100-rsm2-rcm100-esm29-rsr2-rcr100-esr100.exr,ReadingArea_rsl2-rcl2-esl100-rsm2-rcm100-esm29-rsr2-rcr100-esr100.npz,,,,,0,47,47,289,,left,green,0.99,398.1754629611969,398.5838420391083,1,,2,8,lightness,readingArea,realistic,75,2023-03-27_15h15.16.774,tripletExp_regina_11082022,2022.2.4,119.88109937348517,
9,11,6,2,0.444444444444444,1.0,2,1.0,1.0,2,0.027777777777778,1.0,ReadingArea_rsl2-rcl44-esl100-rsm2-rcm100-esm100-rsr2-rcr2-esr100,exr/ReadingArea_rsl2-rcl44-esl100-rsm2-rcm100-esm100-rsr2-rcr2-esr100.exr,ReadingArea_rsl2-rcl44-esl100-rsm2-rcm100-esm100-rsr2-rcr2-esr100.npz,,,,,0,48,48,404,,left,green,0.94,400.28176712989807,400.69399309158325,1,,2,8,lightness,readingArea,realistic,75,2023-03-27_15h15.16.774,tripletExp_regina_11082022,2022.2.4,119.88109937348517,
0,4,7,2,0.027777777777778,0.298245614035088,2,0.694444444444444,0.298245614035088,2,0.111111111111111,1.0,ReadingArea_rsl2-rcl2-esl29-rsm2-rcm69-esm29-rsr2-rcr11-esr100,exr/ReadingArea_rsl2-rcl2-esl29-rsm2-rcm69-esm29-rsr2-rcr11-esr100.exr,ReadingArea_rsl2-rcl2-esl29-rsm2-rcm69-esm29-rsr2-rcr11-esr100.npz,,,,,0,49,49,200,,right,red,1.53,402.3970401287079,402.80860900878906,1,,2,8,lightness,readingArea,realistic,75,2023-03-27_15h15.16.774,tripletExp_regina_11082022,2022.2.4,119.88109937348517,
1,3,4,2,0.111111111111111,0.298245614035088,2,0.444444444444444,0.298245614035088,2,0.694444444444444,0.298245614035088,ReadingArea_rsl2-rcl11-esl29-rsm2-rcm44-esm29-rsr2-rcr69-esr29,exr/ReadingArea_rsl2-rcl11-esl29-rsm2-rcm44-esm29-rsr2-rcr69-esr29.exr,ReadingArea_rsl2-rcl11-esl29-rsm2-rcm44-esm29-rsr2-rcr69-esr29.npz,,,,,0,50,50,153,,right,red,1.63,404.50651812553406,404.91924810409546,1,,2,8,lightness,readingArea,realistic,75,2023-03-27_15h15.16.774,tripletExp_regina_11082022,2022.2.4,119.88109937348517,
9,0,6,2,0.444444444444444,1.0,2,0.027777777777778,0.298245614035088,2,0.027777777777778,1.0,ReadingArea_rsl2-rcl44-esl100-rsm2-rcm2-esm29-rsr2-rcr2-esr100,exr/ReadingArea_rsl2-rcl44-esl100-rsm2-rcm2-esm29-rsr2-rcr2-esr100.exr,ReadingArea_rsl2-rcl44-esl100-rsm2-rcm2-esm29-rsr2-rcr2-esr100.npz,,,,,0,51,51,362,,right,red,1.18,406.6143970489502,407.02603101730347,1,,2,8,lightness,readingArea,realistic,75,2023-03-27_15h15.16.774,tripletExp_regina_11082022,2022.2.4,119.88109937348517,
4,12,6,2,0.694444444444444,0.298245614035088,2,0.027777777777778,3.10526315789474,2,0.027777777777778,1.0,ReadingArea_rsl2-rcl69-esl29-rsm2-rcm2-esm310-rsr2-rcr2-esr100,exr/ReadingArea_rsl2-rcl69-esl29-rsm2-rcm2-esm310-rsr2-rcr2-esr100.exr,ReadingArea_rsl2-rcl69-esl29-rsm2-rcm2-esm310-rsr2-rcr2-esr100.npz,,,,,0,52,52,99,,right,red,1.09,408.72349405288696,409.13631296157837,1,,2,8,lightness,readingArea,realistic,75,2023-03-27_15h15.16.774,tripletExp_regina_11082022,2022.2.4,119.88109937348517,
13,0,8,2,0.111111111111111,3.10526315789474,2,0.027777777777778,0.298245614035088,2,0.25,1.0,ReadingArea_rsl2-rcl11-esl310-rsm2-rcm2-esm29-rsr2-rcr25-esr100,exr/ReadingArea_rsl2-rcl11-esl310-rsm2-rcm2-esm29-rsr2-rcr25-esr100.exr,ReadingArea_rsl2-rcl11-esl310-rsm2-rcm2-esm29-rsr2-rcr25-esr100.npz,,,,,0,53,53,249,,right,red,3.33,412.6058270931244,413.019513130188,1,,2,8,lightness,readingArea,realistic,75,2023-03-27_15h15.16.774,tripletExp_regina_11082022,2022.2.4,119.88109937348517,
8,13,3,2,0.25,1.0,2,0.111111111111111,3.10526315789474,2,0.444444444444444,0.298245614035088,ReadingArea_rsl2-rcl25-esl100-rsm2-rcm11-esm310-rsr2-rcr44-esr29,exr/ReadingArea_rsl2-rcl25-esl100-rsm2-rcm11-esm310-rsr2-rcr44-esr29.exr,ReadingArea_rsl2-rcl25-esl100-rsm2-rcm11-esm310-rsr2-rcr44-esr29.npz,,,,,0,54,54,553,,left,green,2.31,416.47082901000977,416.8773601055145,1,,2,8,lightness,readingArea,realistic,75,2023-03-27_15h15.16.774,tripletExp_regina_11082022,2022.2.4,119.88109937348517,
0,10,14,2,0.027777777777778,0.298245614035088,2,0.694444444444444,1.0,2,0.25,3.10526315789474,ReadingArea_rsl2-rcl2-esl29-rsm2-rcm69-esm100-rsr2-rcr25-esr310,exr/ReadingArea_rsl2-rcl2-esl29-rsm2-rcm69-esm100-rsr2-rcr25-esr310.exr,ReadingArea_rsl2-rcl2-esl29-rsm2-rcm69-esm100-rsr2-rcr25-esr310.npz,,,,,0,55,55,31,,right,red,1.08,418.5898439884186,419.0066659450531,1,,2,8,lightness,readingArea,realistic,75,2023-03-27_15h15.16.774,tripletExp_regina_11082022,2022.2.4,119.88109937348517,
5,2,7,2,1.0,0.298245614035088,2,0.25,0.298245614035088,2,0.111111111111111,1.0,ReadingArea_rsl2-rcl100-esl29-rsm2-rcm25-esm29-rsr2-rcr11-esr100,exr/ReadingArea_rsl2-rcl100-esl29-rsm2-rcm25-esm29-rsr2-rcr11-esr100.exr,ReadingArea_rsl2-rcl100-esl29-rsm2-rcm25-esm29-rsr2-rcr11-esr100.npz,,,,,0,56,56,179,,right,red,2.02,422.4544270038605,422.87903094291687,1,,2,8,lightness,readingArea,realistic,75,2023-03-27_15h15.16.774,tripletExp_regina_11082022,2022.2.4,119.88109937348517,
9,6,11,2,0.444444444444444,1.0,2,0.027777777777778,1.0,2,1.0,1.0,ReadingArea_rsl2-rcl44-esl100-rsm2-rcm2-esm100-rsr2-rcr100-esr100,exr/ReadingArea_rsl2-rcl44-esl100-rsm2-rcm2-esm100-rsr2-rcr100-esr100.exr,ReadingArea_rsl2-rcl44-esl100-rsm2-rcm2-esm100-rsr2-rcr100-esr100.npz,,,,,0,57,57,572,,left,green,2.47,426.3393449783325,426.75156903266907,1,,2,8,lightness,readingArea,realistic,75,2023-03-27_15h15.16.774,tripletExp_regina_11082022,2022.2.4,119.88109937348517,
3,0,4,2,0.444444444444444,0.298245614035088,2,0.027777777777778,0.298245614035088,2,0.694444444444444,0.298245614035088,ReadingArea_rsl2-rcl44-esl29-rsm2-rcm2-esm29-rsr2-rcr69-esr29,exr/ReadingArea_rsl2-rcl44-esl29-rsm2-rcm2-esm29-rsr2-rcr69-esr29.exr,ReadingArea_rsl2-rcl44-esl29-rsm2-rcm2-esm29-rsr2-rcr69-esr29.npz,,,,,0,58,58,111,,left,green,1.0,428.46020913124084,428.87558794021606,1,,2,8,lightness,readingArea,realistic,75,2023-03-27_15h15.16.774,tripletExp_regina_11082022,2022.2.4,119.88109937348517,
7,5,11,2,0.111111111111111,1.0,2,1.0,0.298245614035088,2,1.0,1.0,ReadingArea_rsl2-rcl11-esl100-rsm2-rcm100-esm29-rsr2-rcr100-esr100,exr/ReadingArea_rsl2-rcl11-esl100-rsm2-rcm100-esm29-rsr2-rcr100-esr100.exr,ReadingArea_rsl2-rcl11-esl100-rsm2-rcm100-esm29-rsr2-rcr100-esr100.npz,,,,,0,59,59,10,,right,red,2.49,432.3445460796356,432.767235994339,1,,2,8,lightness,readingArea,realistic,75,2023-03-27_15h15.16.774,tripletExp_regina_11082022,2022.2.4,119.88109937348517,
3,1,0,2,0.444444444444444,0.298245614035088,2,0.111111111111111,0.298245614035088,2,0.027777777777778,0.298245614035088,ReadingArea_rsl2-rcl44-esl29-rsm2-rcm11-esm29-rsr2-rcr2-esr29,exr/ReadingArea_rsl2-rcl44-esl29-rsm2-rcm11-esm29-rsr2-rcr2-esr29.exr,ReadingArea_rsl2-rcl44-esl29-rsm2-rcm11-esm29-rsr2-rcr2-esr29.npz,,,,,0,60,60,343,,right,red,1.87,436.2271239757538,436.6416699886322,1,,2,8,lightness,readingArea,realistic,75,2023-03-27_15h15.16.774,tripletExp_regina_11082022,2022.2.4,119.88109937348517,
1,13,11,2,0.111111111111111,0.298245614035088,2,0.111111111111111,3.10526315789474,2,1.0,1.0,ReadingArea_rsl2-rcl11-esl29-rsm2-rcm11-esm310-rsr2-rcr100-esr100,exr/ReadingArea_rsl2-rcl11-esl29-rsm2-rcm11-esm310-rsr2-rcr100-esr100.exr,ReadingArea_rsl2-rcl11-esl29-rsm2-rcm11-esm310-rsr2-rcr100-esr100.npz,,,,,0,61,61,333,,left,green,2.21,440.10684394836426,440.51816296577454,1,,2,8,lightness,readingArea,realistic,75,2023-03-27_15h15.16.774,tripletExp_regina_11082022,2022.2.4,119.88109937348517,
2,3,9,2,0.25,0.298245614035088,2,0.444444444444444,0.298245614035088,2,0.444444444444444,1.0,ReadingArea_rsl2-rcl25-esl29-rsm2-rcm44-esm29-rsr2-rcr44-esr100,exr/ReadingArea_rsl2-rcl25-esl29-rsm2-rcm44-esm29-rsr2-rcr44-esr100.exr,ReadingArea_rsl2-rcl25-esl29-rsm2-rcm44-esm29-rsr2-rcr44-esr100.npz,,,,,0,62,62,190,,left,green,1.4,442.22499990463257,442.6327021121979,1,,2,8,lightness,readingArea,realistic,75,2023-03-27_15h15.16.774,tripletExp_regina_11082022,2022.2.4,119.88109937348517,
12,13,7,2,0.027777777777778,3.10526315789474,2,0.111111111111111,3.10526315789474,2,0.111111111111111,1.0,ReadingArea_rsl2-rcl2-esl310-rsm2-rcm11-esm310-rsr2-rcr11-esr100,exr/ReadingArea_rsl2-rcl2-esl310-rsm2-rcm11-esm310-rsr2-rcr11-esr100.exr,ReadingArea_rsl2-rcl2-esl310-rsm2-rcm11-esm310-rsr2-rcr11-esr100.npz,,,,,0,63,63,408,,right,red,2.92,446.10032391548157,446.5083360671997,1,,2,8,lightness,readingArea,realistic,75,2023-03-27_15h15.16.774,tripletExp_regina_11082022,2022.2.4,119.88109937348517,
7,9,3,2,0.111111111111111,1.0,2,0.444444444444444,1.0,2,0.444444444444444,0.298245614035088,ReadingArea_rsl2-rcl11-esl100-rsm2-rcm44-esm100-rsr2-rcr44-esr29,exr/ReadingArea_rsl2-rcl11-esl100-rsm2-rcm44-esm100-rsr2-rcr44-esr29.exr,ReadingArea_rsl2-rcl11-esl100-rsm2-rcm44-esm100-rsr2-rcr44-esr29.npz,,,,,0,64,64,311,,right,red,1.39,448.2013599872589,448.6087670326233,1,,2,8,lightness,readingArea,realistic,75,2023-03-27_15h15.16.774,tripletExp_regina_11082022,2022.2.4,119.88109937348517,
1,14,8,2,0.111111111111111,0.298245614035088,2,0.25,3.10526315789474,2,0.25,1.0,ReadingArea_rsl2-rcl11-esl29-rsm2-rcm25-esm310-rsr2-rcr25-esr100,exr/ReadingArea_rsl2-rcl11-esl29-rsm2-rcm25-esm310-rsr2-rcr25-esr100.exr,ReadingArea_rsl2-rcl11-esl29-rsm2-rcm25-esm310-rsr2-rcr25-esr100.npz,,,,,0,65,65,108,,right,red,4.1,453.83309507369995,454.2446610927582,1,,2,8,lightness,readingArea,realistic,75,2023-03-27_15h15.16.774,tripletExp_regina_11082022,2022.2.4,119.88109937348517,
2,4,14,2,0.25,0.298245614035088,2,0.694444444444444,0.298245614035088,2,0.25,3.10526315789474,ReadingArea_rsl2-rcl25-esl29-rsm2-rcm69-esm29-rsr2-rcr25-esr310,exr/ReadingArea_rsl2-rcl25-esl29-rsm2-rcm69-esm29-rsr2-rcr25-esr310.exr,ReadingArea_rsl2-rcl25-esl29-rsm2-rcm69-esm29-rsr2-rcr25-esr310.npz,,,,,0,66,66,356,,left,green,2.84,457.7034649848938,,1,,2,8,lightness,readingArea,realistic,75,2023-03-27_15h15.16.774,tripletExp_regina_11082022,2022.2.4,119.88109937348517,
12,8,3,2,0.027777777777778,3.10526315789474,2,0.25,1.0,2,0.444444444444444,0.298245614035088,ReadingArea_rsl2-rcl2-esl310-rsm2-rcm25-esm100-rsr2-rcr44-esr29,exr/ReadingArea_rsl2-rcl2-esl310-rsm2-rcm25-esm100-rsr2-rcr44-esr29.exr,ReadingArea_rsl2-rcl2-esl310-rsm2-rcm25-esm100-rsr2-rcr44-esr29.npz,,,,,0,67,67,386,,right,red,2.4,461.58208894729614,462.08733105659485,1,,2,8,lightness,readingArea,realistic,75,2023-03-27_15h15.16.774,tripletExp_regina_11082022,2022.2.4,119.88109937348517,
6,0,11,2,0.027777777777778,1.0,2,0.027777777777778,0.298245614035088,2,1.0,1.0,ReadingArea_rsl2-rcl2-esl100-rsm2-rcm2-esm29-rsr2-rcr100-esr100,exr/ReadingArea_rsl2-rcl2-esl100-rsm2-rcm2-esm29-rsr2-rcr100-esr100.exr,ReadingArea_rsl2-rcl2-esl100-rsm2-rcm2-esm29-rsr2-rcr100-esr100.npz,,,,,0,68,68,245,,left,green,1.37,463.787477016449,,1,,2,8,lightness,readingArea,realistic,75,2023-03-27_15h15.16.774,tripletExp_regina_11082022,2022.2.4,119.88109937348517,
12,6,9,2,0.027777777777778,3.10526315789474,2,0.027777777777778,1.0,2,0.444444444444444,1.0,ReadingArea_rsl2-rcl2-esl310-rsm2-rcm2-esm100-rsr2-rcr44-esr100,exr/ReadingArea_rsl2-rcl2-esl310-rsm2-rcm2-esm100-rsr2-rcr44-esr100.exr,ReadingArea_rsl2-rcl2-esl310-rsm2-rcm2-esm100-rsr2-rcr44-esr100.npz,,,,,0,69,69,177,,left,green,1.38,465.92284202575684,466.3344531059265,1,,2,8,lightness,readingArea,realistic,75,2023-03-27_15h15.16.774,tripletExp_regina_11082022,2022.2.4,119.88109937348517,
14,6,7,2,0.25,3.10526315789474,2,0.027777777777778,1.0,2,0.111111111111111,1.0,ReadingArea_rsl2-rcl25-esl310-rsm2-rcm2-esm100-rsr2-rcr11-esr100,exr/ReadingArea_rsl2-rcl25-esl310-rsm2-rcm2-esm100-rsr2-rcr11-esr100.exr,ReadingArea_rsl2-rcl25-esl310-rsm2-rcm2-esm100-rsr2-rcr11-esr100.npz,,,,,0,70,70,306,,right,red,1.33,468.0485279560089,468.46289110183716,1,,2,8,lightness,readingArea,realistic,75,2023-03-27_15h15.16.774,tripletExp_regina_11082022,2022.2.4,119.88109937348517,
7,1,9,2,0.111111111111111,1.0,2,0.111111111111111,0.298245614035088,2,0.444444444444444,1.0,ReadingArea_rsl2-rcl11-esl100-rsm2-rcm11-esm29-rsr2-rcr44-esr100,exr/ReadingArea_rsl2-rcl11-esl100-rsm2-rcm11-esm29-rsr2-rcr44-esr100.exr,ReadingArea_rsl2-rcl11-esl100-rsm2-rcm11-esm29-rsr2-rcr44-esr100.npz,,,,,0,71,71,89,,left,green,1.2,470.16607093811035,470.5874629020691,1,,2,8,lightness,readingArea,realistic,75,2023-03-27_15h15.16.774,tripletExp_regina_11082022,2022.2.4,119.88109937348517,
8,1,10,2,0.25,1.0,2,0.111111111111111,0.298245614035088,2,0.694444444444444,1.0,ReadingArea_rsl2-rcl25-esl100-rsm2-rcm11-esm29-rsr2-rcr69-esr100,exr/ReadingArea_rsl2-rcl25-esl100-rsm2-rcm11-esm29-rsr2-rcr69-esr100.exr,ReadingArea_rsl2-rcl25-esl100-rsm2-rcm11-esm29-rsr2-rcr69-esr100.npz,,,,,0,72,72,442,,left,green,1.12,472.29092812538147,472.70504808425903,1,,2,8,lightness,readingArea,realistic,75,2023-03-27_15h15.16.774,tripletExp_regina_11082022,2022.2.4,119.88109937348517,
6,13,8,2,0.027777777777778,1.0,2,0.111111111111111,3.10526315789474,2,0.25,1.0,ReadingArea_rsl2-rcl2-esl100-rsm2-rcm11-esm310-rsr2-rcr25-esr100,exr/ReadingArea_rsl2-rcl2-esl100-rsm2-rcm11-esm310-rsr2-rcr25-esr100.exr,ReadingArea_rsl2-rcl2-esl100-rsm2-rcm11-esm310-rsr2-rcr25-esr100.npz,,,,,0,73,73,535,,right,red,1.21,474.39701104164124,474.8079171180725,1,,2,8,lightness,readingArea,realistic,75,2023-03-27_15h15.16.774,tripletExp_regina_11082022,2022.2.4,119.88109937348517,
4,1,3,2,0.694444444444444,0.298245614035088,2,0.111111111111111,0.298245614035088,2,0.444444444444444,0.298245614035088,ReadingArea_rsl2-rcl69-esl29-rsm2-rcm11-esm29-rsr2-rcr44-esr29,exr/ReadingArea_rsl2-rcl69-esl29-rsm2-rcm11-esm29-rsr2-rcr44-esr29.exr,ReadingArea_rsl2-rcl69-esl29-rsm2-rcm11-esm29-rsr2-rcr44-esr29.npz,,,,,0,74,74,70,,right,red,1.23,476.515615940094,476.7216899394989,1,,2,8,lightness,readingArea,realistic,75,2023-03-27_15h15.16.774,tripletExp_regina_11082022,2022.2.4,119.88109937348517,
12,10,6,2,0.027777777777778,3.10526315789474,2,0.694444444444444,1.0,2,0.027777777777778,1.0,ReadingArea_rsl2-rcl2-esl310-rsm2-rcm69-esm100-rsr2-rcr2-esr100,exr/ReadingArea_rsl2-rcl2-esl310-rsm2-rcm69-esm100-rsr2-rcr2-esr100.exr,ReadingArea_rsl2-rcl2-esl310-rsm2-rcm69-esm100-rsr2-rcr2-esr100.npz,,,,,0,75,75,273,,left,green,2.11,526.9467990398407,527.3610060214996,2,,2,8,lightness,readingArea,realistic,75,2023-03-27_15h15.16.774,tripletExp_regina_11082022,2022.2.4,119.88109937348517,
6,4,2,2,0.027777777777778,1.0,2,0.694444444444444,0.298245614035088,2,0.25,0.298245614035088,ReadingArea_rsl2-rcl2-esl100-rsm2-rcm69-esm29-rsr2-rcr25-esr29,exr/ReadingArea_rsl2-rcl2-esl100-rsm2-rcm69-esm29-rsr2-rcr25-esr29.exr,ReadingArea_rsl2-rcl2-esl100-rsm2-rcm69-esm29-rsr2-rcr25-esr29.npz,,,,,0,76,76,134,,right,red,2.09,530.8191030025482,531.2343990802765,2,,2,8,lightness,readingArea,realistic,75,2023-03-27_15h15.16.774,tripletExp_regina_11082022,2022.2.4,119.88109937348517,
4,9,13,2,0.694444444444444,0.298245614035088,2,0.444444444444444,1.0,2,0.111111111111111,3.10526315789474,ReadingArea_rsl2-rcl69-esl29-rsm2-rcm44-esm100-rsr2-rcr11-esr310,exr/ReadingArea_rsl2-rcl69-esl29-rsm2-rcm44-esm100-rsr2-rcr11-esr310.exr,ReadingArea_rsl2-rcl69-esl29-rsm2-rcm44-esm100-rsr2-rcr11-esr310.npz,,,,,0,77,77,488,,left,green,2.14,534.6956520080566,535.1072521209717,2,,2,8,lightness,readingArea,realistic,75,2023-03-27_15h15.16.774,tripletExp_regina_11082022,2022.2.4,119.88109937348517,
10,7,4,2,0.694444444444444,1.0,2,0.111111111111111,1.0,2,0.694444444444444,0.298245614035088,ReadingArea_rsl2-rcl69-esl100-rsm2-rcm11-esm100-rsr2-rcr69-esr29,exr/ReadingArea_rsl2-rcl69-esl100-rsm2-rcm11-esm100-rsr2-rcr69-esr29.exr,ReadingArea_rsl2-rcl69-esl100-rsm2-rcm11-esm100-rsr2-rcr69-esr29.npz,,,,,0,78,78,223,,right,red,2.16,538.5598449707031,538.9803318977356,2,,2,8,lightness,readingArea,realistic,75,2023-03-27_15h15.16.774,tripletExp_regina_11082022,2022.2.4,119.88109937348517,
10,4,9,2,0.694444444444444,1.0,2,0.694444444444444,0.298245614035088,2,0.444444444444444,1.0,ReadingArea_rsl2-rcl69-esl100-rsm2-rcm69-esm29-rsr2-rcr44-esr100,exr/ReadingArea_rsl2-rcl69-esl100-rsm2-rcm69-esm29-rsr2-rcr44-esr100.exr,ReadingArea_rsl2-rcl69-esl100-rsm2-rcm69-esm29-rsr2-rcr44-esr100.npz,,,,,0,79,79,452,,right,red,2.23,542.4504299163818,542.8690600395203,2,,2,8,lightness,readingArea,realistic,75,2023-03-27_15h15.16.774,tripletExp_regina_11082022,2022.2.4,119.88109937348517,
9,14,7,2,0.444444444444444,1.0,2,0.25,3.10526315789474,2,0.111111111111111,1.0,ReadingArea_rsl2-rcl44-esl100-rsm2-rcm25-esm310-rsr2-rcr11-esr100,exr/ReadingArea_rsl2-rcl44-esl100-rsm2-rcm25-esm310-rsr2-rcr11-esr100.exr,ReadingArea_rsl2-rcl44-esl100-rsm2-rcm25-esm310-rsr2-rcr11-esr100.npz,,,,,0,80,80,44,,left,green,1.28,544.5584259033203,,2,,2,8,lightness,readingArea,realistic,75,2023-03-27_15h15.16.774,tripletExp_regina_11082022,2022.2.4,119.88109937348517,
12,8,10,2,0.027777777777778,3.10526315789474,2,0.25,1.0,2,0.694444444444444,1.0,ReadingArea_rsl2-rcl2-esl310-rsm2-rcm25-esm100-rsr2-rcr69-esr100,exr/ReadingArea_rsl2-rcl2-esl310-rsm2-rcm25-esm100-rsr2-rcr69-esr100.exr,ReadingArea_rsl2-rcl2-esl310-rsm2-rcm25-esm100-rsr2-rcr69-esr100.npz,,,,,0,81,81,216,,left,green,2.02,548.426619052887,548.8441789150238,2,,2,8,lightness,readingArea,realistic,75,2023-03-27_15h15.16.774,tripletExp_regina_11082022,2022.2.4,119.88109937348517,
11,8,7,2,1.0,1.0,2,0.25,1.0,2,0.111111111111111,1.0,ReadingArea_rsl2-rcl100-esl100-rsm2-rcm25-esm100-rsr2-rcr11-esr100,exr/ReadingArea_rsl2-rcl100-esl100-rsm2-rcm25-esm100-rsr2-rcr11-esr100.exr,ReadingArea_rsl2-rcl100-esl100-rsm2-rcm25-esm100-rsr2-rcr11-esr100.npz,,,,,0,82,82,105,,right,red,1.05,550.5502860546112,550.9632880687714,2,,2,8,lightness,readingArea,realistic,75,2023-03-27_15h15.16.774,tripletExp_regina_11082022,2022.2.4,119.88109937348517,
9,6,13,2,0.444444444444444,1.0,2,0.027777777777778,1.0,2,0.111111111111111,3.10526315789474,ReadingArea_rsl2-rcl44-esl100-rsm2-rcm2-esm100-rsr2-rcr11-esr310,exr/ReadingArea_rsl2-rcl44-esl100-rsm2-rcm2-esm100-rsr2-rcr11-esr310.exr,ReadingArea_rsl2-rcl44-esl100-rsm2-rcm2-esm100-rsr2-rcr11-esr310.npz,,,,,0,83,83,285,,left,green,1.42,552.6716830730438,553.1007769107819,2,,2,8,lightness,readingArea,realistic,75,2023-03-27_15h15.16.774,tripletExp_regina_11082022,2022.2.4,119.88109937348517,
0,5,12,2,0.027777777777778,0.298245614035088,2,1.0,0.298245614035088,2,0.027777777777778,3.10526315789474,ReadingArea_rsl2-rcl2-esl29-rsm2-rcm100-esm29-rsr2-rcr2-esr310,exr/ReadingArea_rsl2-rcl2-esl29-rsm2-rcm100-esm29-rsr2-rcr2-esr310.exr,ReadingArea_rsl2-rcl2-esl29-rsm2-rcm100-esm29-rsr2-rcr2-esr310.npz,,,,,0,84,84,366,,right,red,2.92,556.5788750648499,557.0038650035858,2,,2,8,lightness,readingArea,realistic,75,2023-03-27_15h15.16.774,tripletExp_regina_11082022,2022.2.4,119.88109937348517,
11,12,1,2,1.0,1.0,2,0.027777777777778,3.10526315789474,2,0.111111111111111,0.298245614035088,ReadingArea_rsl2-rcl100-esl100-rsm2-rcm2-esm310-rsr2-rcr11-esr29,exr/ReadingArea_rsl2-rcl100-esl100-rsm2-rcm2-esm310-rsr2-rcr11-esr29.exr,ReadingArea_rsl2-rcl100-esl100-rsm2-rcm2-esm310-rsr2-rcr11-esr29.npz,,,,,0,85,85,140,,right,red,1.15,558.7088050842285,559.1268410682678,2,,2,8,lightness,readingArea,realistic,75,2023-03-27_15h15.16.774,tripletExp_regina_11082022,2022.2.4,119.88109937348517,
12,14,4,2,0.027777777777778,3.10526315789474,2,0.25,3.10526315789474,2,0.694444444444444,0.298245614035088,ReadingArea_rsl2-rcl2-esl310-rsm2-rcm25-esm310-rsr2-rcr69-esr29,exr/ReadingArea_rsl2-rcl2-esl310-rsm2-rcm25-esm310-rsr2-rcr69-esr29.exr,ReadingArea_rsl2-rcl2-esl310-rsm2-rcm25-esm310-rsr2-rcr69-esr29.npz,,,,,0,86,86,315,,right,red,1.03,560.8235960006714,561.2367000579834,2,,2,8,lightness,readingArea,realistic,75,2023-03-27_15h15.16.774,tripletExp_regina_11082022,2022.2.4,119.88109937348517,
13,2,9,2,0.111111111111111,3.10526315789474,2,0.25,0.298245614035088,2,0.444444444444444,1.0,ReadingArea_rsl2-rcl11-esl310-rsm2-rcm25-esm29-rsr2-rcr44-esr100,exr/ReadingArea_rsl2-rcl11-esl310-rsm2-rcm25-esm29-rsr2-rcr44-esr100.exr,ReadingArea_rsl2-rcl11-esl310-rsm2-rcm25-esm29-rsr2-rcr44-esr100.npz,,,,,0,87,87,457,,left,green,4.66,566.4703860282898,,2,,2,8,lightness,readingArea,realistic,75,2023-03-27_15h15.16.774,tripletExp_regina_11082022,2022.2.4,119.88109937348517,
8,6,11,2,0.25,1.0,2,0.027777777777778,1.0,2,1.0,1.0,ReadingArea_rsl2-rcl25-esl100-rsm2-rcm2-esm100-rsr2-rcr100-esr100,exr/ReadingArea_rsl2-rcl25-esl100-rsm2-rcm2-esm100-rsr2-rcr100-esr100.exr,ReadingArea_rsl2-rcl25-esl100-rsm2-rcm2-esm100-rsr2-rcr100-esr100.npz,,,,,0,88,88,236,,left,green,1.22,568.5822460651398,568.9967811107635,2,,2,8,lightness,readingArea,realistic,75,2023-03-27_15h15.16.774,tripletExp_regina_11082022,2022.2.4,119.88109937348517,
6,4,13,2,0.027777777777778,1.0,2,0.694444444444444,0.298245614035088,2,0.111111111111111,3.10526315789474,ReadingArea_rsl2-rcl2-esl100-rsm2-rcm69-esm29-rsr2-rcr11-esr310,exr/ReadingArea_rsl2-rcl2-esl100-rsm2-rcm69-esm29-rsr2-rcr11-esr310.exr,ReadingArea_rsl2-rcl2-esl100-rsm2-rcm69-esm29-rsr2-rcr11-esr310.npz,,,,,0,89,89,202,,right,red,1.4,570.7119479179382,571.1230359077454,2,,2,8,lightness,readingArea,realistic,75,2023-03-27_15h15.16.774,tripletExp_regina_11082022,2022.2.4,119.88109937348517,
2,3,13,2,0.25,0.298245614035088,2,0.444444444444444,0.298245614035088,2,0.111111111111111,3.10526315789474,ReadingArea_rsl2-rcl25-esl29-rsm2-rcm44-esm29-rsr2-rcr11-esr310,exr/ReadingArea_rsl2-rcl25-esl29-rsm2-rcm44-esm29-rsr2-rcr11-esr310.exr,ReadingArea_rsl2-rcl25-esl29-rsm2-rcm44-esm29-rsr2-rcr11-esr310.npz,,,,,0,90,90,498,,left,green,1.47,572.8213229179382,,2,,2,8,lightness,readingArea,realistic,75,2023-03-27_15h15.16.774,tripletExp_regina_11082022,2022.2.4,119.88109937348517,
5,10,0,2,1.0,0.298245614035088,2,0.694444444444444,1.0,2,0.027777777777778,0.298245614035088,ReadingArea_rsl2-rcl100-esl29-rsm2-rcm69-esm100-rsr2-rcr2-esr29,exr/ReadingArea_rsl2-rcl100-esl29-rsm2-rcm69-esm100-rsr2-rcr2-esr29.exr,ReadingArea_rsl2-rcl100-esl29-rsm2-rcm69-esm100-rsr2-rcr2-esr29.npz,,,,,0,91,91,293,,left,green,1.21,574.9266810417175,575.3415291309357,2,,2,8,lightness,readingArea,realistic,75,2023-03-27_15h15.16.774,tripletExp_regina_11082022,2022.2.4,119.88109937348517,
3,13,10,2,0.444444444444444,0.298245614035088,2,0.111111111111111,3.10526315789474,2,0.694444444444444,1.0,ReadingArea_rsl2-rcl44-esl29-rsm2-rcm11-esm310-rsr2-rcr69-esr100,exr/ReadingArea_rsl2-rcl44-esl29-rsm2-rcm11-esm310-rsr2-rcr69-esr100.exr,ReadingArea_rsl2-rcl44-esl29-rsm2-rcm11-esm310-rsr2-rcr69-esr100.npz,,,,,0,92,92,416,,left,green,1.18,577.0323150157928,577.481810092926,2,,2,8,lightness,readingArea,realistic,75,2023-03-27_15h15.16.774,tripletExp_regina_11082022,2022.2.4,119.88109937348517,
0,1,7,2,0.027777777777778,0.298245614035088,2,0.111111111111111,0.298245614035088,2,0.111111111111111,1.0,ReadingArea_rsl2-rcl2-esl29-rsm2-rcm11-esm29-rsr2-rcr11-esr100,exr/ReadingArea_rsl2-rcl2-esl29-rsm2-rcm11-esm29-rsr2-rcr11-esr100.exr,ReadingArea_rsl2-rcl2-esl29-rsm2-rcm11-esm29-rsr2-rcr11-esr100.npz,,,,,0,93,93,243,,right,red,1.16,579.2022609710693,579.6145911216736,2,,2,8,lightness,readingArea,realistic,75,2023-03-27_15h15.16.774,tripletExp_regina_11082022,2022.2.4,119.88109937348517,
4,6,3,2,0.694444444444444,0.298245614035088,2,0.027777777777778,1.0,2,0.444444444444444,0.298245614035088,ReadingArea_rsl2-rcl69-esl29-rsm2-rcm2-esm100-rsr2-rcr44-esr29,exr/ReadingArea_rsl2-rcl69-esl29-rsm2-rcm2-esm100-rsr2-rcr44-esr29.exr,ReadingArea_rsl2-rcl69-esl29-rsm2-rcm2-esm100-rsr2-rcr44-esr29.npz,,,,,0,94,94,344,,right,red,1.37,581.3347589969635,581.7480161190033,2,,2,8,lightness,readingArea,realistic,75,2023-03-27_15h15.16.774,tripletExp_regina_11082022,2022.2.4,119.88109937348517,
9,7,10,2,0.444444444444444,1.0,2,0.111111111111111,1.0,2,0.694444444444444,1.0,ReadingArea_rsl2-rcl44-esl100-rsm2-rcm11-esm100-rsr2-rcr69-esr100,exr/ReadingArea_rsl2-rcl44-esl100-rsm2-rcm11-esm100-rsr2-rcr69-esr100.exr,ReadingArea_rsl2-rcl44-esl100-rsm2-rcm11-esm100-rsr2-rcr69-esr100.npz,,,,,0,95,95,508,,left,green,1.58,583.4469470977783,583.8574140071869,2,,2,8,lightness,readingArea,realistic,75,2023-03-27_15h15.16.774,tripletExp_regina_11082022,2022.2.4,119.88109937348517,
5,4,1,2,1.0,0.298245614035088,2,0.694444444444444,0.298245614035088,2,0.111111111111111,0.298245614035088,ReadingArea_rsl2-rcl100-esl29-rsm2-rcm69-esm29-rsr2-rcr11-esr29,exr/ReadingArea_rsl2-rcl100-esl29-rsm2-rcm69-esm29-rsr2-rcr11-esr29.exr,ReadingArea_rsl2-rcl100-esl29-rsm2-rcm69-esm29-rsr2-rcr11-esr29.npz,,,,,0,96,96,560,,left,green,1.45,585.5562970638275,,2,,2,8,lightness,readingArea,realistic,75,2023-03-27_15h15.16.774,tripletExp_regina_11082022,2022.2.4,119.88109937348517,
12,9,11,2,0.027777777777778,3.10526315789474,2,0.444444444444444,1.0,2,1.0,1.0,ReadingArea_rsl2-rcl2-esl310-rsm2-rcm44-esm100-rsr2-rcr100-esr100,exr/ReadingArea_rsl2-rcl2-esl310-rsm2-rcm44-esm100-rsr2-rcr100-esr100.exr,ReadingArea_rsl2-rcl2-esl310-rsm2-rcm44-esm100-rsr2-rcr100-esr100.npz,,,,,0,97,97,18,,right,red,1.35,587.6631510257721,588.1229190826416,2,,2,8,lightness,readingArea,realistic,75,2023-03-27_15h15.16.774,tripletExp_regina_11082022,2022.2.4,119.88109937348517,
8,9,2,2,0.25,1.0,2,0.444444444444444,1.0,2,0.25,0.298245614035088,ReadingArea_rsl2-rcl25-esl100-rsm2-rcm44-esm100-rsr2-rcr25-esr29,exr/ReadingArea_rsl2-rcl25-esl100-rsm2-rcm44-esm100-rsr2-rcr25-esr29.exr,ReadingArea_rsl2-rcl25-esl100-rsm2-rcm44-esm100-rsr2-rcr25-esr29.npz,,,,,0,98,98,559,,left,green,1.22,589.8209810256958,590.2383670806885,2,,2,8,lightness,readingArea,realistic,75,2023-03-27_15h15.16.774,tripletExp_regina_11082022,2022.2.4,119.88109937348517,
5,6,0,2,1.0,0.298245614035088,2,0.027777777777778,1.0,2,0.027777777777778,0.298245614035088,ReadingArea_rsl2-rcl100-esl29-rsm2-rcm2-esm100-rsr2-rcr2-esr29,exr/ReadingArea_rsl2-rcl100-esl29-rsm2-rcm2-esm100-rsr2-rcr2-esr29.exr,ReadingArea_rsl2-rcl100-esl29-rsm2-rcm2-esm100-rsr2-rcr2-esr29.npz,,,,,0,99,99,511,,right,red,1.02,591.9341881275177,592.3541901111603,2,,2,8,lightness,readingArea,realistic,75,2023-03-27_15h15.16.774,tripletExp_regina_11082022,2022.2.4,119.88109937348517,
1,5,8,2,0.111111111111111,0.298245614035088,2,1.0,0.298245614035088,2,0.25,1.0,ReadingArea_rsl2-rcl11-esl29-rsm2-rcm100-esm29-rsr2-rcr25-esr100,exr/ReadingArea_rsl2-rcl11-esl29-rsm2-rcm100-esm29-rsr2-rcr25-esr100.exr,ReadingArea_rsl2-rcl11-esl29-rsm2-rcm100-esm29-rsr2-rcr25-esr100.npz,,,,,0,100,100,238,,right,red,1.15,594.0769150257111,594.5158820152283,2,,2,8,lightness,readingArea,realistic,75,2023-03-27_15h15.16.774,tripletExp_regina_11082022,2022.2.4,119.88109937348517,
11,3,12,2,1.0,1.0,2,0.444444444444444,0.298245614035088,2,0.027777777777778,3.10526315789474,ReadingArea_rsl2-rcl100-esl100-rsm2-rcm44-esm29-rsr2-rcr2-esr310,exr/ReadingArea_rsl2-rcl100-esl100-rsm2-rcm44-esm29-rsr2-rcr2-esr310.exr,ReadingArea_rsl2-rcl100-esl100-rsm2-rcm44-esm29-rsr2-rcr2-esr310.npz,,,,,0,101,101,355,,right,red,3.08,597.9746329784393,598.3883190155029,2,,2,8,lightness,readingArea,realistic,75,2023-03-27_15h15.16.774,tripletExp_regina_11082022,2022.2.4,119.88109937348517,
2,1,10,2,0.25,0.298245614035088,2,0.111111111111111,0.298245614035088,2,0.694444444444444,1.0,ReadingArea_rsl2-rcl25-esl29-rsm2-rcm11-esm29-rsr2-rcr69-esr100,exr/ReadingArea_rsl2-rcl25-esl29-rsm2-rcm11-esm29-rsr2-rcr69-esr100.exr,ReadingArea_rsl2-rcl25-esl29-rsm2-rcm11-esm29-rsr2-rcr69-esr100.npz,,,,,0,102,102,585,,left,green,1.07,600.0768411159515,600.4950289726257,2,,2,8,lightness,readingArea,realistic,75,2023-03-27_15h15.16.774,tripletExp_regina_11082022,2022.2.4,119.88109937348517,
7,13,6,2,0.111111111111111,1.0,2,0.111111111111111,3.10526315789474,2,0.027777777777778,1.0,ReadingArea_rsl2-rcl11-esl100-rsm2-rcm11-esm310-rsr2-rcr2-esr100,exr/ReadingArea_rsl2-rcl11-esl100-rsm2-rcm11-esm310-rsr2-rcr2-esr100.exr,ReadingArea_rsl2-rcl11-esl100-rsm2-rcm11-esm310-rsr2-rcr2-esr100.npz,,,,,0,103,103,73,,left,green,1.01,602.1936891078949,602.6112489700317,2,,2,8,lightness,readingArea,realistic,75,2023-03-27_15h15.16.774,tripletExp_regina_11082022,2022.2.4,119.88109937348517,
10,11,12,2,0.694444444444444,1.0,2,1.0,1.0,2,0.027777777777778,3.10526315789474,ReadingArea_rsl2-rcl69-esl100-rsm2-rcm100-esm100-rsr2-rcr2-esr310,exr/ReadingArea_rsl2-rcl69-esl100-rsm2-rcm100-esm100-rsr2-rcr2-esr310.exr,ReadingArea_rsl2-rcl69-esl100-rsm2-rcm100-esm100-rsr2-rcr2-esr310.npz,,,,,0,104,104,533,,left,green,2.74,606.0657479763031,606.5112910270691,2,,2,8,lightness,readingArea,realistic,75,2023-03-27_15h15.16.774,tripletExp_regina_11082022,2022.2.4,119.88109937348517,
5,7,14,2,1.0,0.298245614035088,2,0.111111111111111,1.0,2,0.25,3.10526315789474,ReadingArea_rsl2-rcl100-esl29-rsm2-rcm11-esm100-rsr2-rcr25-esr310,exr/ReadingArea_rsl2-rcl100-esl29-rsm2-rcm11-esm100-rsr2-rcr25-esr310.exr,ReadingArea_rsl2-rcl100-esl29-rsm2-rcm11-esm100-rsr2-rcr25-esr310.npz,,,,,0,105,105,210,,left,green,1.32,608.2011089324951,608.6144149303436,2,,2,8,lightness,readingArea,realistic,75,2023-03-27_15h15.16.774,tripletExp_regina_11082022,2022.2.4,119.88109937348517,
12,10,5,2,0.027777777777778,3.10526315789474,2,0.694444444444444,1.0,2,1.0,0.298245614035088,ReadingArea_rsl2-rcl2-esl310-rsm2-rcm69-esm100-rsr2-rcr100-esr29,exr/ReadingArea_rsl2-rcl2-esl310-rsm2-rcm69-esm100-rsr2-rcr100-esr29.exr,ReadingArea_rsl2-rcl2-esl310-rsm2-rcm69-esm100-rsr2-rcr100-esr29.npz,,,,,0,106,106,470,,right,red,2.81,612.1111850738525,,2,,2,8,lightness,readingArea,realistic,75,2023-03-27_15h15.16.774,tripletExp_regina_11082022,2022.2.4,119.88109937348517,
6,4,10,2,0.027777777777778,1.0,2,0.694444444444444,0.298245614035088,2,0.694444444444444,1.0,ReadingArea_rsl2-rcl2-esl100-rsm2-rcm69-esm29-rsr2-rcr69-esr100,exr/ReadingArea_rsl2-rcl2-esl100-rsm2-rcm69-esm29-rsr2-rcr69-esr100.exr,ReadingArea_rsl2-rcl2-esl100-rsm2-rcm69-esm29-rsr2-rcr69-esr100.npz,,,,,0,107,107,554,,right,red,1.4,614.252660036087,,2,,2,8,lightness,readingArea,realistic,75,2023-03-27_15h15.16.774,tripletExp_regina_11082022,2022.2.4,119.88109937348517,
9,6,8,2,0.444444444444444,1.0,2,0.027777777777778,1.0,2,0.25,1.0,ReadingArea_rsl2-rcl44-esl100-rsm2-rcm2-esm100-rsr2-rcr25-esr100,exr/ReadingArea_rsl2-rcl44-esl100-rsm2-rcm2-esm100-rsr2-rcr25-esr100.exr,ReadingArea_rsl2-rcl44-esl100-rsm2-rcm2-esm100-rsr2-rcr25-esr100.npz,,,,,0,108,108,312,,right,red,3.08,618.1515951156616,618.5755300521851,2,,2,8,lightness,readingArea,realistic,75,2023-03-27_15h15.16.774,tripletExp_regina_11082022,2022.2.4,119.88109937348517,
7,3,0,2,0.111111111111111,1.0,2,0.444444444444444,0.298245614035088,2,0.027777777777778,0.298245614035088,ReadingArea_rsl2-rcl11-esl100-rsm2-rcm44-esm29-rsr2-rcr2-esr29,exr/ReadingArea_rsl2-rcl11-esl100-rsm2-rcm44-esm29-rsr2-rcr2-esr29.exr,ReadingArea_rsl2-rcl11-esl100-rsm2-rcm44-esm29-rsr2-rcr2-esr29.npz,,,,,0,109,109,318,,left,green,3.99,623.8162019252777,624.3500699996948,2,,2,8,lightness,readingArea,realistic,75,2023-03-27_15h15.16.774,tripletExp_regina_11082022,2022.2.4,119.88109937348517,
3,14,5,2,0.444444444444444,0.298245614035088,2,0.25,3.10526315789474,2,1.0,0.298245614035088,ReadingArea_rsl2-rcl44-esl29-rsm2-rcm25-esm310-rsr2-rcr100-esr29,exr/ReadingArea_rsl2-rcl44-esl29-rsm2-rcm25-esm310-rsr2-rcr100-esr29.exr,ReadingArea_rsl2-rcl44-esl29-rsm2-rcm25-esm310-rsr2-rcr100-esr29.npz,,,,,0,110,110,131,,right,red,2.91,627.8464109897614,,2,,2,8,lightness,readingArea,realistic,75,2023-03-27_15h15.16.774,tripletExp_regina_11082022,2022.2.4,119.88109937348517,
11,5,2,2,1.0,1.0,2,1.0,0.298245614035088,2,0.25,0.298245614035088,ReadingArea_rsl2-rcl100-esl100-rsm2-rcm100-esm29-rsr2-rcr25-esr29,exr/ReadingArea_rsl2-rcl100-esl100-rsm2-rcm100-esm29-rsr2-rcr25-esr29.exr,ReadingArea_rsl2-rcl100-esl100-rsm2-rcm100-esm29-rsr2-rcr25-esr29.npz,,,,,0,111,111,596,,right,red,3.09,631.7366769313812,632.154571056366,2,,2,8,lightness,readingArea,realistic,75,2023-03-27_15h15.16.774,tripletExp_regina_11082022,2022.2.4,119.88109937348517,
10,11,0,2,0.694444444444444,1.0,2,1.0,1.0,2,0.027777777777778,0.298245614035088,ReadingArea_rsl2-rcl69-esl100-rsm2-rcm100-esm100-rsr2-rcr2-esr29,exr/ReadingArea_rsl2-rcl69-esl100-rsm2-rcm100-esm100-rsr2-rcr2-esr29.exr,ReadingArea_rsl2-rcl69-esl100-rsm2-rcm100-esm100-rsr2-rcr2-esr29.npz,,,,,0,112,112,58,,left,green,2.58,635.6256461143494,636.0460810661316,2,,2,8,lightness,readingArea,realistic,75,2023-03-27_15h15.16.774,tripletExp_regina_11082022,2022.2.4,119.88109937348517,
5,2,8,2,1.0,0.298245614035088,2,0.25,0.298245614035088,2,0.25,1.0,ReadingArea_rsl2-rcl100-esl29-rsm2-rcm25-esm29-rsr2-rcr25-esr100,exr/ReadingArea_rsl2-rcl100-esl29-rsm2-rcm25-esm29-rsr2-rcr25-esr100.exr,ReadingArea_rsl2-rcl100-esl29-rsm2-rcm25-esm29-rsr2-rcr25-esr100.npz,,,,,0,113,113,538,,right,red,2.45,639.5123660564423,639.9320809841156,2,,2,8,lightness,readingArea,realistic,75,2023-03-27_15h15.16.774,tripletExp_regina_11082022,2022.2.4,119.88109937348517,
1,5,7,2,0.111111111111111,0.298245614035088,2,1.0,0.298245614035088,2,0.111111111111111,1.0,ReadingArea_rsl2-rcl11-esl29-rsm2-rcm100-esm29-rsr2-rcr11-esr100,exr/ReadingArea_rsl2-rcl11-esl29-rsm2-rcm100-esm29-rsr2-rcr11-esr100.exr,ReadingArea_rsl2-rcl11-esl29-rsm2-rcm100-esm29-rsr2-rcr11-esr100.npz,,,,,0,114,114,197,,right,red,1.12,641.6314780712128,642.0470681190491,2,,2,8,lightness,readingArea,realistic,75,2023-03-27_15h15.16.774,tripletExp_regina_11082022,2022.2.4,119.88109937348517,
13,6,8,2,0.111111111111111,3.10526315789474,2,0.027777777777778,1.0,2,0.25,1.0,ReadingArea_rsl2-rcl11-esl310-rsm2-rcm2-esm100-rsr2-rcr25-esr100,exr/ReadingArea_rsl2-rcl11-esl310-rsm2-rcm2-esm100-rsr2-rcr25-esr100.exr,ReadingArea_rsl2-rcl11-esl310-rsm2-rcm2-esm100-rsr2-rcr25-esr100.npz,,,,,0,115,115,340,,left,green,3.15,645.5121610164642,645.9323070049286,2,,2,8,lightness,readingArea,realistic,75,2023-03-27_15h15.16.774,tripletExp_regina_11082022,2022.2.4,119.88109937348517,
9,11,2,2,0.444444444444444,1.0,2,1.0,1.0,2,0.25,0.298245614035088,ReadingArea_rsl2-rcl44-esl100-rsm2-rcm100-esm100-rsr2-rcr25-esr29,exr/ReadingArea_rsl2-rcl44-esl100-rsm2-rcm100-esm100-rsr2-rcr25-esr29.exr,ReadingArea_rsl2-rcl44-esl100-rsm2-rcm100-esm100-rsr2-rcr25-esr29.npz,,,,,0,116,116,329,,left,green,1.08,647.6303989887238,648.0465989112854,2,,2,8,lightness,readingArea,realistic,75,2023-03-27_15h15.16.774,tripletExp_regina_11082022,2022.2.4,119.88109937348517,
0,2,1,2,0.027777777777778,0.298245614035088,2,0.25,0.298245614035088,2,0.111111111111111,0.298245614035088,ReadingArea_rsl2-rcl2-esl29-rsm2-rcm25-esm29-rsr2-rcr11-esr29,exr/ReadingArea_rsl2-rcl2-esl29-rsm2-rcm25-esm29-rsr2-rcr11-esr29.exr,ReadingArea_rsl2-rcl2-esl29-rsm2-rcm25-esm29-rsr2-rcr11-esr29.npz,,,,,0,117,117,527,,right,red,0.91,649.7456040382385,650.1622409820557,2,,2,8,lightness,readingArea,realistic,75,2023-03-27_15h15.16.774,tripletExp_regina_11082022,2022.2.4,119.88109937348517,
9,13,5,2,0.444444444444444,1.0,2,0.111111111111111,3.10526315789474,2,1.0,0.298245614035088,ReadingArea_rsl2-rcl44-esl100-rsm2-rcm11-esm310-rsr2-rcr100-esr29,exr/ReadingArea_rsl2-rcl44-esl100-rsm2-rcm11-esm310-rsr2-rcr100-esr29.exr,ReadingArea_rsl2-rcl44-esl100-rsm2-rcm11-esm310-rsr2-rcr100-esr29.npz,,,,,0,118,118,349,,left,green,4.2,655.3988740444183,655.8208029270172,2,,2,8,lightness,readingArea,realistic,75,2023-03-27_15h15.16.774,tripletExp_regina_11082022,2022.2.4,119.88109937348517,
10,7,3,2,0.694444444444444,1.0,2,0.111111111111111,1.0,2,0.444444444444444,0.298245614035088,ReadingArea_rsl2-rcl69-esl100-rsm2-rcm11-esm100-rsr2-rcr44-esr29,exr/ReadingArea_rsl2-rcl69-esl100-rsm2-rcm11-esm100-rsr2-rcr44-esr29.exr,ReadingArea_rsl2-rcl69-esl100-rsm2-rcm11-esm100-rsr2-rcr44-esr29.npz,,,,,0,119,119,582,,right,red,3.02,659.322261095047,659.7469711303711,2,,2,8,lightness,readingArea,realistic,75,2023-03-27_15h15.16.774,tripletExp_regina_11082022,2022.2.4,119.88109937348517,
9,12,0,2,0.444444444444444,1.0,2,0.027777777777778,3.10526315789474,2,0.027777777777778,0.298245614035088,ReadingArea_rsl2-rcl44-esl100-rsm2-rcm2-esm310-rsr2-rcr2-esr29,exr/ReadingArea_rsl2-rcl44-esl100-rsm2-rcm2-esm310-rsr2-rcr2-esr29.exr,ReadingArea_rsl2-rcl44-esl100-rsm2-rcm2-esm310-rsr2-rcr2-esr29.npz,,,,,0,120,120,175,,right,red,2.29,663.2352919578552,663.6520190238953,2,,2,8,lightness,readingArea,realistic,75,2023-03-27_15h15.16.774,tripletExp_regina_11082022,2022.2.4,119.88109937348517,
1,14,6,2,0.111111111111111,0.298245614035088,2,0.25,3.10526315789474,2,0.027777777777778,1.0,ReadingArea_rsl2-rcl11-esl29-rsm2-rcm25-esm310-rsr2-rcr2-esr100,exr/ReadingArea_rsl2-rcl11-esl29-rsm2-rcm25-esm310-rsr2-rcr2-esr100.exr,ReadingArea_rsl2-rcl11-esl29-rsm2-rcm25-esm310-rsr2-rcr2-esr100.npz,,,,,0,121,121,475,,left,green,2.49,667.1361560821533,,2,,2,8,lightness,readingArea,realistic,75,2023-03-27_15h15.16.774,tripletExp_regina_11082022,2022.2.4,119.88109937348517,
3,4,5,2,0.444444444444444,0.298245614035088,2,0.694444444444444,0.298245614035088,2,1.0,0.298245614035088,ReadingArea_rsl2-rcl44-esl29-rsm2-rcm69-esm29-rsr2-rcr100-esr29,exr/ReadingArea_rsl2-rcl44-esl29-rsm2-rcm69-esm29-rsr2-rcr100-esr29.exr,ReadingArea_rsl2-rcl44-esl29-rsm2-rcm69-esm29-rsr2-rcr100-esr29.npz,,,,,0,122,122,233,,left,green,1.62,669.2696580886841,,2,,2,8,lightness,readingArea,realistic,75,2023-03-27_15h15.16.774,tripletExp_regina_11082022,2022.2.4,119.88109937348517,
0,4,6,2,0.027777777777778,0.298245614035088,2,0.694444444444444,0.298245614035088,2,0.027777777777778,1.0,ReadingArea_rsl2-rcl2-esl29-rsm2-rcm69-esm29-rsr2-rcr2-esr100,exr/ReadingArea_rsl2-rcl2-esl29-rsm2-rcm69-esm29-rsr2-rcr2-esr100.exr,ReadingArea_rsl2-rcl2-esl29-rsm2-rcm69-esm29-rsr2-rcr2-esr100.npz,,,,,0,123,123,49,,right,red,2.77,673.1767160892487,673.6118710041046,2,,2,8,lightness,readingArea,realistic,75,2023-03-27_15h15.16.774,tripletExp_regina_11082022,2022.2.4,119.88109937348517,
8,7,12,2,0.25,1.0,2,0.111111111111111,1.0,2,0.027777777777778,3.10526315789474,ReadingArea_rsl2-rcl25-esl100-rsm2-rcm11-esm100-rsr2-rcr2-esr310,exr/ReadingArea_rsl2-rcl25-esl100-rsm2-rcm11-esm100-rsr2-rcr2-esr310.exr,ReadingArea_rsl2-rcl25-esl100-rsm2-rcm11-esm100-rsr2-rcr2-esr310.npz,,,,,0,124,124,471,,left,green,2.86,677.091521024704,677.5100469589233,2,,2,8,lightness,readingArea,realistic,75,2023-03-27_15h15.16.774,tripletExp_regina_11082022,2022.2.4,119.88109937348517,
5,4,10,2,1.0,0.298245614035088,2,0.694444444444444,0.298245614035088,2,0.694444444444444,1.0,ReadingArea_rsl2-rcl100-esl29-rsm2-rcm69-esm29-rsr2-rcr69-esr100,exr/ReadingArea_rsl2-rcl100-esl29-rsm2-rcm69-esm29-rsr2-rcr69-esr100.exr,ReadingArea_rsl2-rcl100-esl29-rsm2-rcm69-esm29-rsr2-rcr69-esr100.npz,,,,,0,125,125,536,,left,green,2.62,681.0056290626526,,2,,2,8,lightness,readingArea,realistic,75,2023-03-27_15h15.16.774,tripletExp_regina_11082022,2022.2.4,119.88109937348517,
3,9,0,2,0.444444444444444,0.298245614035088,2,0.444444444444444,1.0,2,0.027777777777778,0.298245614035088,ReadingArea_rsl2-rcl44-esl29-rsm2-rcm44-esm100-rsr2-rcr2-esr29,exr/ReadingArea_rsl2-rcl44-esl29-rsm2-rcm44-esm100-rsr2-rcr2-esr29.exr,ReadingArea_rsl2-rcl44-esl29-rsm2-rcm44-esm100-rsr2-rcr2-esr29.npz,,,,,0,126,126,551,,left,green,1.24,683.1539509296417,683.5738389492035,2,,2,8,lightness,readingArea,realistic,75,2023-03-27_15h15.16.774,tripletExp_regina_11082022,2022.2.4,119.88109937348517,
10,7,2,2,0.694444444444444,1.0,2,0.111111111111111,1.0,2,0.25,0.298245614035088,ReadingArea_rsl2-rcl69-esl100-rsm2-rcm11-esm100-rsr2-rcr25-esr29,exr/ReadingArea_rsl2-rcl69-esl100-rsm2-rcm11-esm100-rsr2-rcr25-esr29.exr,ReadingArea_rsl2-rcl69-esl100-rsm2-rcm11-esm100-rsr2-rcr25-esr29.npz,,,,,0,127,127,523,,right,red,2.77,687.0262770652771,687.4512469768524,2,,2,8,lightness,readingArea,realistic,75,2023-03-27_15h15.16.774,tripletExp_regina_11082022,2022.2.4,119.88109937348517,
4,10,6,2,0.694444444444444,0.298245614035088,2,0.694444444444444,1.0,2,0.027777777777778,1.0,ReadingArea_rsl2-rcl69-esl29-rsm2-rcm69-esm100-rsr2-rcr2-esr100,exr/ReadingArea_rsl2-rcl69-esl29-rsm2-rcm69-esm100-rsr2-rcr2-esr100.exr,ReadingArea_rsl2-rcl69-esl29-rsm2-rcm69-esm100-rsr2-rcr2-esr100.npz,,,,,0,128,128,468,,left,green,2.61,690.9174649715424,691.3391671180725,2,,2,8,lightness,readingArea,realistic,75,2023-03-27_15h15.16.774,tripletExp_regina_11082022,2022.2.4,119.88109937348517,
14,4,7,2,0.25,3.10526315789474,2,0.694444444444444,0.298245614035088,2,0.111111111111111,1.0,ReadingArea_rsl2-rcl25-esl310-rsm2-rcm69-esm29-rsr2-rcr11-esr100,exr/ReadingArea_rsl2-rcl25-esl310-rsm2-rcm69-esm29-rsr2-rcr11-esr100.exr,ReadingArea_rsl2-rcl25-esl310-rsm2-rcm69-esm29-rsr2-rcr11-esr100.npz,,,,,0,129,129,136,,left,green,4.28,696.5763919353485,697.0022010803223,2,,2,8,lightness,readingArea,realistic,75,2023-03-27_15h15.16.774,tripletExp_regina_11082022,2022.2.4,119.88109937348517,
9,11,3,2,0.444444444444444,1.0,2,1.0,1.0,2,0.444444444444444,0.298245614035088,ReadingArea_rsl2-rcl44-esl100-rsm2-rcm100-esm100-rsr2-rcr44-esr29,exr/ReadingArea_rsl2-rcl44-esl100-rsm2-rcm100-esm100-rsr2-rcr44-esr29.exr,ReadingArea_rsl2-rcl44-esl100-rsm2-rcm100-esm100-rsr2-rcr44-esr29.npz,,,,,0,130,130,348,,left,green,3.31,700.4759500026703,700.8971230983734,2,,2,8,lightness,readingArea,realistic,75,2023-03-27_15h15.16.774,tripletExp_regina_11082022,2022.2.4,119.88109937348517,
13,11,7,2,0.111111111111111,3.10526315789474,2,1.0,1.0,2,0.111111111111111,1.0,ReadingArea_rsl2-rcl11-esl310-rsm2-rcm100-esm100-rsr2-rcr11-esr100,exr/ReadingArea_rsl2-rcl11-esl310-rsm2-rcm100-esm100-rsr2-rcr11-esr100.exr,ReadingArea_rsl2-rcl11-esl310-rsm2-rcm100-esm100-rsr2-rcr11-esr100.npz,,,,,0,131,131,590,,left,green,3.16,704.3747959136963,704.7956399917603,2,,2,8,lightness,readingArea,realistic,75,2023-03-27_15h15.16.774,tripletExp_regina_11082022,2022.2.4,119.88109937348517,
6,1,2,2,0.027777777777778,1.0,2,0.111111111111111,0.298245614035088,2,0.25,0.298245614035088,ReadingArea_rsl2-rcl2-esl100-rsm2-rcm11-esm29-rsr2-rcr25-esr29,exr/ReadingArea_rsl2-rcl2-esl100-rsm2-rcm11-esm29-rsr2-rcr25-esr29.exr,ReadingArea_rsl2-rcl2-esl100-rsm2-rcm11-esm29-rsr2-rcr25-esr29.npz,,,,,0,132,132,68,,right,red,2.91,708.2615039348602,708.6862409114838,2,,2,8,lightness,readingArea,realistic,75,2023-03-27_15h15.16.774,tripletExp_regina_11082022,2022.2.4,119.88109937348517,
2,9,8,2,0.25,0.298245614035088,2,0.444444444444444,1.0,2,0.25,1.0,ReadingArea_rsl2-rcl25-esl29-rsm2-rcm44-esm100-rsr2-rcr25-esr100,exr/ReadingArea_rsl2-rcl25-esl29-rsm2-rcm44-esm100-rsr2-rcr25-esr100.exr,ReadingArea_rsl2-rcl25-esl29-rsm2-rcm44-esm100-rsr2-rcr25-esr100.npz,,,,,0,133,133,407,,right,red,3.98,713.9162731170654,714.3367960453033,2,,2,8,lightness,readingArea,realistic,75,2023-03-27_15h15.16.774,tripletExp_regina_11082022,2022.2.4,119.88109937348517,
14,12,5,2,0.25,3.10526315789474,2,0.027777777777778,3.10526315789474,2,1.0,0.298245614035088,ReadingArea_rsl2-rcl25-esl310-rsm2-rcm2-esm310-rsr2-rcr100-esr29,exr/ReadingArea_rsl2-rcl25-esl310-rsm2-rcm2-esm310-rsr2-rcr100-esr29.exr,ReadingArea_rsl2-rcl25-esl310-rsm2-rcm2-esm310-rsr2-rcr100-esr29.npz,,,,,0,134,134,335,,right,red,2.71,717.8147659301758,718.2389080524445,2,,2,8,lightness,readingArea,realistic,75,2023-03-27_15h15.16.774,tripletExp_regina_11082022,2022.2.4,119.88109937348517,
2,3,4,2,0.25,0.298245614035088,2,0.444444444444444,0.298245614035088,2,0.694444444444444,0.298245614035088,ReadingArea_rsl2-rcl25-esl29-rsm2-rcm44-esm29-rsr2-rcr69-esr29,exr/ReadingArea_rsl2-rcl25-esl29-rsm2-rcm44-esm29-rsr2-rcr69-esr29.exr,ReadingArea_rsl2-rcl25-esl29-rsm2-rcm44-esm29-rsr2-rcr69-esr29.npz,,,,,0,135,135,61,,right,red,3.1,721.6990900039673,722.1190190315247,2,,2,8,lightness,readingArea,realistic,75,2023-03-27_15h15.16.774,tripletExp_regina_11082022,2022.2.4,119.88109937348517,
8,12,7,2,0.25,1.0,2,0.027777777777778,3.10526315789474,2,0.111111111111111,1.0,ReadingArea_rsl2-rcl25-esl100-rsm2-rcm2-esm310-rsr2-rcr11-esr100,exr/ReadingArea_rsl2-rcl25-esl100-rsm2-rcm2-esm310-rsr2-rcr11-esr100.exr,ReadingArea_rsl2-rcl25-esl100-rsm2-rcm2-esm310-rsr2-rcr11-esr100.npz,,,,,0,136,136,467,,right,red,2.65,725.5852530002594,726.0063869953156,2,,2,8,lightness,readingArea,realistic,75,2023-03-27_15h15.16.774,tripletExp_regina_11082022,2022.2.4,119.88109937348517,
4,3,10,2,0.694444444444444,0.298245614035088,2,0.444444444444444,0.298245614035088,2,0.694444444444444,1.0,ReadingArea_rsl2-rcl69-esl29-rsm2-rcm44-esm29-rsr2-rcr69-esr100,exr/ReadingArea_rsl2-rcl69-esl29-rsm2-rcm44-esm29-rsr2-rcr69-esr100.exr,ReadingArea_rsl2-rcl69-esl29-rsm2-rcm44-esm29-rsr2-rcr69-esr100.npz,,,,,0,137,137,371,,left,green,2.35,729.4744870662689,729.8976109027863,2,,2,8,lightness,readingArea,realistic,75,2023-03-27_15h15.16.774,tripletExp_regina_11082022,2022.2.4,119.88109937348517,
4,2,5,2,0.694444444444444,0.298245614035088,2,0.25,0.298245614035088,2,1.0,0.298245614035088,ReadingArea_rsl2-rcl69-esl29-rsm2-rcm25-esm29-rsr2-rcr100-esr29,exr/ReadingArea_rsl2-rcl69-esl29-rsm2-rcm25-esm29-rsr2-rcr100-esr29.exr,ReadingArea_rsl2-rcl69-esl29-rsm2-rcm25-esm29-rsr2-rcr100-esr29.npz,,,,,0,138,138,101,,left,green,3.92,735.1332929134369,735.555902004242,2,,2,8,lightness,readingArea,realistic,75,2023-03-27_15h15.16.774,tripletExp_regina_11082022,2022.2.4,119.88109937348517,
12,3,0,2,0.027777777777778,3.10526315789474,2,0.444444444444444,0.298245614035088,2,0.027777777777778,0.298245614035088,ReadingArea_rsl2-rcl2-esl310-rsm2-rcm44-esm29-rsr2-rcr2-esr29,exr/ReadingArea_rsl2-rcl2-esl310-rsm2-rcm44-esm29-rsr2-rcr2-esr29.exr,ReadingArea_rsl2-rcl2-esl310-rsm2-rcm44-esm29-rsr2-rcr2-esr29.npz,,,,,0,139,139,502,,left,green,2.85,739.021605014801,739.4382829666138,2,,2,8,lightness,readingArea,realistic,75,2023-03-27_15h15.16.774,tripletExp_regina_11082022,2022.2.4,119.88109937348517,
4,12,7,2,0.694444444444444,0.298245614035088,2,0.027777777777778,3.10526315789474,2,0.111111111111111,1.0,ReadingArea_rsl2-rcl69-esl29-rsm2-rcm2-esm310-rsr2-rcr11-esr100,exr/ReadingArea_rsl2-rcl69-esl29-rsm2-rcm2-esm310-rsr2-rcr11-esr100.exr,ReadingArea_rsl2-rcl69-esl29-rsm2-rcm2-esm310-rsr2-rcr11-esr100.npz,,,,,0,140,140,112,,right,red,1.25,741.135332107544,741.5556020736694,2,,2,8,lightness,readingArea,realistic,75,2023-03-27_15h15.16.774,tripletExp_regina_11082022,2022.2.4,119.88109937348517,
10,13,1,2,0.694444444444444,1.0,2,0.111111111111111,3.10526315789474,2,0.111111111111111,0.298245614035088,ReadingArea_rsl2-rcl69-esl100-rsm2-rcm11-esm310-rsr2-rcr11-esr29,exr/ReadingArea_rsl2-rcl69-esl100-rsm2-rcm11-esm310-rsr2-rcr11-esr29.exr,ReadingArea_rsl2-rcl69-esl100-rsm2-rcm11-esm310-rsr2-rcr11-esr29.npz,,,,,0,141,141,149,,right,red,1.42,743.267550945282,743.6929709911346,2,,2,8,lightness,readingArea,realistic,75,2023-03-27_15h15.16.774,tripletExp_regina_11082022,2022.2.4,119.88109937348517,
8,3,12,2,0.25,1.0,2,0.444444444444444,0.298245614035088,2,0.027777777777778,3.10526315789474,ReadingArea_rsl2-rcl25-esl100-rsm2-rcm44-esm29-rsr2-rcr2-esr310,exr/ReadingArea_rsl2-rcl25-esl100-rsm2-rcm44-esm29-rsr2-rcr2-esr310.exr,ReadingArea_rsl2-rcl25-esl100-rsm2-rcm44-esm29-rsr2-rcr2-esr310.npz,,,,,0,142,142,22,,left,green,3.88,748.9236071109772,749.341579914093,2,,2,8,lightness,readingArea,realistic,75,2023-03-27_15h15.16.774,tripletExp_regina_11082022,2022.2.4,119.88109937348517,
6,0,10,2,0.027777777777778,1.0,2,0.027777777777778,0.298245614035088,2,0.694444444444444,1.0,ReadingArea_rsl2-rcl2-esl100-rsm2-rcm2-esm29-rsr2-rcr69-esr100,exr/ReadingArea_rsl2-rcl2-esl100-rsm2-rcm2-esm29-rsr2-rcr69-esr100.exr,ReadingArea_rsl2-rcl2-esl100-rsm2-rcm2-esm29-rsr2-rcr69-esr100.npz,,,,,0,143,143,532,,left,green,1.2,751.0646870136261,751.4929571151733,2,,2,8,lightness,readingArea,realistic,75,2023-03-27_15h15.16.774,tripletExp_regina_11082022,2022.2.4,119.88109937348517,
5,3,6,2,1.0,0.298245614035088,2,0.444444444444444,0.298245614035088,2,0.027777777777778,1.0,ReadingArea_rsl2-rcl100-esl29-rsm2-rcm44-esm29-rsr2-rcr2-esr100,exr/ReadingArea_rsl2-rcl100-esl29-rsm2-rcm44-esm29-rsr2-rcr2-esr100.exr,ReadingArea_rsl2-rcl100-esl29-rsm2-rcm44-esm29-rsr2-rcr2-esr100.npz,,,,,0,144,144,316,,left,green,2.43,754.9619429111481,755.3842399120331,2,,2,8,lightness,readingArea,realistic,75,2023-03-27_15h15.16.774,tripletExp_regina_11082022,2022.2.4,119.88109937348517,
9,4,6,2,0.444444444444444,1.0,2,0.694444444444444,0.298245614035088,2,0.027777777777778,1.0,ReadingArea_rsl2-rcl44-esl100-rsm2-rcm69-esm29-rsr2-rcr2-esr100,exr/ReadingArea_rsl2-rcl44-esl100-rsm2-rcm69-esm29-rsr2-rcr2-esr100.exr,ReadingArea_rsl2-rcl44-esl100-rsm2-rcm69-esm29-rsr2-rcr2-esr100.npz,,,,,0,145,145,453,,left,green,2.91,758.8748359680176,759.2940340042114,2,,2,8,lightness,readingArea,realistic,75,2023-03-27_15h15.16.774,tripletExp_regina_11082022,2022.2.4,119.88109937348517,
10,6,3,2,0.694444444444444,1.0,2,0.027777777777778,1.0,2,0.444444444444444,0.298245614035088,ReadingArea_rsl2-rcl69-esl100-rsm2-rcm2-esm100-rsr2-rcr44-esr29,exr/ReadingArea_rsl2-rcl69-esl100-rsm2-rcm2-esm100-rsr2-rcr44-esr29.exr,ReadingArea_rsl2-rcl69-esl100-rsm2-rcm2-esm100-rsr2-rcr44-esr29.npz,,,,,0,146,146,0,,right,red,2.19,762.7554450035095,763.1765820980072,2,,2,8,lightness,readingArea,realistic,75,2023-03-27_15h15.16.774,tripletExp_regina_11082022,2022.2.4,119.88109937348517,
14,2,7,2,0.25,3.10526315789474,2,0.25,0.298245614035088,2,0.111111111111111,1.0,ReadingArea_rsl2-rcl25-esl310-rsm2-rcm25-esm29-rsr2-rcr11-esr100,exr/ReadingArea_rsl2-rcl25-esl310-rsm2-rcm25-esm29-rsr2-rcr11-esr100.exr,ReadingArea_rsl2-rcl25-esl310-rsm2-rcm25-esm29-rsr2-rcr11-esr100.npz,,,,,0,147,147,569,,right,red,4.04,768.4032990932465,768.8280079364777,2,,2,8,lightness,readingArea,realistic,75,2023-03-27_15h15.16.774,tripletExp_regina_11082022,2022.2.4,119.88109937348517,
2,5,0,2,0.25,0.298245614035088,2,1.0,0.298245614035088,2,0.027777777777778,0.298245614035088,ReadingArea_rsl2-rcl25-esl29-rsm2-rcm100-esm29-rsr2-rcr2-esr29,exr/ReadingArea_rsl2-rcl25-esl29-rsm2-rcm100-esm29-rsr2-rcr2-esr29.exr,ReadingArea_rsl2-rcl25-esl29-rsm2-rcm100-esm29-rsr2-rcr2-esr29.npz,,,,,0,148,148,414,,left,green,3.97,774.0883331298828,774.5095911026001,2,,2,8,lightness,readingArea,realistic,75,2023-03-27_15h15.16.774,tripletExp_regina_11082022,2022.2.4,119.88109937348517,
13,10,12,2,0.111111111111111,3.10526315789474,2,0.694444444444444,1.0,2,0.027777777777778,3.10526315789474,ReadingArea_rsl2-rcl11-esl310-rsm2-rcm69-esm100-rsr2-rcr2-esr310,exr/ReadingArea_rsl2-rcl11-esl310-rsm2-rcm69-esm100-rsr2-rcr2-esr310.exr,ReadingArea_rsl2-rcl11-esl310-rsm2-rcm69-esm100-rsr2-rcr2-esr310.npz,,,,,0,149,149,384,,left,green,2.55,777.9607849121094,778.1606020927429,2,,2,8,lightness,readingArea,realistic,75,2023-03-27_15h15.16.774,tripletExp_regina_11082022,2022.2.4,119.88109937348517,
10,0,14,2,0.694444444444444,1.0,2,0.027777777777778,0.298245614035088,2,0.25,3.10526315789474,ReadingArea_rsl2-rcl69-esl100-rsm2-rcm2-esm29-rsr2-rcr25-esr310,exr/ReadingArea_rsl2-rcl69-esl100-rsm2-rcm2-esm29-rsr2-rcr25-esr310.exr,ReadingArea_rsl2-rcl69-esl100-rsm2-rcm2-esm29-rsr2-rcr25-esr310.npz,,,,,0,150,150,95,,left,green,4.2,804.1254050731659,804.5551331043243,3,,2,8,lightness,readingArea,realistic,75,2023-03-27_15h15.16.774,tripletExp_regina_11082022,2022.2.4,119.88109937348517,
1,12,11,2,0.111111111111111,0.298245614035088,2,0.027777777777778,3.10526315789474,2,1.0,1.0,ReadingArea_rsl2-rcl11-esl29-rsm2-rcm2-esm310-rsr2-rcr100-esr100,exr/ReadingArea_rsl2-rcl11-esl29-rsm2-rcm2-esm310-rsr2-rcr100-esr100.exr,ReadingArea_rsl2-rcl11-esl29-rsm2-rcm2-esm310-rsr2-rcr100-esr100.npz,,,,,0,151,151,178,,left,green,2.6,808.0475931167603,808.5347781181335,3,,2,8,lightness,readingArea,realistic,75,2023-03-27_15h15.16.774,tripletExp_regina_11082022,2022.2.4,119.88109937348517,
4,7,5,2,0.694444444444444,0.298245614035088,2,0.111111111111111,1.0,2,1.0,0.298245614035088,ReadingArea_rsl2-rcl69-esl29-rsm2-rcm11-esm100-rsr2-rcr100-esr29,exr/ReadingArea_rsl2-rcl69-esl29-rsm2-rcm11-esm100-rsr2-rcr100-esr29.exr,ReadingArea_rsl2-rcl69-esl29-rsm2-rcm11-esm100-rsr2-rcr100-esr29.npz,,,,,0,152,152,195,,left,green,3.97,813.7745270729065,814.1944770812988,3,,2,8,lightness,readingArea,realistic,75,2023-03-27_15h15.16.774,tripletExp_regina_11082022,2022.2.4,119.88109937348517,
12,3,5,2,0.027777777777778,3.10526315789474,2,0.444444444444444,0.298245614035088,2,1.0,0.298245614035088,ReadingArea_rsl2-rcl2-esl310-rsm2-rcm44-esm29-rsr2-rcr100-esr29,exr/ReadingArea_rsl2-rcl2-esl310-rsm2-rcm44-esm29-rsr2-rcr100-esr29.exr,ReadingArea_rsl2-rcl2-esl310-rsm2-rcm44-esm29-rsr2-rcr100-esr29.npz,,,,,0,153,153,188,,right,red,3.77,819.4394860267639,819.8639709949493,3,,2,8,lightness,readingArea,realistic,75,2023-03-27_15h15.16.774,tripletExp_regina_11082022,2022.2.4,119.88109937348517,
5,13,7,2,1.0,0.298245614035088,2,0.111111111111111,3.10526315789474,2,0.111111111111111,1.0,ReadingArea_rsl2-rcl100-esl29-rsm2-rcm11-esm310-rsr2-rcr11-esr100,exr/ReadingArea_rsl2-rcl100-esl29-rsm2-rcm11-esm310-rsr2-rcr11-esr100.exr,ReadingArea_rsl2-rcl100-esl29-rsm2-rcm11-esm310-rsr2-rcr11-esr100.npz,,,,,0,154,154,189,,right,red,3.77,825.1126730442047,825.5374801158905,3,,2,8,lightness,readingArea,realistic,75,2023-03-27_15h15.16.774,tripletExp_regina_11082022,2022.2.4,119.88109937348517,
12,5,14,2,0.027777777777778,3.10526315789474,2,1.0,0.298245614035088,2,0.25,3.10526315789474,ReadingArea_rsl2-rcl2-esl310-rsm2-rcm100-esm29-rsr2-rcr25-esr310,exr/ReadingArea_rsl2-rcl2-esl310-rsm2-rcm100-esm29-rsr2-rcr25-esr310.exr,ReadingArea_rsl2-rcl2-esl310-rsm2-rcm100-esm29-rsr2-rcr25-esr310.npz,,,,,0,155,155,193,,right,red,2.97,829.0015370845795,829.4240620136261,3,,2,8,lightness,readingArea,realistic,75,2023-03-27_15h15.16.774,tripletExp_regina_11082022,2022.2.4,119.88109937348517,
10,4,13,2,0.694444444444444,1.0,2,0.694444444444444,0.298245614035088,2,0.111111111111111,3.10526315789474,ReadingArea_rsl2-rcl69-esl100-rsm2-rcm69-esm29-rsr2-rcr11-esr310,exr/ReadingArea_rsl2-rcl69-esl100-rsm2-rcm69-esm29-rsr2-rcr11-esr310.exr,ReadingArea_rsl2-rcl69-esl100-rsm2-rcm69-esm29-rsr2-rcr11-esr310.npz,,,,,0,156,156,24,,right,red,2.63,832.9145510196686,833.3948459625244,3,,2,8,lightness,readingArea,realistic,75,2023-03-27_15h15.16.774,tripletExp_regina_11082022,2022.2.4,119.88109937348517,
2,8,4,2,0.25,0.298245614035088,2,0.25,1.0,2,0.694444444444444,0.298245614035088,ReadingArea_rsl2-rcl25-esl29-rsm2-rcm25-esm100-rsr2-rcr69-esr29,exr/ReadingArea_rsl2-rcl25-esl29-rsm2-rcm25-esm100-rsr2-rcr69-esr29.exr,ReadingArea_rsl2-rcl25-esl29-rsm2-rcm25-esm100-rsr2-rcr69-esr29.npz,,,,,0,157,157,507,,left,green,2.3,836.8591380119324,837.2806079387665,3,,2,8,lightness,readingArea,realistic,75,2023-03-27_15h15.16.774,tripletExp_regina_11082022,2022.2.4,119.88109937348517,
9,13,6,2,0.444444444444444,1.0,2,0.111111111111111,3.10526315789474,2,0.027777777777778,1.0,ReadingArea_rsl2-rcl44-esl100-rsm2-rcm11-esm310-rsr2-rcr2-esr100,exr/ReadingArea_rsl2-rcl44-esl100-rsm2-rcm11-esm310-rsr2-rcr2-esr100.exr,ReadingArea_rsl2-rcl44-esl100-rsm2-rcm11-esm310-rsr2-rcr2-esr100.npz,,,,,0,158,158,13,,left,green,2.25,840.7564558982849,841.1968400478363,3,,2,8,lightness,readingArea,realistic,75,2023-03-27_15h15.16.774,tripletExp_regina_11082022,2022.2.4,119.88109937348517,
7,5,1,2,0.111111111111111,1.0,2,1.0,0.298245614035088,2,0.111111111111111,0.298245614035088,ReadingArea_rsl2-rcl11-esl100-rsm2-rcm100-esm29-rsr2-rcr11-esr29,exr/ReadingArea_rsl2-rcl11-esl100-rsm2-rcm100-esm29-rsr2-rcr11-esr29.exr,ReadingArea_rsl2-rcl11-esl100-rsm2-rcm100-esm29-rsr2-rcr11-esr29.npz,,,,,0,159,159,513,,left,green,2.99,844.6691529750824,845.0890960693359,3,,2,8,lightness,readingArea,realistic,75,2023-03-27_15h15.16.774,tripletExp_regina_11082022,2022.2.4,119.88109937348517,
4,2,13,2,0.694444444444444,0.298245614035088,2,0.25,0.298245614035088,2,0.111111111111111,3.10526315789474,ReadingArea_rsl2-rcl69-esl29-rsm2-rcm25-esm29-rsr2-rcr11-esr310,exr/ReadingArea_rsl2-rcl69-esl29-rsm2-rcm25-esm29-rsr2-rcr11-esr310.exr,ReadingArea_rsl2-rcl69-esl29-rsm2-rcm25-esm29-rsr2-rcr11-esr310.npz,,,,,0,160,160,304,,right,red,3.7,850.3400681018829,,3,,2,8,lightness,readingArea,realistic,75,2023-03-27_15h15.16.774,tripletExp_regina_11082022,2022.2.4,119.88109937348517,
11,8,10,2,1.0,1.0,2,0.25,1.0,2,0.694444444444444,1.0,ReadingArea_rsl2-rcl100-esl100-rsm2-rcm25-esm100-rsr2-rcr69-esr100,exr/ReadingArea_rsl2-rcl100-esl100-rsm2-rcm25-esm100-rsr2-rcr69-esr100.exr,ReadingArea_rsl2-rcl100-esl100-rsm2-rcm25-esm100-rsr2-rcr69-esr100.npz,,,,,0,161,161,67,,right,red,2.57,854.2538449764252,854.6746289730072,3,,2,8,lightness,readingArea,realistic,75,2023-03-27_15h15.16.774,tripletExp_regina_11082022,2022.2.4,119.88109937348517,
1,11,14,2,0.111111111111111,0.298245614035088,2,1.0,1.0,2,0.25,3.10526315789474,ReadingArea_rsl2-rcl11-esl29-rsm2-rcm100-esm100-rsr2-rcr25-esr310,exr/ReadingArea_rsl2-rcl11-esl29-rsm2-rcm100-esm100-rsr2-rcr25-esr310.exr,ReadingArea_rsl2-rcl11-esl29-rsm2-rcm100-esm100-rsr2-rcr25-esr310.npz,,,,,0,162,162,399,,right,red,2.18,858.1290240287781,858.551882982254,3,,2,8,lightness,readingArea,realistic,75,2023-03-27_15h15.16.774,tripletExp_regina_11082022,2022.2.4,119.88109937348517,
6,12,0,2,0.027777777777778,1.0,2,0.027777777777778,3.10526315789474,2,0.027777777777778,0.298245614035088,ReadingArea_rsl2-rcl2-esl100-rsm2-rcm2-esm310-rsr2-rcr2-esr29,exr/ReadingArea_rsl2-rcl2-esl100-rsm2-rcm2-esm310-rsr2-rcr2-esr29.exr,ReadingArea_rsl2-rcl2-esl100-rsm2-rcm2-esm310-rsr2-rcr2-esr29.npz,,,,,0,163,163,23,,left,green,2.42,862.022479057312,862.4478421211243,3,,2,8,lightness,readingArea,realistic,75,2023-03-27_15h15.16.774,tripletExp_regina_11082022,2022.2.4,119.88109937348517,
14,11,0,2,0.25,3.10526315789474,2,1.0,1.0,2,0.027777777777778,0.298245614035088,ReadingArea_rsl2-rcl25-esl310-rsm2-rcm100-esm100-rsr2-rcr2-esr29,exr/ReadingArea_rsl2-rcl25-esl310-rsm2-rcm100-esm100-rsr2-rcr2-esr29.exr,ReadingArea_rsl2-rcl25-esl310-rsm2-rcm100-esm100-rsr2-rcr2-esr29.npz,,,,,0,164,164,227,,left,green,2.05,865.9206619262695,866.3460891246796,3,,2,8,lightness,readingArea,realistic,75,2023-03-27_15h15.16.774,tripletExp_regina_11082022,2022.2.4,119.88109937348517,
14,13,2,2,0.25,3.10526315789474,2,0.111111111111111,3.10526315789474,2,0.25,0.298245614035088,ReadingArea_rsl2-rcl25-esl310-rsm2-rcm11-esm310-rsr2-rcr25-esr29,exr/ReadingArea_rsl2-rcl25-esl310-rsm2-rcm11-esm310-rsr2-rcr25-esr29.exr,ReadingArea_rsl2-rcl25-esl310-rsm2-rcm11-esm310-rsr2-rcr25-esr29.npz,,,,,0,165,165,377,,right,red,1.26,868.0513601303101,,3,,2,8,lightness,readingArea,realistic,75,2023-03-27_15h15.16.774,tripletExp_regina_11082022,2022.2.4,119.88109937348517,
4,2,9,2,0.694444444444444,0.298245614035088,2,0.25,0.298245614035088,2,0.444444444444444,1.0,ReadingArea_rsl2-rcl69-esl29-rsm2-rcm25-esm29-rsr2-rcr44-esr100,exr/ReadingArea_rsl2-rcl69-esl29-rsm2-rcm25-esm29-rsr2-rcr44-esr100.exr,ReadingArea_rsl2-rcl69-esl29-rsm2-rcm25-esm29-rsr2-rcr44-esr100.npz,,,,,0,166,166,479,,right,red,3.15,871.9614410400391,872.3875360488892,3,,2,8,lightness,readingArea,realistic,75,2023-03-27_15h15.16.774,tripletExp_regina_11082022,2022.2.4,119.88109937348517,
4,12,2,2,0.694444444444444,0.298245614035088,2,0.027777777777778,3.10526315789474,2,0.25,0.298245614035088,ReadingArea_rsl2-rcl69-esl29-rsm2-rcm2-esm310-rsr2-rcr25-esr29,exr/ReadingArea_rsl2-rcl69-esl29-rsm2-rcm2-esm310-rsr2-rcr25-esr29.exr,ReadingArea_rsl2-rcl69-esl29-rsm2-rcm2-esm310-rsr2-rcr25-esr29.npz,,,,,0,167,167,543,,right,red,2.7,875.8616540431976,876.3193159103394,3,,2,8,lightness,readingArea,realistic,75,2023-03-27_15h15.16.774,tripletExp_regina_11082022,2022.2.4,119.88109937348517,
5,2,0,2,1.0,0.298245614035088,2,0.25,0.298245614035088,2,0.027777777777778,0.298245614035088,ReadingArea_rsl2-rcl100-esl29-rsm2-rcm25-esm29-rsr2-rcr2-esr29,exr/ReadingArea_rsl2-rcl100-esl29-rsm2-rcm25-esm29-rsr2-rcr2-esr29.exr,ReadingArea_rsl2-rcl100-esl29-rsm2-rcm25-esm29-rsr2-rcr2-esr29.npz,,,,,0,168,168,476,,right,red,2.98,879.7818689346313,880.201014995575,3,,2,8,lightness,readingArea,realistic,75,2023-03-27_15h15.16.774,tripletExp_regina_11082022,2022.2.4,119.88109937348517,
10,3,1,2,0.694444444444444,1.0,2,0.444444444444444,0.298245614035088,2,0.111111111111111,0.298245614035088,ReadingArea_rsl2-rcl69-esl100-rsm2-rcm44-esm29-rsr2-rcr11-esr29,exr/ReadingArea_rsl2-rcl69-esl100-rsm2-rcm44-esm29-rsr2-rcr11-esr29.exr,ReadingArea_rsl2-rcl69-esl100-rsm2-rcm44-esm29-rsr2-rcr11-esr29.npz,,,,,0,169,169,420,,right,red,2.35,883.6638369560242,884.087769985199,3,,2,8,lightness,readingArea,realistic,75,2023-03-27_15h15.16.774,tripletExp_regina_11082022,2022.2.4,119.88109937348517,
9,6,1,2,0.444444444444444,1.0,2,0.027777777777778,1.0,2,0.111111111111111,0.298245614035088,ReadingArea_rsl2-rcl44-esl100-rsm2-rcm2-esm100-rsr2-rcr11-esr29,exr/ReadingArea_rsl2-rcl44-esl100-rsm2-rcm2-esm100-rsr2-rcr11-esr29.exr,ReadingArea_rsl2-rcl44-esl100-rsm2-rcm2-esm100-rsr2-rcr11-esr29.npz,,,,,0,170,170,526,,right,red,2.73,887.5712819099426,887.9959599971771,3,,2,8,lightness,readingArea,realistic,75,2023-03-27_15h15.16.774,tripletExp_regina_11082022,2022.2.4,119.88109937348517,
10,0,11,2,0.694444444444444,1.0,2,0.027777777777778,0.298245614035088,2,1.0,1.0,ReadingArea_rsl2-rcl69-esl100-rsm2-rcm2-esm29-rsr2-rcr100-esr100,exr/ReadingArea_rsl2-rcl69-esl100-rsm2-rcm2-esm29-rsr2-rcr100-esr100.exr,ReadingArea_rsl2-rcl69-esl100-rsm2-rcm2-esm29-rsr2-rcr100-esr100.npz,,,,,0,171,171,573,,left,green,2.87,891.4588680267334,891.8787760734558,3,,2,8,lightness,readingArea,realistic,75,2023-03-27_15h15.16.774,tripletExp_regina_11082022,2022.2.4,119.88109937348517,
13,10,7,2,0.111111111111111,3.10526315789474,2,0.694444444444444,1.0,2,0.111111111111111,1.0,ReadingArea_rsl2-rcl11-esl310-rsm2-rcm69-esm100-rsr2-rcr11-esr100,exr/ReadingArea_rsl2-rcl11-esl310-rsm2-rcm69-esm100-rsr2-rcr11-esr100.exr,ReadingArea_rsl2-rcl11-esl310-rsm2-rcm69-esm100-rsr2-rcr11-esr100.npz,,,,,0,172,172,385,,left,green,2.69,895.3324201107025,895.7628169059753,3,,2,8,lightness,readingArea,realistic,75,2023-03-27_15h15.16.774,tripletExp_regina_11082022,2022.2.4,119.88109937348517,
5,0,11,2,1.0,0.298245614035088,2,0.027777777777778,0.298245614035088,2,1.0,1.0,ReadingArea_rsl2-rcl100-esl29-rsm2-rcm2-esm29-rsr2-rcr100-esr100,exr/ReadingArea_rsl2-rcl100-esl29-rsm2-rcm2-esm29-rsr2-rcr100-esr100.exr,ReadingArea_rsl2-rcl100-esl29-rsm2-rcm2-esm29-rsr2-rcr100-esr100.npz,,,,,0,173,173,547,,left,green,2.36,899.2444939613342,899.7118821144104,3,,2,8,lightness,readingArea,realistic,75,2023-03-27_15h15.16.774,tripletExp_regina_11082022,2022.2.4,119.88109937348517,
14,5,10,2,0.25,3.10526315789474,2,1.0,0.298245614035088,2,0.694444444444444,1.0,ReadingArea_rsl2-rcl25-esl310-rsm2-rcm100-esm29-rsr2-rcr69-esr100,exr/ReadingArea_rsl2-rcl25-esl310-rsm2-rcm100-esm29-rsr2-rcr69-esr100.exr,ReadingArea_rsl2-rcl25-esl310-rsm2-rcm100-esm29-rsr2-rcr69-esr100.npz,,,,,0,174,174,170,,left,green,3.05,903.1811859607697,903.60426902771,3,,2,8,lightness,readingArea,realistic,75,2023-03-27_15h15.16.774,tripletExp_regina_11082022,2022.2.4,119.88109937348517,
2,12,13,2,0.25,0.298245614035088,2,0.027777777777778,3.10526315789474,2,0.111111111111111,3.10526315789474,ReadingArea_rsl2-rcl25-esl29-rsm2-rcm2-esm310-rsr2-rcr11-esr310,exr/ReadingArea_rsl2-rcl25-esl29-rsm2-rcm2-esm310-rsr2-rcr11-esr310.exr,ReadingArea_rsl2-rcl25-esl29-rsm2-rcm2-esm310-rsr2-rcr11-esr310.npz,,,,,0,175,175,232,,left,green,4.0,908.8502609729767,909.2841410636902,3,,2,8,lightness,readingArea,realistic,75,2023-03-27_15h15.16.774,tripletExp_regina_11082022,2022.2.4,119.88109937348517,
14,3,6,2,0.25,3.10526315789474,2,0.444444444444444,0.298245614035088,2,0.027777777777778,1.0,ReadingArea_rsl2-rcl25-esl310-rsm2-rcm44-esm29-rsr2-rcr2-esr100,exr/ReadingArea_rsl2-rcl25-esl310-rsm2-rcm44-esm29-rsr2-rcr2-esr100.exr,ReadingArea_rsl2-rcl25-esl310-rsm2-rcm44-esm29-rsr2-rcr2-esr100.npz,,,,,0,176,176,244,,left,green,3.12,912.7467219829559,913.1729919910431,3,,2,8,lightness,readingArea,realistic,75,2023-03-27_15h15.16.774,tripletExp_regina_11082022,2022.2.4,119.88109937348517,
12,10,9,2,0.027777777777778,3.10526315789474,2,0.694444444444444,1.0,2,0.444444444444444,1.0,ReadingArea_rsl2-rcl2-esl310-rsm2-rcm69-esm100-rsr2-rcr44-esr100,exr/ReadingArea_rsl2-rcl2-esl310-rsm2-rcm69-esm100-rsr2-rcr44-esr100.exr,ReadingArea_rsl2-rcl2-esl310-rsm2-rcm69-esm100-rsr2-rcr44-esr100.npz,,,,,0,177,177,126,,right,red,1.49,914.8737881183624,915.2959399223328,3,,2,8,lightness,readingArea,realistic,75,2023-03-27_15h15.16.774,tripletExp_regina_11082022,2022.2.4,119.88109937348517,
10,5,2,2,0.694444444444444,1.0,2,1.0,0.298245614035088,2,0.25,0.298245614035088,ReadingArea_rsl2-rcl69-esl100-rsm2-rcm100-esm29-rsr2-rcr25-esr29,exr/ReadingArea_rsl2-rcl69-esl100-rsm2-rcm100-esm29-rsr2-rcr25-esr29.exr,ReadingArea_rsl2-rcl69-esl100-rsm2-rcm100-esm29-rsr2-rcr25-esr29.npz,,,,,0,178,178,299,,left,green,2.56,918.7744739055634,919.1955349445343,3,,2,8,lightness,readingArea,realistic,75,2023-03-27_15h15.16.774,tripletExp_regina_11082022,2022.2.4,119.88109937348517,
12,8,9,2,0.027777777777778,3.10526315789474,2,0.25,1.0,2,0.444444444444444,1.0,ReadingArea_rsl2-rcl2-esl310-rsm2-rcm25-esm100-rsr2-rcr44-esr100,exr/ReadingArea_rsl2-rcl2-esl310-rsm2-rcm25-esm100-rsr2-rcr44-esr100.exr,ReadingArea_rsl2-rcl2-esl310-rsm2-rcm25-esm100-rsr2-rcr44-esr100.npz,,,,,0,179,179,517,,right,red,3.14,922.6760749816895,,3,,2,8,lightness,readingArea,realistic,75,2023-03-27_15h15.16.774,tripletExp_regina_11082022,2022.2.4,119.88109937348517,
13,10,9,2,0.111111111111111,3.10526315789474,2,0.694444444444444,1.0,2,0.444444444444444,1.0,ReadingArea_rsl2-rcl11-esl310-rsm2-rcm69-esm100-rsr2-rcr44-esr100,exr/ReadingArea_rsl2-rcl11-esl310-rsm2-rcm69-esm100-rsr2-rcr44-esr100.exr,ReadingArea_rsl2-rcl11-esl310-rsm2-rcm69-esm100-rsr2-rcr44-esr100.npz,,,,,0,180,180,330,,right,red,2.95,926.5804119110107,927.0068860054016,3,,2,8,lightness,readingArea,realistic,75,2023-03-27_15h15.16.774,tripletExp_regina_11082022,2022.2.4,119.88109937348517,
3,2,8,2,0.444444444444444,0.298245614035088,2,0.25,0.298245614035088,2,0.25,1.0,ReadingArea_rsl2-rcl44-esl29-rsm2-rcm25-esm29-rsr2-rcr25-esr100,exr/ReadingArea_rsl2-rcl44-esl29-rsm2-rcm25-esm29-rsr2-rcr25-esr100.exr,ReadingArea_rsl2-rcl44-esl29-rsm2-rcm25-esm29-rsr2-rcr25-esr100.npz,,,,,0,181,181,181,,right,red,4.5,932.2474629878998,932.6965889930725,3,,2,8,lightness,readingArea,realistic,75,2023-03-27_15h15.16.774,tripletExp_regina_11082022,2022.2.4,119.88109937348517,
6,0,14,2,0.027777777777778,1.0,2,0.027777777777778,0.298245614035088,2,0.25,3.10526315789474,ReadingArea_rsl2-rcl2-esl100-rsm2-rcm2-esm29-rsr2-rcr25-esr310,exr/ReadingArea_rsl2-rcl2-esl100-rsm2-rcm2-esm29-rsr2-rcr25-esr310.exr,ReadingArea_rsl2-rcl2-esl100-rsm2-rcm2-esm29-rsr2-rcr25-esr310.npz,,,,,0,182,182,169,,left,green,1.63,934.4034171104431,,3,,2,8,lightness,readingArea,realistic,75,2023-03-27_15h15.16.774,tripletExp_regina_11082022,2022.2.4,119.88109937348517,
2,4,13,2,0.25,0.298245614035088,2,0.694444444444444,0.298245614035088,2,0.111111111111111,3.10526315789474,ReadingArea_rsl2-rcl25-esl29-rsm2-rcm69-esm29-rsr2-rcr11-esr310,exr/ReadingArea_rsl2-rcl25-esl29-rsm2-rcm69-esm29-rsr2-rcr11-esr310.exr,ReadingArea_rsl2-rcl25-esl29-rsm2-rcm69-esm29-rsr2-rcr11-esr310.npz,,,,,0,183,183,325,,left,green,4.74,940.136472940445,940.5604209899902,3,,2,8,lightness,readingArea,realistic,75,2023-03-27_15h15.16.774,tripletExp_regina_11082022,2022.2.4,119.88109937348517,
13,0,4,2,0.111111111111111,3.10526315789474,2,0.027777777777778,0.298245614035088,2,0.694444444444444,0.298245614035088,ReadingArea_rsl2-rcl11-esl310-rsm2-rcm2-esm29-rsr2-rcr69-esr29,exr/ReadingArea_rsl2-rcl11-esl310-rsm2-rcm2-esm29-rsr2-rcr69-esr29.exr,ReadingArea_rsl2-rcl11-esl310-rsm2-rcm2-esm29-rsr2-rcr69-esr29.npz,,,,,0,184,184,270,,left,green,2.73,944.0317981243134,944.4602560997009,3,,2,8,lightness,readingArea,realistic,75,2023-03-27_15h15.16.774,tripletExp_regina_11082022,2022.2.4,119.88109937348517,
3,7,9,2,0.444444444444444,0.298245614035088,2,0.111111111111111,1.0,2,0.444444444444444,1.0,ReadingArea_rsl2-rcl44-esl29-rsm2-rcm11-esm100-rsr2-rcr44-esr100,exr/ReadingArea_rsl2-rcl44-esl29-rsm2-rcm11-esm100-rsr2-rcr44-esr100.exr,ReadingArea_rsl2-rcl44-esl29-rsm2-rcm11-esm100-rsr2-rcr44-esr100.npz,,,,,0,185,185,382,,left,green,2.71,947.9193029403687,948.3437280654907,3,,2,8,lightness,readingArea,realistic,75,2023-03-27_15h15.16.774,tripletExp_regina_11082022,2022.2.4,119.88109937348517,
4,7,1,2,0.694444444444444,0.298245614035088,2,0.111111111111111,1.0,2,0.111111111111111,0.298245614035088,ReadingArea_rsl2-rcl69-esl29-rsm2-rcm11-esm100-rsr2-rcr11-esr29,exr/ReadingArea_rsl2-rcl69-esl29-rsm2-rcm11-esm100-rsr2-rcr11-esr29.exr,ReadingArea_rsl2-rcl69-esl29-rsm2-rcm11-esm100-rsr2-rcr11-esr29.npz,,,,,0,186,186,33,,right,red,2.41,951.8289029598236,952.2508249282837,3,,2,8,lightness,readingArea,realistic,75,2023-03-27_15h15.16.774,tripletExp_regina_11082022,2022.2.4,119.88109937348517,
14,6,5,2,0.25,3.10526315789474,2,0.027777777777778,1.0,2,1.0,0.298245614035088,ReadingArea_rsl2-rcl25-esl310-rsm2-rcm2-esm100-rsr2-rcr100-esr29,exr/ReadingArea_rsl2-rcl25-esl310-rsm2-rcm2-esm100-rsr2-rcr100-esr29.exr,ReadingArea_rsl2-rcl25-esl310-rsm2-rcm2-esm100-rsr2-rcr100-esr29.npz,,,,,0,187,187,297,,right,red,3.96,957.4892411231995,957.9128220081329,3,,2,8,lightness,readingArea,realistic,75,2023-03-27_15h15.16.774,tripletExp_regina_11082022,2022.2.4,119.88109937348517,
1,9,8,2,0.111111111111111,0.298245614035088,2,0.444444444444444,1.0,2,0.25,1.0,ReadingArea_rsl2-rcl11-esl29-rsm2-rcm44-esm100-rsr2-rcr25-esr100,exr/ReadingArea_rsl2-rcl11-esl29-rsm2-rcm44-esm100-rsr2-rcr25-esr100.exr,ReadingArea_rsl2-rcl11-esl29-rsm2-rcm44-esm100-rsr2-rcr25-esr100.npz,,,,,0,188,188,268,,right,red,2.43,961.382730960846,,3,,2,8,lightness,readingArea,realistic,75,2023-03-27_15h15.16.774,tripletExp_regina_11082022,2022.2.4,119.88109937348517,
12,13,14,2,0.027777777777778,3.10526315789474,2,0.111111111111111,3.10526315789474,2,0.25,3.10526315789474,ReadingArea_rsl2-rcl2-esl310-rsm2-rcm11-esm310-rsr2-rcr25-esr310,exr/ReadingArea_rsl2-rcl2-esl310-rsm2-rcm11-esm310-rsr2-rcr25-esr310.exr,ReadingArea_rsl2-rcl2-esl310-rsm2-rcm11-esm310-rsr2-rcr25-esr310.npz,,,,,0,189,189,208,,left,green,2.91,965.2882890701294,965.714054107666,3,,2,8,lightness,readingArea,realistic,75,2023-03-27_15h15.16.774,tripletExp_regina_11082022,2022.2.4,119.88109937348517,
1,4,7,2,0.111111111111111,0.298245614035088,2,0.694444444444444,0.298245614035088,2,0.111111111111111,1.0,ReadingArea_rsl2-rcl11-esl29-rsm2-rcm69-esm29-rsr2-rcr11-esr100,exr/ReadingArea_rsl2-rcl11-esl29-rsm2-rcm69-esm29-rsr2-rcr11-esr100.exr,ReadingArea_rsl2-rcl11-esl29-rsm2-rcm69-esm29-rsr2-rcr11-esr100.npz,,,,,0,190,190,522,,right,red,3.9,970.9573130607605,971.3799459934235,3,,2,8,lightness,readingArea,realistic,75,2023-03-27_15h15.16.774,tripletExp_regina_11082022,2022.2.4,119.88109937348517,
10,3,6,2,0.694444444444444,1.0,2,0.444444444444444,0.298245614035088,2,0.027777777777778,1.0,ReadingArea_rsl2-rcl69-esl100-rsm2-rcm44-esm29-rsr2-rcr2-esr100,exr/ReadingArea_rsl2-rcl69-esl100-rsm2-rcm44-esm29-rsr2-rcr2-esr100.exr,ReadingArea_rsl2-rcl69-esl100-rsm2-rcm44-esm29-rsr2-rcr2-esr100.npz,,,,,0,191,191,261,,left,green,2.64,974.8736670017242,975.2964749336243,3,,2,8,lightness,readingArea,realistic,75,2023-03-27_15h15.16.774,tripletExp_regina_11082022,2022.2.4,119.88109937348517,
13,7,11,2,0.111111111111111,3.10526315789474,2,0.111111111111111,1.0,2,1.0,1.0,ReadingArea_rsl2-rcl11-esl310-rsm2-rcm11-esm100-rsr2-rcr100-esr100,exr/ReadingArea_rsl2-rcl11-esl310-rsm2-rcm11-esm100-rsr2-rcr100-esr100.exr,ReadingArea_rsl2-rcl11-esl310-rsm2-rcm11-esm100-rsr2-rcr100-esr100.npz,,,,,0,192,192,121,,left,green,2.61,978.7589609622955,979.1849241256714,3,,2,8,lightness,readingArea,realistic,75,2023-03-27_15h15.16.774,tripletExp_regina_11082022,2022.2.4,119.88109937348517,
1,10,7,2,0.111111111111111,0.298245614035088,2,0.694444444444444,1.0,2,0.111111111111111,1.0,ReadingArea_rsl2-rcl11-esl29-rsm2-rcm69-esm100-rsr2-rcr11-esr100,exr/ReadingArea_rsl2-rcl11-esl29-rsm2-rcm69-esm100-rsr2-rcr11-esr100.exr,ReadingArea_rsl2-rcl11-esl29-rsm2-rcm69-esm100-rsr2-rcr11-esr100.npz,,,,,0,193,193,94,,right,red,2.6,982.6656939983368,983.1316668987274,3,,2,8,lightness,readingArea,realistic,75,2023-03-27_15h15.16.774,tripletExp_regina_11082022,2022.2.4,119.88109937348517,
0,8,3,2,0.027777777777778,0.298245614035088,2,0.25,1.0,2,0.444444444444444,0.298245614035088,ReadingArea_rsl2-rcl2-esl29-rsm2-rcm25-esm100-rsr2-rcr44-esr29,exr/ReadingArea_rsl2-rcl2-esl29-rsm2-rcm25-esm100-rsr2-rcr44-esr29.exr,ReadingArea_rsl2-rcl2-esl29-rsm2-rcm25-esm100-rsr2-rcr44-esr29.npz,,,,,0,194,194,301,,right,red,3.17,986.5954070091248,987.0758199691772,3,,2,8,lightness,readingArea,realistic,75,2023-03-27_15h15.16.774,tripletExp_regina_11082022,2022.2.4,119.88109937348517,
6,10,11,2,0.027777777777778,1.0,2,0.694444444444444,1.0,2,1.0,1.0,ReadingArea_rsl2-rcl2-esl100-rsm2-rcm69-esm100-rsr2-rcr100-esr100,exr/ReadingArea_rsl2-rcl2-esl100-rsm2-rcm69-esm100-rsr2-rcr100-esr100.exr,ReadingArea_rsl2-rcl2-esl100-rsm2-rcm69-esm100-rsr2-rcr100-esr100.npz,,,,,0,195,195,116,,right,red,4.09,992.3329501152039,992.7628419399261,3,,2,8,lightness,readingArea,realistic,75,2023-03-27_15h15.16.774,tripletExp_regina_11082022,2022.2.4,119.88109937348517,
12,6,14,2,0.027777777777778,3.10526315789474,2,0.027777777777778,1.0,2,0.25,3.10526315789474,ReadingArea_rsl2-rcl2-esl310-rsm2-rcm2-esm100-rsr2-rcr25-esr310,exr/ReadingArea_rsl2-rcl2-esl310-rsm2-rcm2-esm100-rsr2-rcr25-esr310.exr,ReadingArea_rsl2-rcl2-esl310-rsm2-rcm2-esm100-rsr2-rcr25-esr310.npz,,,,,0,196,196,218,,left,green,3.81,998.0100219249725,998.4385139942169,3,,2,8,lightness,readingArea,realistic,75,2023-03-27_15h15.16.774,tripletExp_regina_11082022,2022.2.4,119.88109937348517,
14,0,5,2,0.25,3.10526315789474,2,0.027777777777778,0.298245614035088,2,1.0,0.298245614035088,ReadingArea_rsl2-rcl25-esl310-rsm2-rcm2-esm29-rsr2-rcr100-esr29,exr/ReadingArea_rsl2-rcl25-esl310-rsm2-rcm2-esm29-rsr2-rcr100-esr29.exr,ReadingArea_rsl2-rcl25-esl310-rsm2-rcm2-esm29-rsr2-rcr100-esr29.npz,,,,,0,197,197,418,,right,red,2.57,1001.8993179798126,1002.3270399570465,3,,2,8,lightness,readingArea,realistic,75,2023-03-27_15h15.16.774,tripletExp_regina_11082022,2022.2.4,119.88109937348517,
4,11,12,2,0.694444444444444,0.298245614035088,2,1.0,1.0,2,0.027777777777778,3.10526315789474,ReadingArea_rsl2-rcl69-esl29-rsm2-rcm100-esm100-rsr2-rcr2-esr310,exr/ReadingArea_rsl2-rcl69-esl29-rsm2-rcm100-esm100-rsr2-rcr2-esr310.exr,ReadingArea_rsl2-rcl69-esl29-rsm2-rcm100-esm100-rsr2-rcr2-esr310.npz,,,,,0,198,198,109,,left,green,2.75,1005.8014080524445,1006.226175069809,3,,2,8,lightness,readingArea,realistic,75,2023-03-27_15h15.16.774,tripletExp_regina_11082022,2022.2.4,119.88109937348517,
1,13,7,2,0.111111111111111,0.298245614035088,2,0.111111111111111,3.10526315789474,2,0.111111111111111,1.0,ReadingArea_rsl2-rcl11-esl29-rsm2-rcm11-esm310-rsr2-rcr11-esr100,exr/ReadingArea_rsl2-rcl11-esl29-rsm2-rcm11-esm310-rsr2-rcr11-esr100.exr,ReadingArea_rsl2-rcl11-esl29-rsm2-rcm11-esm310-rsr2-rcr11-esr100.npz,,,,,0,199,199,158,,left,green,4.45,1011.4487030506134,,3,,2,8,lightness,readingArea,realistic,75,2023-03-27_15h15.16.774,tripletExp_regina_11082022,2022.2.4,119.88109937348517,
7,12,0,2,0.111111111111111,1.0,2,0.027777777777778,3.10526315789474,2,0.027777777777778,0.298245614035088,ReadingArea_rsl2-rcl11-esl100-rsm2-rcm2-esm310-rsr2-rcr2-esr29,exr/ReadingArea_rsl2-rcl11-esl100-rsm2-rcm2-esm310-rsr2-rcr2-esr29.exr,ReadingArea_rsl2-rcl11-esl100-rsm2-rcm2-esm310-rsr2-rcr2-esr29.npz,,,,,0,200,200,425,,right,red,2.85,1015.3419530391693,1015.7746949195862,3,,2,8,lightness,readingArea,realistic,75,2023-03-27_15h15.16.774,tripletExp_regina_11082022,2022.2.4,119.88109937348517,
3,13,1,2,0.444444444444444,0.298245614035088,2,0.111111111111111,3.10526315789474,2,0.111111111111111,0.298245614035088,ReadingArea_rsl2-rcl44-esl29-rsm2-rcm11-esm310-rsr2-rcr11-esr29,exr/ReadingArea_rsl2-rcl44-esl29-rsm2-rcm11-esm310-rsr2-rcr11-esr29.exr,ReadingArea_rsl2-rcl44-esl29-rsm2-rcm11-esm310-rsr2-rcr11-esr29.npz,,,,,0,201,201,421,,right,red,4.28,1021.0408120155334,1021.4686391353607,3,,2,8,lightness,readingArea,realistic,75,2023-03-27_15h15.16.774,tripletExp_regina_11082022,2022.2.4,119.88109937348517,
7,8,14,2,0.111111111111111,1.0,2,0.25,1.0,2,0.25,3.10526315789474,ReadingArea_rsl2-rcl11-esl100-rsm2-rcm25-esm100-rsr2-rcr25-esr310,exr/ReadingArea_rsl2-rcl11-esl100-rsm2-rcm25-esm100-rsr2-rcr25-esr310.exr,ReadingArea_rsl2-rcl11-esl100-rsm2-rcm25-esm100-rsr2-rcr25-esr310.npz,,,,,0,202,202,300,,left,green,2.92,1024.9398081302643,1025.3655440807343,3,,2,8,lightness,readingArea,realistic,75,2023-03-27_15h15.16.774,tripletExp_regina_11082022,2022.2.4,119.88109937348517,
6,4,0,2,0.027777777777778,1.0,2,0.694444444444444,0.298245614035088,2,0.027777777777778,0.298245614035088,ReadingArea_rsl2-rcl2-esl100-rsm2-rcm69-esm29-rsr2-rcr2-esr29,exr/ReadingArea_rsl2-rcl2-esl100-rsm2-rcm69-esm29-rsr2-rcr2-esr29.exr,ReadingArea_rsl2-rcl2-esl100-rsm2-rcm69-esm29-rsr2-rcr2-esr29.npz,,,,,0,203,203,360,,left,green,2.72,1028.8278679847717,1029.257050037384,3,,2,8,lightness,readingArea,realistic,75,2023-03-27_15h15.16.774,tripletExp_regina_11082022,2022.2.4,119.88109937348517,
