index_left,index_middle,index_right,reflectance_surround_left,reflectance_center_left,emission_spot_left,reflectance_surround_middle,reflectance_center_middle,emission_spot_middle,reflectance_surround_right,reflectance_center_right,emission_spot_right,ImageName,ImageExr,ImageNpy,trials_2.thisRepN,trials_2.thisTrialN,trials_2.thisN,trials_2.thisIndex,trials.thisRepN,trials.thisTrialN,trials.thisN,trials.thisIndex,sound_1.started,BB_Trial.resp,BB_Trial.color,BB_Trial.rt,text.started,text.stopped,sound_1.stopped,block,sound_4.started,participant,session,L/B,scene,condition,nTrialsPerBlock,date,expName,psychopyVersion,frameRate,Unnamed: 42
13,0,4,2,0.111111111111111,3.10526315789474,2,0.027777777777778,0.298245614035088,2,0.694444444444444,0.298245614035088,ReadingArea_rsl2-rcl11-esl310-rsm2-rcm2-esm29-rsr2-rcr69-esr29,exr/ReadingArea_rsl2-rcl11-esl310-rsm2-rcm2-esm29-rsr2-rcr69-esr29.exr,ReadingArea_rsl2-rcl11-esl310-rsm2-rcm2-esm29-rsr2-rcr69-esr29.npz,,,,,0,0,0,270,149.9531445980072,right,red,4.53,159.21287894248962,150.93413496017456,135.9179928302765,1,,8,2,lightness,readingArea,realistic,75,2023-03-28_14h30.23.525,tripletExp_regina_11082022,2022.2.4,120.04819897820455,
9,11,3,2,0.444444444444444,1.0,2,1.0,1.0,2,0.444444444444444,0.298245614035088,ReadingArea_rsl2-rcl44-esl100-rsm2-rcm100-esm100-rsr2-rcr44-esr29,exr/ReadingArea_rsl2-rcl44-esl100-rsm2-rcm100-esm100-rsr2-rcr44-esr29.exr,ReadingArea_rsl2-rcl44-esl100-rsm2-rcm100-esm100-rsr2-rcr44-esr29.npz,,,,,0,1,1,348,,left,green,2.34,163.1140580177307,,,1,,8,2,lightness,readingArea,realistic,75,2023-03-28_14h30.23.525,tripletExp_regina_11082022,2022.2.4,120.04819897820455,
0,14,6,2,0.027777777777778,0.298245614035088,2,0.25,3.10526315789474,2,0.027777777777778,1.0,ReadingArea_rsl2-rcl2-esl29-rsm2-rcm25-esm310-rsr2-rcr2-esr100,exr/ReadingArea_rsl2-rcl2-esl29-rsm2-rcm25-esm310-rsr2-rcr2-esr100.exr,ReadingArea_rsl2-rcl2-esl29-rsm2-rcm25-esm310-rsr2-rcr2-esr100.npz,,,,,0,2,2,499,,right,red,4.27,168.80984497070312,169.18190598487854,,1,,8,2,lightness,readingArea,realistic,75,2023-03-28_14h30.23.525,tripletExp_regina_11082022,2022.2.4,120.04819897820455,
13,0,9,2,0.111111111111111,3.10526315789474,2,0.027777777777778,0.298245614035088,2,0.444444444444444,1.0,ReadingArea_rsl2-rcl11-esl310-rsm2-rcm2-esm29-rsr2-rcr44-esr100,exr/ReadingArea_rsl2-rcl11-esl310-rsm2-rcm2-esm29-rsr2-rcr44-esr100.exr,ReadingArea_rsl2-rcl11-esl310-rsm2-rcm2-esm29-rsr2-rcr44-esr100.npz,,,,,0,3,3,373,,left,green,2.7,172.65430283546448,173.02886700630188,,1,,8,2,lightness,readingArea,realistic,75,2023-03-28_14h30.23.525,tripletExp_regina_11082022,2022.2.4,120.04819897820455,
14,8,5,2,0.25,3.10526315789474,2,0.25,1.0,2,1.0,0.298245614035088,ReadingArea_rsl2-rcl25-esl310-rsm2-rcm25-esm100-rsr2-rcr100-esr29,exr/ReadingArea_rsl2-rcl25-esl310-rsm2-rcm25-esm100-rsr2-rcr100-esr29.exr,ReadingArea_rsl2-rcl25-esl310-rsm2-rcm25-esm100-rsr2-rcr100-esr29.npz,,,,,0,4,4,28,,right,red,1.97,176.49487900733948,176.88463497161865,,1,,8,2,lightness,readingArea,realistic,75,2023-03-28_14h30.23.525,tripletExp_regina_11082022,2022.2.4,120.04819897820455,
2,3,9,2,0.25,0.298245614035088,2,0.444444444444444,0.298245614035088,2,0.444444444444444,1.0,ReadingArea_rsl2-rcl25-esl29-rsm2-rcm44-esm29-rsr2-rcr44-esr100,exr/ReadingArea_rsl2-rcl25-esl29-rsm2-rcm44-esm29-rsr2-rcr44-esr100.exr,ReadingArea_rsl2-rcl25-esl29-rsm2-rcm44-esm29-rsr2-rcr44-esr100.npz,,,,,0,5,5,190,,left,green,1.68,178.5791358947754,178.97157192230225,,1,,8,2,lightness,readingArea,realistic,75,2023-03-28_14h30.23.525,tripletExp_regina_11082022,2022.2.4,120.04819897820455,
10,11,9,2,0.694444444444444,1.0,2,1.0,1.0,2,0.444444444444444,1.0,ReadingArea_rsl2-rcl69-esl100-rsm2-rcm100-esm100-rsr2-rcr44-esr100,exr/ReadingArea_rsl2-rcl69-esl100-rsm2-rcm100-esm100-rsr2-rcr44-esr100.exr,ReadingArea_rsl2-rcl69-esl100-rsm2-rcm100-esm100-rsr2-rcr44-esr100.npz,,,,,0,6,6,492,,left,green,4.63,184.22714400291443,184.627454996109,,1,,8,2,lightness,readingArea,realistic,75,2023-03-28_14h30.23.525,tripletExp_regina_11082022,2022.2.4,120.04819897820455,
7,10,13,2,0.111111111111111,1.0,2,0.694444444444444,1.0,2,0.111111111111111,3.10526315789474,ReadingArea_rsl2-rcl11-esl100-rsm2-rcm69-esm100-rsr2-rcr11-esr310,exr/ReadingArea_rsl2-rcl11-esl100-rsm2-rcm69-esm100-rsr2-rcr11-esr310.exr,ReadingArea_rsl2-rcl11-esl100-rsm2-rcm69-esm100-rsr2-rcr11-esr310.npz,,,,,0,7,7,446,,right,red,4.01,189.86499905586243,190.2388770580292,,1,,8,2,lightness,readingArea,realistic,75,2023-03-28_14h30.23.525,tripletExp_regina_11082022,2022.2.4,120.04819897820455,
1,10,7,2,0.111111111111111,0.298245614035088,2,0.694444444444444,1.0,2,0.111111111111111,1.0,ReadingArea_rsl2-rcl11-esl29-rsm2-rcm69-esm100-rsr2-rcr11-esr100,exr/ReadingArea_rsl2-rcl11-esl29-rsm2-rcm69-esm100-rsr2-rcr11-esr100.exr,ReadingArea_rsl2-rcl11-esl29-rsm2-rcm69-esm100-rsr2-rcr11-esr100.npz,,,,,0,8,8,94,,right,red,2.4,193.72205996513367,194.10673093795776,,1,,8,2,lightness,readingArea,realistic,75,2023-03-28_14h30.23.525,tripletExp_regina_11082022,2022.2.4,120.04819897820455,
14,7,8,2,0.25,3.10526315789474,2,0.111111111111111,1.0,2,0.25,1.0,ReadingArea_rsl2-rcl25-esl310-rsm2-rcm11-esm100-rsr2-rcr25-esr100,exr/ReadingArea_rsl2-rcl25-esl310-rsm2-rcm11-esm100-rsr2-rcr25-esr100.exr,ReadingArea_rsl2-rcl25-esl310-rsm2-rcm11-esm100-rsr2-rcr25-esr100.npz,,,,,0,9,9,326,,right,red,0.88,195.8214509487152,196.22165489196777,,1,,8,2,lightness,readingArea,realistic,75,2023-03-28_14h30.23.525,tripletExp_regina_11082022,2022.2.4,120.04819897820455,
7,14,11,2,0.111111111111111,1.0,2,0.25,3.10526315789474,2,1.0,1.0,ReadingArea_rsl2-rcl11-esl100-rsm2-rcm25-esm310-rsr2-rcr100-esr100,exr/ReadingArea_rsl2-rcl11-esl100-rsm2-rcm25-esm310-rsr2-rcr100-esr100.exr,ReadingArea_rsl2-rcl11-esl100-rsm2-rcm25-esm310-rsr2-rcr100-esr100.npz,,,,,0,10,10,252,,right,red,0.91,197.90760684013367,198.2806658744812,,1,,8,2,lightness,readingArea,realistic,75,2023-03-28_14h30.23.525,tripletExp_regina_11082022,2022.2.4,120.04819897820455,
6,4,13,2,0.027777777777778,1.0,2,0.694444444444444,0.298245614035088,2,0.111111111111111,3.10526315789474,ReadingArea_rsl2-rcl2-esl100-rsm2-rcm69-esm29-rsr2-rcr11-esr310,exr/ReadingArea_rsl2-rcl2-esl100-rsm2-rcm69-esm29-rsr2-rcr11-esr310.exr,ReadingArea_rsl2-rcl2-esl100-rsm2-rcm69-esm29-rsr2-rcr11-esr310.npz,,,,,0,11,11,202,,right,red,0.62,200.00134706497192,,,1,,8,2,lightness,readingArea,realistic,75,2023-03-28_14h30.23.525,tripletExp_regina_11082022,2022.2.4,120.04819897820455,
10,7,8,2,0.694444444444444,1.0,2,0.111111111111111,1.0,2,0.25,1.0,ReadingArea_rsl2-rcl69-esl100-rsm2-rcm11-esm100-rsr2-rcr25-esr100,exr/ReadingArea_rsl2-rcl69-esl100-rsm2-rcm11-esm100-rsr2-rcr25-esr100.exr,ReadingArea_rsl2-rcl69-esl100-rsm2-rcm11-esm100-rsr2-rcr25-esr100.npz,,,,,0,12,12,57,,right,red,0.64,202.08017897605896,202.4704568386078,,1,,8,2,lightness,readingArea,realistic,75,2023-03-28_14h30.23.525,tripletExp_regina_11082022,2022.2.4,120.04819897820455,
11,5,8,2,1.0,1.0,2,1.0,0.298245614035088,2,0.25,1.0,ReadingArea_rsl2-rcl100-esl100-rsm2-rcm100-esm29-rsr2-rcr25-esr100,exr/ReadingArea_rsl2-rcl100-esl100-rsm2-rcm100-esm29-rsr2-rcr25-esr100.exr,ReadingArea_rsl2-rcl100-esl100-rsm2-rcm100-esm29-rsr2-rcr25-esr100.npz,,,,,0,13,13,86,,right,red,0.66,204.18302488327024,204.56089782714844,,1,,8,2,lightness,readingArea,realistic,75,2023-03-28_14h30.23.525,tripletExp_regina_11082022,2022.2.4,120.04819897820455,
7,8,12,2,0.111111111111111,1.0,2,0.25,1.0,2,0.027777777777778,3.10526315789474,ReadingArea_rsl2-rcl11-esl100-rsm2-rcm25-esm100-rsr2-rcr2-esr310,exr/ReadingArea_rsl2-rcl11-esl100-rsm2-rcm25-esm100-rsr2-rcr2-esr310.exr,ReadingArea_rsl2-rcl11-esl100-rsm2-rcm25-esm100-rsr2-rcr2-esr310.npz,,,,,0,14,14,271,,,red,0.66,209.80926394462583,210.1847238540649,,1,209.4999454498291,8,2,lightness,readingArea,realistic,75,2023-03-28_14h30.23.525,tripletExp_regina_11082022,2022.2.4,120.04819897820455,
7,2,0,2,0.111111111111111,1.0,2,0.25,0.298245614035088,2,0.027777777777778,0.298245614035088,ReadingArea_rsl2-rcl11-esl100-rsm2-rcm25-esm29-rsr2-rcr2-esr29,exr/ReadingArea_rsl2-rcl11-esl100-rsm2-rcm25-esm29-rsr2-rcr2-esr29.exr,ReadingArea_rsl2-rcl11-esl100-rsm2-rcm25-esm29-rsr2-rcr2-esr29.npz,,,,,0,15,15,520,,left,green,0.98,211.90155696868896,212.31329083442688,,1,,8,2,lightness,readingArea,realistic,75,2023-03-28_14h30.23.525,tripletExp_regina_11082022,2022.2.4,120.04819897820455,
8,1,14,2,0.25,1.0,2,0.111111111111111,0.298245614035088,2,0.25,3.10526315789474,ReadingArea_rsl2-rcl25-esl100-rsm2-rcm11-esm29-rsr2-rcr25-esr310,exr/ReadingArea_rsl2-rcl25-esl100-rsm2-rcm11-esm29-rsr2-rcr25-esr310.exr,ReadingArea_rsl2-rcl25-esl100-rsm2-rcm11-esm29-rsr2-rcr25-esr310.npz,,,,,0,16,16,500,,left,green,2.62,215.76065492630005,216.13688683509827,,1,,8,2,lightness,readingArea,realistic,75,2023-03-28_14h30.23.525,tripletExp_regina_11082022,2022.2.4,120.04819897820455,
1,9,11,2,0.111111111111111,0.298245614035088,2,0.444444444444444,1.0,2,1.0,1.0,ReadingArea_rsl2-rcl11-esl29-rsm2-rcm44-esm100-rsr2-rcr100-esr100,exr/ReadingArea_rsl2-rcl11-esl29-rsm2-rcm44-esm100-rsr2-rcr100-esr100.exr,ReadingArea_rsl2-rcl11-esl29-rsm2-rcm44-esm100-rsr2-rcr100-esr100.npz,,,,,0,17,17,215,,right,red,0.78,217.8394899368286,218.28944301605225,,1,,8,2,lightness,readingArea,realistic,75,2023-03-28_14h30.23.525,tripletExp_regina_11082022,2022.2.4,120.04819897820455,
10,14,4,2,0.694444444444444,1.0,2,0.25,3.10526315789474,2,0.694444444444444,0.298245614035088,ReadingArea_rsl2-rcl69-esl100-rsm2-rcm25-esm310-rsr2-rcr69-esr29,exr/ReadingArea_rsl2-rcl69-esl100-rsm2-rcm25-esm310-rsr2-rcr69-esr29.exr,ReadingArea_rsl2-rcl69-esl100-rsm2-rcm25-esm310-rsr2-rcr69-esr29.npz,,,,,0,18,18,267,,left,green,2.3,221.7777228355408,222.1492829322815,,1,,8,2,lightness,readingArea,realistic,75,2023-03-28_14h30.23.525,tripletExp_regina_11082022,2022.2.4,120.04819897820455,
14,12,10,2,0.25,3.10526315789474,2,0.027777777777778,3.10526315789474,2,0.694444444444444,1.0,ReadingArea_rsl2-rcl25-esl310-rsm2-rcm2-esm310-rsr2-rcr69-esr100,exr/ReadingArea_rsl2-rcl25-esl310-rsm2-rcm2-esm310-rsr2-rcr69-esr100.exr,ReadingArea_rsl2-rcl25-esl310-rsm2-rcm2-esm310-rsr2-rcr69-esr100.npz,,,,,0,19,19,331,,right,red,2.78,225.60614204406733,225.99711990356445,,1,,8,2,lightness,readingArea,realistic,75,2023-03-28_14h30.23.525,tripletExp_regina_11082022,2022.2.4,120.04819897820455,
0,5,2,2,0.027777777777778,0.298245614035088,2,1.0,0.298245614035088,2,0.25,0.298245614035088,ReadingArea_rsl2-rcl2-esl29-rsm2-rcm100-esm29-rsr2-rcr25-esr29,exr/ReadingArea_rsl2-rcl2-esl29-rsm2-rcm100-esm29-rsr2-rcr25-esr29.exr,ReadingArea_rsl2-rcl2-esl29-rsm2-rcm100-esm29-rsr2-rcr25-esr29.npz,,,,,0,20,20,25,,right,red,1.03,227.68637204170227,228.06557297706604,,1,,8,2,lightness,readingArea,realistic,75,2023-03-28_14h30.23.525,tripletExp_regina_11082022,2022.2.4,120.04819897820455,
4,7,10,2,0.694444444444444,0.298245614035088,2,0.111111111111111,1.0,2,0.694444444444444,1.0,ReadingArea_rsl2-rcl69-esl29-rsm2-rcm11-esm100-rsr2-rcr69-esr100,exr/ReadingArea_rsl2-rcl69-esl29-rsm2-rcm11-esm100-rsr2-rcr69-esr100.exr,ReadingArea_rsl2-rcl69-esl29-rsm2-rcm11-esm100-rsr2-rcr69-esr100.npz,,,,,0,21,21,8,,left,green,1.05,229.7725968360901,,,1,,8,2,lightness,readingArea,realistic,75,2023-03-28_14h30.23.525,tripletExp_regina_11082022,2022.2.4,120.04819897820455,
0,4,9,2,0.027777777777778,0.298245614035088,2,0.694444444444444,0.298245614035088,2,0.444444444444444,1.0,ReadingArea_rsl2-rcl2-esl29-rsm2-rcm69-esm29-rsr2-rcr44-esr100,exr/ReadingArea_rsl2-rcl2-esl29-rsm2-rcm69-esm29-rsr2-rcr44-esr100.exr,ReadingArea_rsl2-rcl2-esl29-rsm2-rcm69-esm29-rsr2-rcr44-esr100.npz,,,,,0,22,22,21,,right,red,0.88,231.85299491882324,232.29505705833435,,1,,8,2,lightness,readingArea,realistic,75,2023-03-28_14h30.23.525,tripletExp_regina_11082022,2022.2.4,120.04819897820455,
8,10,6,2,0.25,1.0,2,0.694444444444444,1.0,2,0.027777777777778,1.0,ReadingArea_rsl2-rcl25-esl100-rsm2-rcm69-esm100-rsr2-rcr2-esr100,exr/ReadingArea_rsl2-rcl25-esl100-rsm2-rcm69-esm100-rsr2-rcr2-esr100.exr,ReadingArea_rsl2-rcl25-esl100-rsm2-rcm69-esm100-rsr2-rcr2-esr100.npz,,,,,0,23,23,129,,left,green,1.09,233.99740290641785,234.36888194084167,,1,,8,2,lightness,readingArea,realistic,75,2023-03-28_14h30.23.525,tripletExp_regina_11082022,2022.2.4,120.04819897820455,
5,3,10,2,1.0,0.298245614035088,2,0.444444444444444,0.298245614035088,2,0.694444444444444,1.0,ReadingArea_rsl2-rcl100-esl29-rsm2-rcm44-esm29-rsr2-rcr69-esr100,exr/ReadingArea_rsl2-rcl100-esl29-rsm2-rcm44-esm29-rsr2-rcr69-esr100.exr,ReadingArea_rsl2-rcl100-esl29-rsm2-rcm44-esm29-rsr2-rcr69-esr100.npz,,,,,0,24,24,546,,left,green,0.89,236.0877649784088,236.46334505081177,,1,,8,2,lightness,readingArea,realistic,75,2023-03-28_14h30.23.525,tripletExp_regina_11082022,2022.2.4,120.04819897820455,
14,11,0,2,0.25,3.10526315789474,2,1.0,1.0,2,0.027777777777778,0.298245614035088,ReadingArea_rsl2-rcl25-esl310-rsm2-rcm100-esm100-rsr2-rcr2-esr29,exr/ReadingArea_rsl2-rcl25-esl310-rsm2-rcm100-esm100-rsr2-rcr2-esr29.exr,ReadingArea_rsl2-rcl25-esl310-rsm2-rcm100-esm100-rsr2-rcr2-esr29.npz,,,,,0,25,25,227,,left,green,0.91,238.1514070034027,238.55709195137024,,1,,8,2,lightness,readingArea,realistic,75,2023-03-28_14h30.23.525,tripletExp_regina_11082022,2022.2.4,120.04819897820455,
4,2,0,2,0.694444444444444,0.298245614035088,2,0.25,0.298245614035088,2,0.027777777777778,0.298245614035088,ReadingArea_rsl2-rcl69-esl29-rsm2-rcm25-esm29-rsr2-rcr2-esr29,exr/ReadingArea_rsl2-rcl69-esl29-rsm2-rcm25-esm29-rsr2-rcr2-esr29.exr,ReadingArea_rsl2-rcl69-esl29-rsm2-rcm25-esm29-rsr2-rcr2-esr29.npz,,,,,0,26,26,71,,left,green,0.69,240.24772191047668,240.62097096443176,,1,,8,2,lightness,readingArea,realistic,75,2023-03-28_14h30.23.525,tripletExp_regina_11082022,2022.2.4,120.04819897820455,
3,9,0,2,0.444444444444444,0.298245614035088,2,0.444444444444444,1.0,2,0.027777777777778,0.298245614035088,ReadingArea_rsl2-rcl44-esl29-rsm2-rcm44-esm100-rsr2-rcr2-esr29,exr/ReadingArea_rsl2-rcl44-esl29-rsm2-rcm44-esm100-rsr2-rcr2-esr29.exr,ReadingArea_rsl2-rcl44-esl29-rsm2-rcm44-esm100-rsr2-rcr2-esr29.npz,,,,,0,27,27,551,,left,green,0.71,242.31592893600464,,,1,,8,2,lightness,readingArea,realistic,75,2023-03-28_14h30.23.525,tripletExp_regina_11082022,2022.2.4,120.04819897820455,
11,12,4,2,1.0,1.0,2,0.027777777777778,3.10526315789474,2,0.694444444444444,0.298245614035088,ReadingArea_rsl2-rcl100-esl100-rsm2-rcm2-esm310-rsr2-rcr69-esr29,exr/ReadingArea_rsl2-rcl100-esl100-rsm2-rcm2-esm310-rsr2-rcr69-esr29.exr,ReadingArea_rsl2-rcl100-esl100-rsm2-rcm2-esm310-rsr2-rcr69-esr29.npz,,,,,0,28,28,250,,right,red,0.85,244.3911499977112,244.7657458782196,,1,,8,2,lightness,readingArea,realistic,75,2023-03-28_14h30.23.525,tripletExp_regina_11082022,2022.2.4,120.04819897820455,
3,6,4,2,0.444444444444444,0.298245614035088,2,0.027777777777778,1.0,2,0.694444444444444,0.298245614035088,ReadingArea_rsl2-rcl44-esl29-rsm2-rcm2-esm100-rsr2-rcr69-esr29,exr/ReadingArea_rsl2-rcl44-esl29-rsm2-rcm2-esm100-rsr2-rcr69-esr29.exr,ReadingArea_rsl2-rcl44-esl29-rsm2-rcm2-esm100-rsr2-rcr69-esr29.npz,,,,,0,29,29,154,,left,green,2.52,248.25162196159363,248.73756790161133,,1,,8,2,lightness,readingArea,realistic,75,2023-03-28_14h30.23.525,tripletExp_regina_11082022,2022.2.4,120.04819897820455,
14,7,1,2,0.25,3.10526315789474,2,0.111111111111111,1.0,2,0.111111111111111,0.298245614035088,ReadingArea_rsl2-rcl25-esl310-rsm2-rcm11-esm100-rsr2-rcr11-esr29,exr/ReadingArea_rsl2-rcl25-esl310-rsm2-rcm11-esm100-rsr2-rcr11-esr29.exr,ReadingArea_rsl2-rcl25-esl310-rsm2-rcm11-esm100-rsr2-rcr11-esr29.npz,,,,,0,30,30,298,,right,red,1.1,250.42893600463867,250.8220980167389,,1,,8,2,lightness,readingArea,realistic,75,2023-03-28_14h30.23.525,tripletExp_regina_11082022,2022.2.4,120.04819897820455,
1,14,8,2,0.111111111111111,0.298245614035088,2,0.25,3.10526315789474,2,0.25,1.0,ReadingArea_rsl2-rcl11-esl29-rsm2-rcm25-esm310-rsr2-rcr25-esr100,exr/ReadingArea_rsl2-rcl11-esl29-rsm2-rcm25-esm310-rsr2-rcr25-esr100.exr,ReadingArea_rsl2-rcl11-esl29-rsm2-rcm25-esm310-rsr2-rcr25-esr100.npz,,,,,0,31,31,108,,right,red,1.1,252.5233359336853,252.9026780128479,,1,,8,2,lightness,readingArea,realistic,75,2023-03-28_14h30.23.525,tripletExp_regina_11082022,2022.2.4,120.04819897820455,
13,6,1,2,0.111111111111111,3.10526315789474,2,0.027777777777778,1.0,2,0.111111111111111,0.298245614035088,ReadingArea_rsl2-rcl11-esl310-rsm2-rcm2-esm100-rsr2-rcr11-esr29,exr/ReadingArea_rsl2-rcl11-esl310-rsm2-rcm2-esm100-rsr2-rcr11-esr29.exr,ReadingArea_rsl2-rcl11-esl310-rsm2-rcm2-esm100-rsr2-rcr11-esr29.npz,,,,,0,32,32,486,,right,red,1.22,254.62238693237305,255.0245840549469,,1,,8,2,lightness,readingArea,realistic,75,2023-03-28_14h30.23.525,tripletExp_regina_11082022,2022.2.4,120.04819897820455,
6,10,9,2,0.027777777777778,1.0,2,0.694444444444444,1.0,2,0.444444444444444,1.0,ReadingArea_rsl2-rcl2-esl100-rsm2-rcm69-esm100-rsr2-rcr44-esr100,exr/ReadingArea_rsl2-rcl2-esl100-rsm2-rcm69-esm100-rsr2-rcr44-esr100.exr,ReadingArea_rsl2-rcl2-esl100-rsm2-rcm69-esm100-rsr2-rcr44-esr100.npz,,,,,0,33,33,148,,right,red,0.69,256.73013401031494,257.1068558692932,,1,,8,2,lightness,readingArea,realistic,75,2023-03-28_14h30.23.525,tripletExp_regina_11082022,2022.2.4,120.04819897820455,
6,11,1,2,0.027777777777778,1.0,2,1.0,1.0,2,0.111111111111111,0.298245614035088,ReadingArea_rsl2-rcl2-esl100-rsm2-rcm100-esm100-rsr2-rcr11-esr29,exr/ReadingArea_rsl2-rcl2-esl100-rsm2-rcm100-esm100-rsr2-rcr11-esr29.exr,ReadingArea_rsl2-rcl2-esl100-rsm2-rcm100-esm100-rsr2-rcr11-esr29.npz,,,,,0,34,34,436,,left,green,2.69,260.58906602859497,261.01193404197693,,1,,8,2,lightness,readingArea,realistic,75,2023-03-28_14h30.23.525,tripletExp_regina_11082022,2022.2.4,120.04819897820455,
12,6,14,2,0.027777777777778,3.10526315789474,2,0.027777777777778,1.0,2,0.25,3.10526315789474,ReadingArea_rsl2-rcl2-esl310-rsm2-rcm2-esm100-rsr2-rcr25-esr310,exr/ReadingArea_rsl2-rcl2-esl310-rsm2-rcm2-esm100-rsr2-rcr25-esr310.exr,ReadingArea_rsl2-rcl2-esl310-rsm2-rcm2-esm100-rsr2-rcr25-esr310.npz,,,,,0,35,35,218,,left,green,1.19,262.7065999507904,263.0855128765106,,1,,8,2,lightness,readingArea,realistic,75,2023-03-28_14h30.23.525,tripletExp_regina_11082022,2022.2.4,120.04819897820455,
0,5,11,2,0.027777777777778,0.298245614035088,2,1.0,0.298245614035088,2,1.0,1.0,ReadingArea_rsl2-rcl2-esl29-rsm2-rcm100-esm29-rsr2-rcr100-esr100,exr/ReadingArea_rsl2-rcl2-esl29-rsm2-rcm100-esm29-rsr2-rcr100-esr100.exr,ReadingArea_rsl2-rcl2-esl29-rsm2-rcm100-esm29-rsr2-rcr100-esr100.npz,,,,,0,36,36,422,,right,red,0.77,264.8060269355774,265.20892786979675,,1,,8,2,lightness,readingArea,realistic,75,2023-03-28_14h30.23.525,tripletExp_regina_11082022,2022.2.4,120.04819897820455,
4,14,12,2,0.694444444444444,0.298245614035088,2,0.25,3.10526315789474,2,0.027777777777778,3.10526315789474,ReadingArea_rsl2-rcl69-esl29-rsm2-rcm25-esm310-rsr2-rcr2-esr310,exr/ReadingArea_rsl2-rcl69-esl29-rsm2-rcm25-esm310-rsr2-rcr2-esr310.exr,ReadingArea_rsl2-rcl69-esl29-rsm2-rcm25-esm310-rsr2-rcr2-esr310.npz,,,,,0,37,37,392,,left,green,1.23,266.93062806129456,267.2967460155487,,1,,8,2,lightness,readingArea,realistic,75,2023-03-28_14h30.23.525,tripletExp_regina_11082022,2022.2.4,120.04819897820455,
4,8,0,2,0.694444444444444,0.298245614035088,2,0.25,1.0,2,0.027777777777778,0.298245614035088,ReadingArea_rsl2-rcl69-esl29-rsm2-rcm25-esm100-rsr2-rcr2-esr29,exr/ReadingArea_rsl2-rcl69-esl29-rsm2-rcm25-esm100-rsr2-rcr2-esr29.exr,ReadingArea_rsl2-rcl69-esl29-rsm2-rcm25-esm100-rsr2-rcr2-esr29.npz,,,,,0,38,38,137,,left,green,0.9,268.98637986183167,269.3503658771515,,1,,8,2,lightness,readingArea,realistic,75,2023-03-28_14h30.23.525,tripletExp_regina_11082022,2022.2.4,120.04819897820455,
13,4,0,2,0.111111111111111,3.10526315789474,2,0.694444444444444,0.298245614035088,2,0.027777777777778,0.298245614035088,ReadingArea_rsl2-rcl11-esl310-rsm2-rcm69-esm29-rsr2-rcr2-esr29,exr/ReadingArea_rsl2-rcl11-esl310-rsm2-rcm69-esm29-rsr2-rcr2-esr29.exr,ReadingArea_rsl2-rcl11-esl310-rsm2-rcm69-esm29-rsr2-rcr2-esr29.npz,,,,,0,39,39,269,,left,green,0.76,271.07106590271,,,1,,8,2,lightness,readingArea,realistic,75,2023-03-28_14h30.23.525,tripletExp_regina_11082022,2022.2.4,120.04819897820455,
1,0,4,2,0.111111111111111,0.298245614035088,2,0.027777777777778,0.298245614035088,2,0.694444444444444,0.298245614035088,ReadingArea_rsl2-rcl11-esl29-rsm2-rcm2-esm29-rsr2-rcr69-esr29,exr/ReadingArea_rsl2-rcl11-esl29-rsm2-rcm2-esm29-rsr2-rcr69-esr29.exr,ReadingArea_rsl2-rcl11-esl29-rsm2-rcm2-esm29-rsr2-rcr69-esr29.npz,,,,,0,40,40,494,,left,green,1.07,273.1759569644928,273.5684938430786,,1,,8,2,lightness,readingArea,realistic,75,2023-03-28_14h30.23.525,tripletExp_regina_11082022,2022.2.4,120.04819897820455,
12,7,9,2,0.027777777777778,3.10526315789474,2,0.111111111111111,1.0,2,0.444444444444444,1.0,ReadingArea_rsl2-rcl2-esl310-rsm2-rcm11-esm100-rsr2-rcr44-esr100,exr/ReadingArea_rsl2-rcl2-esl310-rsm2-rcm11-esm100-rsr2-rcr44-esr100.exr,ReadingArea_rsl2-rcl2-esl310-rsm2-rcm11-esm100-rsr2-rcr44-esr100.npz,,,,,0,41,41,124,,left,green,0.99,275.2618269920349,275.6512010097504,,1,,8,2,lightness,readingArea,realistic,75,2023-03-28_14h30.23.525,tripletExp_regina_11082022,2022.2.4,120.04819897820455,
8,3,9,2,0.25,1.0,2,0.444444444444444,0.298245614035088,2,0.444444444444444,1.0,ReadingArea_rsl2-rcl25-esl100-rsm2-rcm44-esm29-rsr2-rcr44-esr100,exr/ReadingArea_rsl2-rcl25-esl100-rsm2-rcm44-esm29-rsr2-rcr44-esr100.exr,ReadingArea_rsl2-rcl25-esl100-rsm2-rcm44-esm29-rsr2-rcr44-esr100.npz,,,,,0,42,42,15,,left,green,2.77,279.1384859085083,,,1,,8,2,lightness,readingArea,realistic,75,2023-03-28_14h30.23.525,tripletExp_regina_11082022,2022.2.4,120.04819897820455,
4,3,11,2,0.694444444444444,0.298245614035088,2,0.444444444444444,0.298245614035088,2,1.0,1.0,ReadingArea_rsl2-rcl69-esl29-rsm2-rcm44-esm29-rsr2-rcr100-esr100,exr/ReadingArea_rsl2-rcl69-esl29-rsm2-rcm44-esm29-rsr2-rcr100-esr100.exr,ReadingArea_rsl2-rcl69-esl29-rsm2-rcm44-esm29-rsr2-rcr100-esr100.npz,,,,,0,43,43,439,,left,green,1.02,281.2269399166107,281.6198489665985,,1,,8,2,lightness,readingArea,realistic,75,2023-03-28_14h30.23.525,tripletExp_regina_11082022,2022.2.4,120.04819897820455,
14,2,8,2,0.25,3.10526315789474,2,0.25,0.298245614035088,2,0.25,1.0,ReadingArea_rsl2-rcl25-esl310-rsm2-rcm25-esm29-rsr2-rcr25-esr100,exr/ReadingArea_rsl2-rcl25-esl310-rsm2-rcm25-esm29-rsr2-rcr25-esr100.exr,ReadingArea_rsl2-rcl25-esl310-rsm2-rcm25-esm29-rsr2-rcr25-esr100.npz,,,,,0,44,44,212,,right,red,1.13,283.3285939693451,283.7051169872284,,1,,8,2,lightness,readingArea,realistic,75,2023-03-28_14h30.23.525,tripletExp_regina_11082022,2022.2.4,120.04819897820455,
13,1,4,2,0.111111111111111,3.10526315789474,2,0.111111111111111,0.298245614035088,2,0.694444444444444,0.298245614035088,ReadingArea_rsl2-rcl11-esl310-rsm2-rcm11-esm29-rsr2-rcr69-esr29,exr/ReadingArea_rsl2-rcl11-esl310-rsm2-rcm11-esm29-rsr2-rcr69-esr29.exr,ReadingArea_rsl2-rcl11-esl310-rsm2-rcm11-esm29-rsr2-rcr69-esr29.npz,,,,,0,45,45,396,,right,red,4.22,288.9532239437103,289.3415699005127,,1,,8,2,lightness,readingArea,realistic,75,2023-03-28_14h30.23.525,tripletExp_regina_11082022,2022.2.4,120.04819897820455,
8,12,7,2,0.25,1.0,2,0.027777777777778,3.10526315789474,2,0.111111111111111,1.0,ReadingArea_rsl2-rcl25-esl100-rsm2-rcm2-esm310-rsr2-rcr11-esr100,exr/ReadingArea_rsl2-rcl25-esl100-rsm2-rcm2-esm310-rsr2-rcr11-esr100.exr,ReadingArea_rsl2-rcl25-esl100-rsm2-rcm2-esm310-rsr2-rcr11-esr100.npz,,,,,0,46,46,467,,right,red,1.33,291.0531978607178,291.4503190517425,,1,,8,2,lightness,readingArea,realistic,75,2023-03-28_14h30.23.525,tripletExp_regina_11082022,2022.2.4,120.04819897820455,
11,4,0,2,1.0,1.0,2,0.694444444444444,0.298245614035088,2,0.027777777777778,0.298245614035088,ReadingArea_rsl2-rcl100-esl100-rsm2-rcm69-esm29-rsr2-rcr2-esr29,exr/ReadingArea_rsl2-rcl100-esl100-rsm2-rcm69-esm29-rsr2-rcr2-esr29.exr,ReadingArea_rsl2-rcl100-esl100-rsm2-rcm69-esm29-rsr2-rcr2-esr29.npz,,,,,0,47,47,219,,left,green,2.32,294.9157750606537,295.2811288833618,,1,,8,2,lightness,readingArea,realistic,75,2023-03-28_14h30.23.525,tripletExp_regina_11082022,2022.2.4,120.04819897820455,
1,12,11,2,0.111111111111111,0.298245614035088,2,0.027777777777778,3.10526315789474,2,1.0,1.0,ReadingArea_rsl2-rcl11-esl29-rsm2-rcm2-esm310-rsr2-rcr100-esr100,exr/ReadingArea_rsl2-rcl11-esl29-rsm2-rcm2-esm310-rsr2-rcr100-esr100.exr,ReadingArea_rsl2-rcl11-esl29-rsm2-rcm2-esm310-rsr2-rcr100-esr100.npz,,,,,0,48,48,178,,left,green,0.79,296.97300696372986,297.3709809780121,,1,,8,2,lightness,readingArea,realistic,75,2023-03-28_14h30.23.525,tripletExp_regina_11082022,2022.2.4,120.04819897820455,
12,8,3,2,0.027777777777778,3.10526315789474,2,0.25,1.0,2,0.444444444444444,0.298245614035088,ReadingArea_rsl2-rcl2-esl310-rsm2-rcm25-esm100-rsr2-rcr44-esr29,exr/ReadingArea_rsl2-rcl2-esl310-rsm2-rcm25-esm100-rsr2-rcr44-esr29.exr,ReadingArea_rsl2-rcl2-esl310-rsm2-rcm25-esm100-rsr2-rcr44-esr29.npz,,,,,0,49,49,386,,right,red,3.11,300.8518509864807,301.23647904396057,,1,,8,2,lightness,readingArea,realistic,75,2023-03-28_14h30.23.525,tripletExp_regina_11082022,2022.2.4,120.04819897820455,
14,2,6,2,0.25,3.10526315789474,2,0.25,0.298245614035088,2,0.027777777777778,1.0,ReadingArea_rsl2-rcl25-esl310-rsm2-rcm25-esm29-rsr2-rcr2-esr100,exr/ReadingArea_rsl2-rcl25-esl310-rsm2-rcm25-esm29-rsr2-rcr2-esr100.exr,ReadingArea_rsl2-rcl25-esl310-rsm2-rcm25-esm29-rsr2-rcr2-esr100.npz,,,,,0,50,50,350,,right,red,0.98,302.92453694343567,303.3019618988037,,1,,8,2,lightness,readingArea,realistic,75,2023-03-28_14h30.23.525,tripletExp_regina_11082022,2022.2.4,120.04819897820455,
12,9,14,2,0.027777777777778,3.10526315789474,2,0.444444444444444,1.0,2,0.25,3.10526315789474,ReadingArea_rsl2-rcl2-esl310-rsm2-rcm44-esm100-rsr2-rcr25-esr310,exr/ReadingArea_rsl2-rcl2-esl310-rsm2-rcm44-esm100-rsr2-rcr25-esr310.exr,ReadingArea_rsl2-rcl2-esl310-rsm2-rcm44-esm100-rsr2-rcr25-esr310.npz,,,,,0,51,51,123,,right,red,1.07,305.0084240436554,305.3954908847809,,1,,8,2,lightness,readingArea,realistic,75,2023-03-28_14h30.23.525,tripletExp_regina_11082022,2022.2.4,120.04819897820455,
4,2,9,2,0.694444444444444,0.298245614035088,2,0.25,0.298245614035088,2,0.444444444444444,1.0,ReadingArea_rsl2-rcl69-esl29-rsm2-rcm25-esm29-rsr2-rcr44-esr100,exr/ReadingArea_rsl2-rcl69-esl29-rsm2-rcm25-esm29-rsr2-rcr44-esr100.exr,ReadingArea_rsl2-rcl69-esl29-rsm2-rcm25-esm29-rsr2-rcr44-esr100.npz,,,,,0,52,52,479,,left,green,2.53,308.86885690689087,309.416198015213,,1,,8,2,lightness,readingArea,realistic,75,2023-03-28_14h30.23.525,tripletExp_regina_11082022,2022.2.4,120.04819897820455,
9,3,8,2,0.444444444444444,1.0,2,0.444444444444444,0.298245614035088,2,0.25,1.0,ReadingArea_rsl2-rcl44-esl100-rsm2-rcm44-esm29-rsr2-rcr25-esr100,exr/ReadingArea_rsl2-rcl44-esl100-rsm2-rcm44-esm29-rsr2-rcr25-esr100.exr,ReadingArea_rsl2-rcl44-esl100-rsm2-rcm44-esm29-rsr2-rcr25-esr100.npz,,,,,0,53,53,530,,right,red,1.6,311.1180820465088,311.5018298625946,,1,,8,2,lightness,readingArea,realistic,75,2023-03-28_14h30.23.525,tripletExp_regina_11082022,2022.2.4,120.04819897820455,
10,8,11,2,0.694444444444444,1.0,2,0.25,1.0,2,1.0,1.0,ReadingArea_rsl2-rcl69-esl100-rsm2-rcm25-esm100-rsr2-rcr100-esr100,exr/ReadingArea_rsl2-rcl69-esl100-rsm2-rcm25-esm100-rsr2-rcr100-esr100.exr,ReadingArea_rsl2-rcl69-esl100-rsm2-rcm25-esm100-rsr2-rcr100-esr100.npz,,,,,0,54,54,578,,right,red,2.79,314.9758138656616,315.3609838485718,,1,,8,2,lightness,readingArea,realistic,75,2023-03-28_14h30.23.525,tripletExp_regina_11082022,2022.2.4,120.04819897820455,
10,6,8,2,0.694444444444444,1.0,2,0.027777777777778,1.0,2,0.25,1.0,ReadingArea_rsl2-rcl69-esl100-rsm2-rcm2-esm100-rsr2-rcr25-esr100,exr/ReadingArea_rsl2-rcl69-esl100-rsm2-rcm2-esm100-rsr2-rcr25-esr100.exr,ReadingArea_rsl2-rcl69-esl100-rsm2-rcm2-esm100-rsr2-rcr25-esr100.npz,,,,,0,55,55,145,,right,red,2.14,318.839243888855,319.2265739440918,,1,,8,2,lightness,readingArea,realistic,75,2023-03-28_14h30.23.525,tripletExp_regina_11082022,2022.2.4,120.04819897820455,
12,7,1,2,0.027777777777778,3.10526315789474,2,0.111111111111111,1.0,2,0.111111111111111,0.298245614035088,ReadingArea_rsl2-rcl2-esl310-rsm2-rcm11-esm100-rsr2-rcr11-esr29,exr/ReadingArea_rsl2-rcl2-esl310-rsm2-rcm11-esm100-rsr2-rcr11-esr29.exr,ReadingArea_rsl2-rcl2-esl310-rsm2-rcm11-esm100-rsr2-rcr11-esr29.npz,,,,,0,56,56,264,,right,red,0.94,320.9294550418854,321.3393568992615,,1,,8,2,lightness,readingArea,realistic,75,2023-03-28_14h30.23.525,tripletExp_regina_11082022,2022.2.4,120.04819897820455,
10,5,2,2,0.694444444444444,1.0,2,1.0,0.298245614035088,2,0.25,0.298245614035088,ReadingArea_rsl2-rcl69-esl100-rsm2-rcm100-esm29-rsr2-rcr25-esr29,exr/ReadingArea_rsl2-rcl69-esl100-rsm2-rcm100-esm29-rsr2-rcr25-esr29.exr,ReadingArea_rsl2-rcl69-esl100-rsm2-rcm100-esm29-rsr2-rcr25-esr29.npz,,,,,0,57,57,299,,left,green,1.23,323.0598158836365,323.4331820011139,,1,,8,2,lightness,readingArea,realistic,75,2023-03-28_14h30.23.525,tripletExp_regina_11082022,2022.2.4,120.04819897820455,
14,10,13,2,0.25,3.10526315789474,2,0.694444444444444,1.0,2,0.111111111111111,3.10526315789474,ReadingArea_rsl2-rcl25-esl310-rsm2-rcm69-esm100-rsr2-rcr11-esr310,exr/ReadingArea_rsl2-rcl25-esl310-rsm2-rcm69-esm100-rsr2-rcr11-esr310.exr,ReadingArea_rsl2-rcl25-esl310-rsm2-rcm69-esm100-rsr2-rcr11-esr310.npz,,,,,0,58,58,204,,left,green,1.89,326.9109809398651,327.35085701942444,,1,,8,2,lightness,readingArea,realistic,75,2023-03-28_14h30.23.525,tripletExp_regina_11082022,2022.2.4,120.04819897820455,
13,11,7,2,0.111111111111111,3.10526315789474,2,1.0,1.0,2,0.111111111111111,1.0,ReadingArea_rsl2-rcl11-esl310-rsm2-rcm100-esm100-rsr2-rcr11-esr100,exr/ReadingArea_rsl2-rcl11-esl310-rsm2-rcm100-esm100-rsr2-rcr11-esr100.exr,ReadingArea_rsl2-rcl11-esl310-rsm2-rcm100-esm100-rsr2-rcr11-esr100.npz,,,,,0,59,59,590,,left,green,2.32,330.823734998703,331.2098169326782,,1,,8,2,lightness,readingArea,realistic,75,2023-03-28_14h30.23.525,tripletExp_regina_11082022,2022.2.4,120.04819897820455,
12,8,10,2,0.027777777777778,3.10526315789474,2,0.25,1.0,2,0.694444444444444,1.0,ReadingArea_rsl2-rcl2-esl310-rsm2-rcm25-esm100-rsr2-rcr69-esr100,exr/ReadingArea_rsl2-rcl2-esl310-rsm2-rcm25-esm100-rsr2-rcr69-esr100.exr,ReadingArea_rsl2-rcl2-esl310-rsm2-rcm25-esm100-rsr2-rcr69-esr100.npz,,,,,0,60,60,216,,left,green,3.24,334.6831738948822,335.0644519329071,,1,,8,2,lightness,readingArea,realistic,75,2023-03-28_14h30.23.525,tripletExp_regina_11082022,2022.2.4,120.04819897820455,
9,2,12,2,0.444444444444444,1.0,2,0.25,0.298245614035088,2,0.027777777777778,3.10526315789474,ReadingArea_rsl2-rcl44-esl100-rsm2-rcm25-esm29-rsr2-rcr2-esr310,exr/ReadingArea_rsl2-rcl44-esl100-rsm2-rcm25-esm29-rsr2-rcr2-esr310.exr,ReadingArea_rsl2-rcl44-esl100-rsm2-rcm25-esm29-rsr2-rcr2-esr310.npz,,,,,0,61,61,391,,right,red,2.66,338.5084979534149,338.8960528373718,,1,,8,2,lightness,readingArea,realistic,75,2023-03-28_14h30.23.525,tripletExp_regina_11082022,2022.2.4,120.04819897820455,
2,9,11,2,0.25,0.298245614035088,2,0.444444444444444,1.0,2,1.0,1.0,ReadingArea_rsl2-rcl25-esl29-rsm2-rcm44-esm100-rsr2-rcr100-esr100,exr/ReadingArea_rsl2-rcl25-esl29-rsm2-rcm44-esm100-rsr2-rcr100-esr100.exr,ReadingArea_rsl2-rcl25-esl29-rsm2-rcm44-esm100-rsr2-rcr100-esr100.npz,,,,,0,62,62,164,,left,green,3.62,344.1327688694,344.6180808544159,,1,,8,2,lightness,readingArea,realistic,75,2023-03-28_14h30.23.525,tripletExp_regina_11082022,2022.2.4,120.04819897820455,
10,5,1,2,0.694444444444444,1.0,2,1.0,0.298245614035088,2,0.111111111111111,0.298245614035088,ReadingArea_rsl2-rcl69-esl100-rsm2-rcm100-esm29-rsr2-rcr11-esr29,exr/ReadingArea_rsl2-rcl69-esl100-rsm2-rcm100-esm29-rsr2-rcr11-esr29.exr,ReadingArea_rsl2-rcl69-esl100-rsm2-rcm100-esm29-rsr2-rcr11-esr29.npz,,,,,0,63,63,152,,left,green,3.66,349.87404584884644,350.25910091400146,,1,,8,2,lightness,readingArea,realistic,75,2023-03-28_14h30.23.525,tripletExp_regina_11082022,2022.2.4,120.04819897820455,
5,14,8,2,1.0,0.298245614035088,2,0.25,3.10526315789474,2,0.25,1.0,ReadingArea_rsl2-rcl100-esl29-rsm2-rcm25-esm310-rsr2-rcr25-esr100,exr/ReadingArea_rsl2-rcl100-esl29-rsm2-rcm25-esm310-rsr2-rcr25-esr100.exr,ReadingArea_rsl2-rcl100-esl29-rsm2-rcm25-esm310-rsr2-rcr25-esr100.npz,,,,,0,64,64,14,,right,red,2.24,353.74219393730164,,,1,,8,2,lightness,readingArea,realistic,75,2023-03-28_14h30.23.525,tripletExp_regina_11082022,2022.2.4,120.04819897820455,
10,14,13,2,0.694444444444444,1.0,2,0.25,3.10526315789474,2,0.111111111111111,3.10526315789474,ReadingArea_rsl2-rcl69-esl100-rsm2-rcm25-esm310-rsr2-rcr11-esr310,exr/ReadingArea_rsl2-rcl69-esl100-rsm2-rcm25-esm310-rsr2-rcr11-esr310.exr,ReadingArea_rsl2-rcl69-esl100-rsm2-rcm25-esm310-rsr2-rcr11-esr310.npz,,,,,0,65,65,168,,right,red,2.34,357.6092538833618,,,1,,8,2,lightness,readingArea,realistic,75,2023-03-28_14h30.23.525,tripletExp_regina_11082022,2022.2.4,120.04819897820455,
8,6,5,2,0.25,1.0,2,0.027777777777778,1.0,2,1.0,0.298245614035088,ReadingArea_rsl2-rcl25-esl100-rsm2-rcm2-esm100-rsr2-rcr100-esr29,exr/ReadingArea_rsl2-rcl25-esl100-rsm2-rcm2-esm100-rsr2-rcr100-esr29.exr,ReadingArea_rsl2-rcl25-esl100-rsm2-rcm2-esm100-rsr2-rcr100-esr29.npz,,,,,0,66,66,241,,left,green,4.91,363.25828099250793,363.6356239318848,,1,,8,2,lightness,readingArea,realistic,75,2023-03-28_14h30.23.525,tripletExp_regina_11082022,2022.2.4,120.04819897820455,
7,6,11,2,0.111111111111111,1.0,2,0.027777777777778,1.0,2,1.0,1.0,ReadingArea_rsl2-rcl11-esl100-rsm2-rcm2-esm100-rsr2-rcr100-esr100,exr/ReadingArea_rsl2-rcl11-esl100-rsm2-rcm2-esm100-rsr2-rcr100-esr100.exr,ReadingArea_rsl2-rcl11-esl100-rsm2-rcm2-esm100-rsr2-rcr100-esr100.npz,,,,,0,67,67,84,,left,green,0.85,365.3373990058899,365.721706867218,,1,,8,2,lightness,readingArea,realistic,75,2023-03-28_14h30.23.525,tripletExp_regina_11082022,2022.2.4,120.04819897820455,
7,9,5,2,0.111111111111111,1.0,2,0.444444444444444,1.0,2,1.0,0.298245614035088,ReadingArea_rsl2-rcl11-esl100-rsm2-rcm44-esm100-rsr2-rcr100-esr29,exr/ReadingArea_rsl2-rcl11-esl100-rsm2-rcm44-esm100-rsr2-rcr100-esr29.exr,ReadingArea_rsl2-rcl11-esl100-rsm2-rcm44-esm100-rsr2-rcr100-esr29.npz,,,,,0,68,68,291,,right,red,2.81,369.2200150489807,,,1,,8,2,lightness,readingArea,realistic,75,2023-03-28_14h30.23.525,tripletExp_regina_11082022,2022.2.4,120.04819897820455,
13,10,3,2,0.111111111111111,3.10526315789474,2,0.694444444444444,1.0,2,0.444444444444444,0.298245614035088,ReadingArea_rsl2-rcl11-esl310-rsm2-rcm69-esm100-rsr2-rcr44-esr29,exr/ReadingArea_rsl2-rcl11-esl310-rsm2-rcm69-esm100-rsr2-rcr44-esr29.exr,ReadingArea_rsl2-rcl11-esl310-rsm2-rcm69-esm100-rsr2-rcr44-esr29.npz,,,,,0,69,69,224,,left,green,2.16,373.0673258304596,373.45285987854,,1,,8,2,lightness,readingArea,realistic,75,2023-03-28_14h30.23.525,tripletExp_regina_11082022,2022.2.4,120.04819897820455,
5,9,12,2,1.0,0.298245614035088,2,0.444444444444444,1.0,2,0.027777777777778,3.10526315789474,ReadingArea_rsl2-rcl100-esl29-rsm2-rcm44-esm100-rsr2-rcr2-esr310,exr/ReadingArea_rsl2-rcl100-esl29-rsm2-rcm44-esm100-rsr2-rcr2-esr310.exr,ReadingArea_rsl2-rcl100-esl29-rsm2-rcm44-esm100-rsr2-rcr2-esr310.npz,,,,,0,70,70,539,,left,green,1.04,375.1626648902893,375.6483428478241,,1,,8,2,lightness,readingArea,realistic,75,2023-03-28_14h30.23.525,tripletExp_regina_11082022,2022.2.4,120.04819897820455,
5,3,0,2,1.0,0.298245614035088,2,0.444444444444444,0.298245614035088,2,0.027777777777778,0.298245614035088,ReadingArea_rsl2-rcl100-esl29-rsm2-rcm44-esm29-rsr2-rcr2-esr29,exr/ReadingArea_rsl2-rcl100-esl29-rsm2-rcm44-esm29-rsr2-rcr2-esr29.exr,ReadingArea_rsl2-rcl100-esl29-rsm2-rcm44-esm29-rsr2-rcr2-esr29.npz,,,,,0,71,71,303,,left,green,0.82,377.3687369823456,377.76634192466736,,1,,8,2,lightness,readingArea,realistic,75,2023-03-28_14h30.23.525,tripletExp_regina_11082022,2022.2.4,120.04819897820455,
14,6,13,2,0.25,3.10526315789474,2,0.027777777777778,1.0,2,0.111111111111111,3.10526315789474,ReadingArea_rsl2-rcl25-esl310-rsm2-rcm2-esm100-rsr2-rcr11-esr310,exr/ReadingArea_rsl2-rcl25-esl310-rsm2-rcm2-esm100-rsr2-rcr11-esr310.exr,ReadingArea_rsl2-rcl25-esl310-rsm2-rcm2-esm100-rsr2-rcr11-esr310.npz,,,,,0,72,72,91,,right,red,2.17,381.2317340373993,381.6058208942413,,1,,8,2,lightness,readingArea,realistic,75,2023-03-28_14h30.23.525,tripletExp_regina_11082022,2022.2.4,120.04819897820455,
0,8,9,2,0.027777777777778,0.298245614035088,2,0.25,1.0,2,0.444444444444444,1.0,ReadingArea_rsl2-rcl2-esl29-rsm2-rcm25-esm100-rsr2-rcr44-esr100,exr/ReadingArea_rsl2-rcl2-esl29-rsm2-rcm25-esm100-rsr2-rcr44-esr100.exr,ReadingArea_rsl2-rcl2-esl29-rsm2-rcm25-esm100-rsr2-rcr44-esr100.npz,,,,,0,73,73,541,,right,red,2.04,385.08163690567017,385.4667570590973,,1,,8,2,lightness,readingArea,realistic,75,2023-03-28_14h30.23.525,tripletExp_regina_11082022,2022.2.4,120.04819897820455,
8,10,9,2,0.25,1.0,2,0.694444444444444,1.0,2,0.444444444444444,1.0,ReadingArea_rsl2-rcl25-esl100-rsm2-rcm69-esm100-rsr2-rcr44-esr100,exr/ReadingArea_rsl2-rcl25-esl100-rsm2-rcm69-esm100-rsr2-rcr44-esr100.exr,ReadingArea_rsl2-rcl25-esl100-rsm2-rcm69-esm100-rsr2-rcr44-esr100.npz,,,,,0,74,74,342,,right,red,1.11,387.1881339550018,387.3878149986267,,1,,8,2,lightness,readingArea,realistic,75,2023-03-28_14h30.23.525,tripletExp_regina_11082022,2022.2.4,120.04819897820455,
2,0,3,2,0.25,0.298245614035088,2,0.027777777777778,0.298245614035088,2,0.444444444444444,0.298245614035088,ReadingArea_rsl2-rcl25-esl29-rsm2-rcm2-esm29-rsr2-rcr44-esr29,exr/ReadingArea_rsl2-rcl25-esl29-rsm2-rcm2-esm29-rsr2-rcr44-esr29.exr,ReadingArea_rsl2-rcl25-esl29-rsm2-rcm2-esm29-rsr2-rcr44-esr29.npz,,,,,0,75,75,338,,left,green,3.32,392.20813393592834,392.6106629371643,,2,,8,2,lightness,readingArea,realistic,75,2023-03-28_14h30.23.525,tripletExp_regina_11082022,2022.2.4,120.04819897820455,
4,2,13,2,0.694444444444444,0.298245614035088,2,0.25,0.298245614035088,2,0.111111111111111,3.10526315789474,ReadingArea_rsl2-rcl69-esl29-rsm2-rcm25-esm29-rsr2-rcr11-esr310,exr/ReadingArea_rsl2-rcl69-esl29-rsm2-rcm25-esm29-rsr2-rcr11-esr310.exr,ReadingArea_rsl2-rcl69-esl29-rsm2-rcm25-esm29-rsr2-rcr11-esr310.npz,,,,,0,76,76,304,,left,green,4.54,397.8495199680328,398.2389750480652,,2,,8,2,lightness,readingArea,realistic,75,2023-03-28_14h30.23.525,tripletExp_regina_11082022,2022.2.4,120.04819897820455,
0,11,9,2,0.027777777777778,0.298245614035088,2,1.0,1.0,2,0.444444444444444,1.0,ReadingArea_rsl2-rcl2-esl29-rsm2-rcm100-esm100-rsr2-rcr44-esr100,exr/ReadingArea_rsl2-rcl2-esl29-rsm2-rcm100-esm100-rsr2-rcr44-esr100.exr,ReadingArea_rsl2-rcl2-esl29-rsm2-rcm100-esm100-rsr2-rcr44-esr100.npz,,,,,0,77,77,32,,right,red,1.02,399.9433808326721,400.32738494873047,,2,,8,2,lightness,readingArea,realistic,75,2023-03-28_14h30.23.525,tripletExp_regina_11082022,2022.2.4,120.04819897820455,
13,8,14,2,0.111111111111111,3.10526315789474,2,0.25,1.0,2,0.25,3.10526315789474,ReadingArea_rsl2-rcl11-esl310-rsm2-rcm25-esm100-rsr2-rcr25-esr310,exr/ReadingArea_rsl2-rcl11-esl310-rsm2-rcm25-esm100-rsr2-rcr25-esr310.exr,ReadingArea_rsl2-rcl11-esl310-rsm2-rcm25-esm100-rsr2-rcr25-esr310.npz,,,,,0,78,78,345,,left,green,1.29,402.04333996772766,402.41994190216064,,2,,8,2,lightness,readingArea,realistic,75,2023-03-28_14h30.23.525,tripletExp_regina_11082022,2022.2.4,120.04819897820455,
6,4,0,2,0.027777777777778,1.0,2,0.694444444444444,0.298245614035088,2,0.027777777777778,0.298245614035088,ReadingArea_rsl2-rcl2-esl100-rsm2-rcm69-esm29-rsr2-rcr2-esr29,exr/ReadingArea_rsl2-rcl2-esl100-rsm2-rcm69-esm29-rsr2-rcr2-esr29.exr,ReadingArea_rsl2-rcl2-esl100-rsm2-rcm69-esm29-rsr2-rcr2-esr29.npz,,,,,0,79,79,360,,left,green,2.67,405.898540019989,406.292368888855,,2,,8,2,lightness,readingArea,realistic,75,2023-03-28_14h30.23.525,tripletExp_regina_11082022,2022.2.4,120.04819897820455,
4,6,3,2,0.694444444444444,0.298245614035088,2,0.027777777777778,1.0,2,0.444444444444444,0.298245614035088,ReadingArea_rsl2-rcl69-esl29-rsm2-rcm2-esm100-rsr2-rcr44-esr29,exr/ReadingArea_rsl2-rcl69-esl29-rsm2-rcm2-esm100-rsr2-rcr44-esr29.exr,ReadingArea_rsl2-rcl69-esl29-rsm2-rcm2-esm100-rsr2-rcr44-esr29.npz,,,,,0,80,80,344,,right,red,1.29,407.9988498687744,408.3876349925995,,2,,8,2,lightness,readingArea,realistic,75,2023-03-28_14h30.23.525,tripletExp_regina_11082022,2022.2.4,120.04819897820455,
5,4,1,2,1.0,0.298245614035088,2,0.694444444444444,0.298245614035088,2,0.111111111111111,0.298245614035088,ReadingArea_rsl2-rcl100-esl29-rsm2-rcm69-esm29-rsr2-rcr11-esr29,exr/ReadingArea_rsl2-rcl100-esl29-rsm2-rcm69-esm29-rsr2-rcr11-esr29.exr,ReadingArea_rsl2-rcl100-esl29-rsm2-rcm69-esm29-rsr2-rcr11-esr29.npz,,,,,0,81,81,560,,left,green,0.85,410.0892250537872,410.51168394088745,,2,,8,2,lightness,readingArea,realistic,75,2023-03-28_14h30.23.525,tripletExp_regina_11082022,2022.2.4,120.04819897820455,
1,4,7,2,0.111111111111111,0.298245614035088,2,0.694444444444444,0.298245614035088,2,0.111111111111111,1.0,ReadingArea_rsl2-rcl11-esl29-rsm2-rcm69-esm29-rsr2-rcr11-esr100,exr/ReadingArea_rsl2-rcl11-esl29-rsm2-rcm69-esm29-rsr2-rcr11-esr100.exr,ReadingArea_rsl2-rcl11-esl29-rsm2-rcm69-esm29-rsr2-rcr11-esr100.npz,,,,,0,82,82,522,,right,red,0.69,412.2249460220337,412.59968400001526,,2,,8,2,lightness,readingArea,realistic,75,2023-03-28_14h30.23.525,tripletExp_regina_11082022,2022.2.4,120.04819897820455,
4,12,5,2,0.694444444444444,0.298245614035088,2,0.027777777777778,3.10526315789474,2,1.0,0.298245614035088,ReadingArea_rsl2-rcl69-esl29-rsm2-rcm2-esm310-rsr2-rcr100-esr29,exr/ReadingArea_rsl2-rcl69-esl29-rsm2-rcm2-esm310-rsr2-rcr100-esr29.exr,ReadingArea_rsl2-rcl69-esl29-rsm2-rcm2-esm310-rsr2-rcr100-esr29.npz,,,,,0,83,83,296,,right,red,0.91,414.2983510494232,414.68404483795166,,2,,8,2,lightness,readingArea,realistic,75,2023-03-28_14h30.23.525,tripletExp_regina_11082022,2022.2.4,120.04819897820455,
2,4,13,2,0.25,0.298245614035088,2,0.694444444444444,0.298245614035088,2,0.111111111111111,3.10526315789474,ReadingArea_rsl2-rcl25-esl29-rsm2-rcm69-esm29-rsr2-rcr11-esr310,exr/ReadingArea_rsl2-rcl25-esl29-rsm2-rcm69-esm29-rsr2-rcr11-esr310.exr,ReadingArea_rsl2-rcl25-esl29-rsm2-rcm69-esm29-rsr2-rcr11-esr310.npz,,,,,0,84,84,325,,right,red,0.89,416.3790080547333,416.7601180076599,,2,,8,2,lightness,readingArea,realistic,75,2023-03-28_14h30.23.525,tripletExp_regina_11082022,2022.2.4,120.04819897820455,
0,9,10,2,0.027777777777778,0.298245614035088,2,0.444444444444444,1.0,2,0.694444444444444,1.0,ReadingArea_rsl2-rcl2-esl29-rsm2-rcm44-esm100-rsr2-rcr69-esr100,exr/ReadingArea_rsl2-rcl2-esl29-rsm2-rcm44-esm100-rsr2-rcr69-esr100.exr,ReadingArea_rsl2-rcl2-esl29-rsm2-rcm44-esm100-rsr2-rcr69-esr100.npz,,,,,0,85,85,434,,right,red,0.57,418.48183584213257,418.8625299930573,,2,,8,2,lightness,readingArea,realistic,75,2023-03-28_14h30.23.525,tripletExp_regina_11082022,2022.2.4,120.04819897820455,
3,13,10,2,0.444444444444444,0.298245614035088,2,0.111111111111111,3.10526315789474,2,0.694444444444444,1.0,ReadingArea_rsl2-rcl44-esl29-rsm2-rcm11-esm310-rsr2-rcr69-esr100,exr/ReadingArea_rsl2-rcl44-esl29-rsm2-rcm11-esm310-rsr2-rcr69-esr100.exr,ReadingArea_rsl2-rcl44-esl29-rsm2-rcm11-esm310-rsr2-rcr69-esr100.npz,,,,,0,86,86,416,,left,green,0.85,420.5506219863892,420.9382410049439,,2,,8,2,lightness,readingArea,realistic,75,2023-03-28_14h30.23.525,tripletExp_regina_11082022,2022.2.4,120.04819897820455,
10,8,1,2,0.694444444444444,1.0,2,0.25,1.0,2,0.111111111111111,0.298245614035088,ReadingArea_rsl2-rcl69-esl100-rsm2-rcm25-esm100-rsr2-rcr11-esr29,exr/ReadingArea_rsl2-rcl69-esl100-rsm2-rcm25-esm100-rsr2-rcr11-esr29.exr,ReadingArea_rsl2-rcl69-esl100-rsm2-rcm25-esm100-rsr2-rcr11-esr29.npz,,,,,0,87,87,247,,left,green,0.96,422.65196895599365,423.0445120334625,,2,,8,2,lightness,readingArea,realistic,75,2023-03-28_14h30.23.525,tripletExp_regina_11082022,2022.2.4,120.04819897820455,
7,14,5,2,0.111111111111111,1.0,2,0.25,3.10526315789474,2,1.0,0.298245614035088,ReadingArea_rsl2-rcl11-esl100-rsm2-rcm25-esm310-rsr2-rcr100-esr29,exr/ReadingArea_rsl2-rcl11-esl100-rsm2-rcm25-esm310-rsr2-rcr100-esr29.exr,ReadingArea_rsl2-rcl11-esl100-rsm2-rcm25-esm310-rsr2-rcr100-esr29.npz,,,,,0,88,88,372,,right,red,2.94,426.4934799671173,426.8770580291748,,2,,8,2,lightness,readingArea,realistic,75,2023-03-28_14h30.23.525,tripletExp_regina_11082022,2022.2.4,120.04819897820455,
1,8,12,2,0.111111111111111,0.298245614035088,2,0.25,1.0,2,0.027777777777778,3.10526315789474,ReadingArea_rsl2-rcl11-esl29-rsm2-rcm25-esm100-rsr2-rcr2-esr310,exr/ReadingArea_rsl2-rcl11-esl29-rsm2-rcm25-esm100-rsr2-rcr2-esr310.exr,ReadingArea_rsl2-rcl11-esl29-rsm2-rcm25-esm100-rsr2-rcr2-esr310.npz,,,,,0,89,89,156,,right,red,2.58,430.3412430286408,430.7313878536224,,2,,8,2,lightness,readingArea,realistic,75,2023-03-28_14h30.23.525,tripletExp_regina_11082022,2022.2.4,120.04819897820455,
11,7,14,2,1.0,1.0,2,0.111111111111111,1.0,2,0.25,3.10526315789474,ReadingArea_rsl2-rcl100-esl100-rsm2-rcm11-esm100-rsr2-rcr25-esr310,exr/ReadingArea_rsl2-rcl100-esl100-rsm2-rcm11-esm100-rsr2-rcr25-esr310.exr,ReadingArea_rsl2-rcl100-esl100-rsm2-rcm11-esm100-rsr2-rcr25-esr310.npz,,,,,0,90,90,119,,right,red,1.12,432.4491019248962,432.8502118587494,,2,,8,2,lightness,readingArea,realistic,75,2023-03-28_14h30.23.525,tripletExp_regina_11082022,2022.2.4,120.04819897820455,
3,4,13,2,0.444444444444444,0.298245614035088,2,0.694444444444444,0.298245614035088,2,0.111111111111111,3.10526315789474,ReadingArea_rsl2-rcl44-esl29-rsm2-rcm69-esm29-rsr2-rcr11-esr310,exr/ReadingArea_rsl2-rcl44-esl29-rsm2-rcm69-esm29-rsr2-rcr11-esr310.exr,ReadingArea_rsl2-rcl44-esl29-rsm2-rcm69-esm29-rsr2-rcr11-esr310.npz,,,,,0,91,91,63,,left,green,2.59,436.2972428798676,436.6870639324188,,2,,8,2,lightness,readingArea,realistic,75,2023-03-28_14h30.23.525,tripletExp_regina_11082022,2022.2.4,120.04819897820455,
8,12,3,2,0.25,1.0,2,0.027777777777778,3.10526315789474,2,0.444444444444444,0.298245614035088,ReadingArea_rsl2-rcl25-esl100-rsm2-rcm2-esm310-rsr2-rcr44-esr29,exr/ReadingArea_rsl2-rcl25-esl100-rsm2-rcm2-esm310-rsr2-rcr44-esr29.exr,ReadingArea_rsl2-rcl25-esl100-rsm2-rcm2-esm310-rsr2-rcr44-esr29.npz,,,,,0,92,92,6,,right,red,2.44,440.1546490192413,440.5681409835816,,2,,8,2,lightness,readingArea,realistic,75,2023-03-28_14h30.23.525,tripletExp_regina_11082022,2022.2.4,120.04819897820455,
9,13,6,2,0.444444444444444,1.0,2,0.111111111111111,3.10526315789474,2,0.027777777777778,1.0,ReadingArea_rsl2-rcl44-esl100-rsm2-rcm11-esm310-rsr2-rcr2-esr100,exr/ReadingArea_rsl2-rcl44-esl100-rsm2-rcm11-esm310-rsr2-rcr2-esr100.exr,ReadingArea_rsl2-rcl44-esl100-rsm2-rcm11-esm310-rsr2-rcr2-esr100.npz,,,,,0,93,93,13,,left,green,2.77,444.03878688812256,444.4194049835205,,2,,8,2,lightness,readingArea,realistic,75,2023-03-28_14h30.23.525,tripletExp_regina_11082022,2022.2.4,120.04819897820455,
13,7,6,2,0.111111111111111,3.10526315789474,2,0.111111111111111,1.0,2,0.027777777777778,1.0,ReadingArea_rsl2-rcl11-esl310-rsm2-rcm11-esm100-rsr2-rcr2-esr100,exr/ReadingArea_rsl2-rcl11-esl310-rsm2-rcm11-esm100-rsr2-rcr2-esr100.exr,ReadingArea_rsl2-rcl11-esl310-rsm2-rcm11-esm100-rsr2-rcr2-esr100.npz,,,,,0,94,94,283,,right,red,2.45,447.8904888629913,,,2,,8,2,lightness,readingArea,realistic,75,2023-03-28_14h30.23.525,tripletExp_regina_11082022,2022.2.4,120.04819897820455,
2,3,4,2,0.25,0.298245614035088,2,0.444444444444444,0.298245614035088,2,0.694444444444444,0.298245614035088,ReadingArea_rsl2-rcl25-esl29-rsm2-rcm44-esm29-rsr2-rcr69-esr29,exr/ReadingArea_rsl2-rcl25-esl29-rsm2-rcm44-esm29-rsr2-rcr69-esr29.exr,ReadingArea_rsl2-rcl25-esl29-rsm2-rcm44-esm29-rsr2-rcr69-esr29.npz,,,,,0,95,95,61,,left,green,3.61,453.5163049697876,,,2,,8,2,lightness,readingArea,realistic,75,2023-03-28_14h30.23.525,tripletExp_regina_11082022,2022.2.4,120.04819897820455,
0,5,12,2,0.027777777777778,0.298245614035088,2,1.0,0.298245614035088,2,0.027777777777778,3.10526315789474,ReadingArea_rsl2-rcl2-esl29-rsm2-rcm100-esm29-rsr2-rcr2-esr310,exr/ReadingArea_rsl2-rcl2-esl29-rsm2-rcm100-esm29-rsr2-rcr2-esr310.exr,ReadingArea_rsl2-rcl2-esl29-rsm2-rcm100-esm29-rsr2-rcr2-esr310.npz,,,,,0,96,96,366,,right,red,1.75,455.60988092422485,455.99807596206665,,2,,8,2,lightness,readingArea,realistic,75,2023-03-28_14h30.23.525,tripletExp_regina_11082022,2022.2.4,120.04819897820455,
3,7,0,2,0.444444444444444,0.298245614035088,2,0.111111111111111,1.0,2,0.027777777777778,0.298245614035088,ReadingArea_rsl2-rcl44-esl29-rsm2-rcm11-esm100-rsr2-rcr2-esr29,exr/ReadingArea_rsl2-rcl44-esl29-rsm2-rcm11-esm100-rsr2-rcr2-esr29.exr,ReadingArea_rsl2-rcl44-esl29-rsm2-rcm11-esm100-rsr2-rcr2-esr29.npz,,,,,0,97,97,327,,left,green,1.28,457.7051160335541,458.0934979915619,,2,,8,2,lightness,readingArea,realistic,75,2023-03-28_14h30.23.525,tripletExp_regina_11082022,2022.2.4,120.04819897820455,
12,10,6,2,0.027777777777778,3.10526315789474,2,0.694444444444444,1.0,2,0.027777777777778,1.0,ReadingArea_rsl2-rcl2-esl310-rsm2-rcm69-esm100-rsr2-rcr2-esr100,exr/ReadingArea_rsl2-rcl2-esl310-rsm2-rcm69-esm100-rsr2-rcr2-esr100.exr,ReadingArea_rsl2-rcl2-esl310-rsm2-rcm69-esm100-rsr2-rcr2-esr100.npz,,,,,0,98,98,273,,left,green,0.84,459.7972700595856,460.1977670192719,,2,,8,2,lightness,readingArea,realistic,75,2023-03-28_14h30.23.525,tripletExp_regina_11082022,2022.2.4,120.04819897820455,
1,12,6,2,0.111111111111111,0.298245614035088,2,0.027777777777778,3.10526315789474,2,0.027777777777778,1.0,ReadingArea_rsl2-rcl11-esl29-rsm2-rcm2-esm310-rsr2-rcr2-esr100,exr/ReadingArea_rsl2-rcl11-esl29-rsm2-rcm2-esm310-rsr2-rcr2-esr100.exr,ReadingArea_rsl2-rcl11-esl29-rsm2-rcm2-esm310-rsr2-rcr2-esr100.npz,,,,,0,99,99,277,,right,red,3.05,463.6793348789215,464.0866758823395,,2,,8,2,lightness,readingArea,realistic,75,2023-03-28_14h30.23.525,tripletExp_regina_11082022,2022.2.4,120.04819897820455,
10,13,6,2,0.694444444444444,1.0,2,0.111111111111111,3.10526315789474,2,0.027777777777778,1.0,ReadingArea_rsl2-rcl69-esl100-rsm2-rcm11-esm310-rsr2-rcr2-esr100,exr/ReadingArea_rsl2-rcl69-esl100-rsm2-rcm11-esm310-rsr2-rcr2-esr100.exr,ReadingArea_rsl2-rcl69-esl100-rsm2-rcm11-esm310-rsr2-rcr2-esr100.npz,,,,,0,100,100,351,,left,green,1.24,465.8102600574493,466.2111780643463,,2,,8,2,lightness,readingArea,realistic,75,2023-03-28_14h30.23.525,tripletExp_regina_11082022,2022.2.4,120.04819897820455,
6,2,5,2,0.027777777777778,1.0,2,0.25,0.298245614035088,2,1.0,0.298245614035088,ReadingArea_rsl2-rcl2-esl100-rsm2-rcm25-esm29-rsr2-rcr100-esr29,exr/ReadingArea_rsl2-rcl2-esl100-rsm2-rcm25-esm29-rsr2-rcr100-esr29.exr,ReadingArea_rsl2-rcl2-esl100-rsm2-rcm25-esm29-rsr2-rcr100-esr29.npz,,,,,0,101,101,504,,right,red,0.78,467.93471789360046,468.3209040164948,,2,,8,2,lightness,readingArea,realistic,75,2023-03-28_14h30.23.525,tripletExp_regina_11082022,2022.2.4,120.04819897820455,
3,7,8,2,0.444444444444444,0.298245614035088,2,0.111111111111111,1.0,2,0.25,1.0,ReadingArea_rsl2-rcl44-esl29-rsm2-rcm11-esm100-rsr2-rcr25-esr100,exr/ReadingArea_rsl2-rcl44-esl29-rsm2-rcm11-esm100-rsr2-rcr25-esr100.exr,ReadingArea_rsl2-rcl44-esl29-rsm2-rcm11-esm100-rsr2-rcr25-esr100.npz,,,,,0,102,102,246,,left,green,2.78,471.818244934082,472.1990668773651,,2,,8,2,lightness,readingArea,realistic,75,2023-03-28_14h30.23.525,tripletExp_regina_11082022,2022.2.4,120.04819897820455,
8,9,6,2,0.25,1.0,2,0.444444444444444,1.0,2,0.027777777777778,1.0,ReadingArea_rsl2-rcl25-esl100-rsm2-rcm44-esm100-rsr2-rcr2-esr100,exr/ReadingArea_rsl2-rcl25-esl100-rsm2-rcm44-esm100-rsr2-rcr2-esr100.exr,ReadingArea_rsl2-rcl25-esl100-rsm2-rcm44-esm100-rsr2-rcr2-esr100.npz,,,,,0,103,103,3,,left,green,0.71,473.9018218517304,474.2740788459778,,2,,8,2,lightness,readingArea,realistic,75,2023-03-28_14h30.23.525,tripletExp_regina_11082022,2022.2.4,120.04819897820455,
14,10,9,2,0.25,3.10526315789474,2,0.694444444444444,1.0,2,0.444444444444444,1.0,ReadingArea_rsl2-rcl25-esl310-rsm2-rcm69-esm100-rsr2-rcr44-esr100,exr/ReadingArea_rsl2-rcl25-esl310-rsm2-rcm69-esm100-rsr2-rcr44-esr100.exr,ReadingArea_rsl2-rcl25-esl310-rsm2-rcm69-esm100-rsr2-rcr44-esr100.npz,,,,,0,104,104,402,,left,green,2.05,477.7268719673157,478.1102769374848,,2,,8,2,lightness,readingArea,realistic,75,2023-03-28_14h30.23.525,tripletExp_regina_11082022,2022.2.4,120.04819897820455,
4,11,14,2,0.694444444444444,0.298245614035088,2,1.0,1.0,2,0.25,3.10526315789474,ReadingArea_rsl2-rcl69-esl29-rsm2-rcm100-esm100-rsr2-rcr25-esr310,exr/ReadingArea_rsl2-rcl69-esl29-rsm2-rcm100-esm100-rsr2-rcr25-esr310.exr,ReadingArea_rsl2-rcl69-esl29-rsm2-rcm100-esm100-rsr2-rcr25-esr310.npz,,,,,0,105,105,165,,right,red,0.95,479.8200039863586,,,2,,8,2,lightness,readingArea,realistic,75,2023-03-28_14h30.23.525,tripletExp_regina_11082022,2022.2.4,120.04819897820455,
5,10,2,2,1.0,0.298245614035088,2,0.694444444444444,1.0,2,0.25,0.298245614035088,ReadingArea_rsl2-rcl100-esl29-rsm2-rcm69-esm100-rsr2-rcr25-esr29,exr/ReadingArea_rsl2-rcl100-esl29-rsm2-rcm69-esm100-rsr2-rcr25-esr29.exr,ReadingArea_rsl2-rcl100-esl29-rsm2-rcm69-esm100-rsr2-rcr25-esr29.npz,,,,,0,106,106,489,,left,green,2.13,483.69895696640015,484.1585228443146,,2,,8,2,lightness,readingArea,realistic,75,2023-03-28_14h30.23.525,tripletExp_regina_11082022,2022.2.4,120.04819897820455,
6,11,3,2,0.027777777777778,1.0,2,1.0,1.0,2,0.444444444444444,0.298245614035088,ReadingArea_rsl2-rcl2-esl100-rsm2-rcm100-esm100-rsr2-rcr44-esr29,exr/ReadingArea_rsl2-rcl2-esl100-rsm2-rcm100-esm100-rsr2-rcr44-esr29.exr,ReadingArea_rsl2-rcl2-esl100-rsm2-rcm100-esm100-rsr2-rcr44-esr29.npz,,,,,0,107,107,11,,right,red,2.48,487.6317958831787,488.0340209007263,,2,,8,2,lightness,readingArea,realistic,75,2023-03-28_14h30.23.525,tripletExp_regina_11082022,2022.2.4,120.04819897820455,
4,8,11,2,0.694444444444444,0.298245614035088,2,0.25,1.0,2,1.0,1.0,ReadingArea_rsl2-rcl69-esl29-rsm2-rcm25-esm100-rsr2-rcr100-esr100,exr/ReadingArea_rsl2-rcl69-esl29-rsm2-rcm25-esm100-rsr2-rcr100-esr100.exr,ReadingArea_rsl2-rcl69-esl29-rsm2-rcm25-esm100-rsr2-rcr100-esr100.npz,,,,,0,108,108,403,,left,green,1.18,489.7550859451294,,,2,,8,2,lightness,readingArea,realistic,75,2023-03-28_14h30.23.525,tripletExp_regina_11082022,2022.2.4,120.04819897820455,
5,9,0,2,1.0,0.298245614035088,2,0.444444444444444,1.0,2,0.027777777777778,0.298245614035088,ReadingArea_rsl2-rcl100-esl29-rsm2-rcm44-esm100-rsr2-rcr2-esr29,exr/ReadingArea_rsl2-rcl100-esl29-rsm2-rcm44-esm100-rsr2-rcr2-esr29.exr,ReadingArea_rsl2-rcl100-esl29-rsm2-rcm44-esm100-rsr2-rcr2-esr29.npz,,,,,0,109,109,575,,left,green,0.93,491.8760628700256,492.27376198768616,,2,,8,2,lightness,readingArea,realistic,75,2023-03-28_14h30.23.525,tripletExp_regina_11082022,2022.2.4,120.04819897820455,
10,14,1,2,0.694444444444444,1.0,2,0.25,3.10526315789474,2,0.111111111111111,0.298245614035088,ReadingArea_rsl2-rcl69-esl100-rsm2-rcm25-esm310-rsr2-rcr11-esr29,exr/ReadingArea_rsl2-rcl69-esl100-rsm2-rcm25-esm310-rsr2-rcr11-esr29.exr,ReadingArea_rsl2-rcl69-esl100-rsm2-rcm25-esm310-rsr2-rcr11-esr29.npz,,,,,0,110,110,544,,left,green,1.3,493.9808828830719,,,2,,8,2,lightness,readingArea,realistic,75,2023-03-28_14h30.23.525,tripletExp_regina_11082022,2022.2.4,120.04819897820455,
13,12,5,2,0.111111111111111,3.10526315789474,2,0.027777777777778,3.10526315789474,2,1.0,0.298245614035088,ReadingArea_rsl2-rcl11-esl310-rsm2-rcm2-esm310-rsr2-rcr100-esr29,exr/ReadingArea_rsl2-rcl11-esl310-rsm2-rcm2-esm310-rsr2-rcr100-esr29.exr,ReadingArea_rsl2-rcl11-esl310-rsm2-rcm2-esm310-rsr2-rcr100-esr29.npz,,,,,0,111,111,294,,left,green,2.84,497.8468968868256,498.2368009090424,,2,,8,2,lightness,readingArea,realistic,75,2023-03-28_14h30.23.525,tripletExp_regina_11082022,2022.2.4,120.04819897820455,
2,8,3,2,0.25,0.298245614035088,2,0.25,1.0,2,0.444444444444444,0.298245614035088,ReadingArea_rsl2-rcl25-esl29-rsm2-rcm25-esm100-rsr2-rcr44-esr29,exr/ReadingArea_rsl2-rcl25-esl29-rsm2-rcm25-esm100-rsr2-rcr44-esr29.exr,ReadingArea_rsl2-rcl25-esl29-rsm2-rcm25-esm100-rsr2-rcr44-esr29.npz,,,,,0,112,112,568,,right,red,2.7,501.7290060520172,502.20525884628296,,2,,8,2,lightness,readingArea,realistic,75,2023-03-28_14h30.23.525,tripletExp_regina_11082022,2022.2.4,120.04819897820455,
6,3,1,2,0.027777777777778,1.0,2,0.444444444444444,0.298245614035088,2,0.111111111111111,0.298245614035088,ReadingArea_rsl2-rcl2-esl100-rsm2-rcm44-esm29-rsr2-rcr11-esr29,exr/ReadingArea_rsl2-rcl2-esl100-rsm2-rcm44-esm29-rsr2-rcr11-esr29.exr,ReadingArea_rsl2-rcl2-esl100-rsm2-rcm44-esm29-rsr2-rcr11-esr29.npz,,,,,0,113,113,430,,right,red,2.74,505.7080268859863,,,2,,8,2,lightness,readingArea,realistic,75,2023-03-28_14h30.23.525,tripletExp_regina_11082022,2022.2.4,120.04819897820455,
0,9,11,2,0.027777777777778,0.298245614035088,2,0.444444444444444,1.0,2,1.0,1.0,ReadingArea_rsl2-rcl2-esl29-rsm2-rcm44-esm100-rsr2-rcr100-esr100,exr/ReadingArea_rsl2-rcl2-esl29-rsm2-rcm44-esm100-rsr2-rcr100-esr100.exr,ReadingArea_rsl2-rcl2-esl29-rsm2-rcm44-esm100-rsr2-rcr100-esr100.npz,,,,,0,114,114,448,,right,red,0.71,507.8013620376587,508.3154878616333,,2,,8,2,lightness,readingArea,realistic,75,2023-03-28_14h30.23.525,tripletExp_regina_11082022,2022.2.4,120.04819897820455,
0,13,12,2,0.027777777777778,0.298245614035088,2,0.111111111111111,3.10526315789474,2,0.027777777777778,3.10526315789474,ReadingArea_rsl2-rcl2-esl29-rsm2-rcm11-esm310-rsr2-rcr2-esr310,exr/ReadingArea_rsl2-rcl2-esl29-rsm2-rcm11-esm310-rsr2-rcr2-esr310.exr,ReadingArea_rsl2-rcl2-esl29-rsm2-rcm11-esm310-rsr2-rcr2-esr310.npz,,,,,0,115,115,501,,right,red,1.18,510.0268030166626,510.429162979126,,2,,8,2,lightness,readingArea,realistic,75,2023-03-28_14h30.23.525,tripletExp_regina_11082022,2022.2.4,120.04819897820455,
1,6,11,2,0.111111111111111,0.298245614035088,2,0.027777777777778,1.0,2,1.0,1.0,ReadingArea_rsl2-rcl11-esl29-rsm2-rcm2-esm100-rsr2-rcr100-esr100,exr/ReadingArea_rsl2-rcl11-esl29-rsm2-rcm2-esm100-rsr2-rcr100-esr100.exr,ReadingArea_rsl2-rcl11-esl29-rsm2-rcm2-esm100-rsr2-rcr100-esr100.npz,,,,,0,116,116,39,,left,green,0.93,512.134486913681,512.5380308628082,,2,,8,2,lightness,readingArea,realistic,75,2023-03-28_14h30.23.525,tripletExp_regina_11082022,2022.2.4,120.04819897820455,
1,13,14,2,0.111111111111111,0.298245614035088,2,0.111111111111111,3.10526315789474,2,0.25,3.10526315789474,ReadingArea_rsl2-rcl11-esl29-rsm2-rcm11-esm310-rsr2-rcr25-esr310,exr/ReadingArea_rsl2-rcl11-esl29-rsm2-rcm11-esm310-rsr2-rcr25-esr310.exr,ReadingArea_rsl2-rcl11-esl29-rsm2-rcm11-esm310-rsr2-rcr25-esr310.npz,,,,,0,117,117,183,,right,red,0.94,514.2470970153809,514.6375739574432,,2,,8,2,lightness,readingArea,realistic,75,2023-03-28_14h30.23.525,tripletExp_regina_11082022,2022.2.4,120.04819897820455,
7,12,0,2,0.111111111111111,1.0,2,0.027777777777778,3.10526315789474,2,0.027777777777778,0.298245614035088,ReadingArea_rsl2-rcl11-esl100-rsm2-rcm2-esm310-rsr2-rcr2-esr29,exr/ReadingArea_rsl2-rcl11-esl100-rsm2-rcm2-esm310-rsr2-rcr2-esr29.exr,ReadingArea_rsl2-rcl11-esl100-rsm2-rcm2-esm310-rsr2-rcr2-esr29.npz,,,,,0,118,118,425,,left,green,0.68,516.3250589370728,516.8018970489502,,2,,8,2,lightness,readingArea,realistic,75,2023-03-28_14h30.23.525,tripletExp_regina_11082022,2022.2.4,120.04819897820455,
5,2,14,2,1.0,0.298245614035088,2,0.25,0.298245614035088,2,0.25,3.10526315789474,ReadingArea_rsl2-rcl100-esl29-rsm2-rcm25-esm29-rsr2-rcr25-esr310,exr/ReadingArea_rsl2-rcl100-esl29-rsm2-rcm25-esm29-rsr2-rcr25-esr310.exr,ReadingArea_rsl2-rcl100-esl29-rsm2-rcm25-esm29-rsr2-rcr25-esr310.npz,,,,,0,119,119,462,,left,green,3.02,520.2927188873291,520.6659388542175,,2,,8,2,lightness,readingArea,realistic,75,2023-03-28_14h30.23.525,tripletExp_regina_11082022,2022.2.4,120.04819897820455,
6,14,10,2,0.027777777777778,1.0,2,0.25,3.10526315789474,2,0.694444444444444,1.0,ReadingArea_rsl2-rcl2-esl100-rsm2-rcm25-esm310-rsr2-rcr69-esr100,exr/ReadingArea_rsl2-rcl2-esl100-rsm2-rcm25-esm310-rsr2-rcr69-esr100.exr,ReadingArea_rsl2-rcl2-esl100-rsm2-rcm25-esm310-rsr2-rcr69-esr100.npz,,,,,0,120,120,413,,right,red,0.64,522.3712680339813,522.8610589504242,,2,,8,2,lightness,readingArea,realistic,75,2023-03-28_14h30.23.525,tripletExp_regina_11082022,2022.2.4,120.04819897820455,
7,0,3,2,0.111111111111111,1.0,2,0.027777777777778,0.298245614035088,2,0.444444444444444,0.298245614035088,ReadingArea_rsl2-rcl11-esl100-rsm2-rcm2-esm29-rsr2-rcr44-esr29,exr/ReadingArea_rsl2-rcl11-esl100-rsm2-rcm2-esm29-rsr2-rcr44-esr29.exr,ReadingArea_rsl2-rcl11-esl100-rsm2-rcm2-esm29-rsr2-rcr44-esr29.npz,,,,,0,121,121,237,,left,green,2.63,526.3295550346375,526.7366778850555,,2,,8,2,lightness,readingArea,realistic,75,2023-03-28_14h30.23.525,tripletExp_regina_11082022,2022.2.4,120.04819897820455,
13,3,14,2,0.111111111111111,3.10526315789474,2,0.444444444444444,0.298245614035088,2,0.25,3.10526315789474,ReadingArea_rsl2-rcl11-esl310-rsm2-rcm44-esm29-rsr2-rcr25-esr310,exr/ReadingArea_rsl2-rcl11-esl310-rsm2-rcm44-esm29-rsr2-rcr25-esr310.exr,ReadingArea_rsl2-rcl11-esl310-rsm2-rcm44-esm29-rsr2-rcr25-esr310.npz,,,,,0,122,122,38,,left,green,2.07,530.2126338481903,530.593612909317,,2,,8,2,lightness,readingArea,realistic,75,2023-03-28_14h30.23.525,tripletExp_regina_11082022,2022.2.4,120.04819897820455,
5,4,10,2,1.0,0.298245614035088,2,0.694444444444444,0.298245614035088,2,0.694444444444444,1.0,ReadingArea_rsl2-rcl100-esl29-rsm2-rcm69-esm29-rsr2-rcr69-esr100,exr/ReadingArea_rsl2-rcl100-esl29-rsm2-rcm69-esm29-rsr2-rcr69-esr100.exr,ReadingArea_rsl2-rcl100-esl29-rsm2-rcm69-esm29-rsr2-rcr69-esr100.npz,,,,,0,123,123,536,,left,green,1.21,532.2796759605408,532.6759140491486,,2,,8,2,lightness,readingArea,realistic,75,2023-03-28_14h30.23.525,tripletExp_regina_11082022,2022.2.4,120.04819897820455,
6,4,10,2,0.027777777777778,1.0,2,0.694444444444444,0.298245614035088,2,0.694444444444444,1.0,ReadingArea_rsl2-rcl2-esl100-rsm2-rcm69-esm29-rsr2-rcr69-esr100,exr/ReadingArea_rsl2-rcl2-esl100-rsm2-rcm69-esm29-rsr2-rcr69-esr100.exr,ReadingArea_rsl2-rcl2-esl100-rsm2-rcm69-esm29-rsr2-rcr69-esr100.npz,,,,,0,124,124,554,,right,red,1.03,534.370255947113,,,2,,8,2,lightness,readingArea,realistic,75,2023-03-28_14h30.23.525,tripletExp_regina_11082022,2022.2.4,120.04819897820455,
4,12,7,2,0.694444444444444,0.298245614035088,2,0.027777777777778,3.10526315789474,2,0.111111111111111,1.0,ReadingArea_rsl2-rcl69-esl29-rsm2-rcm2-esm310-rsr2-rcr11-esr100,exr/ReadingArea_rsl2-rcl69-esl29-rsm2-rcm2-esm310-rsr2-rcr11-esr100.exr,ReadingArea_rsl2-rcl69-esl29-rsm2-rcm2-esm310-rsr2-rcr11-esr100.npz,,,,,0,125,125,112,,right,red,0.79,536.4748539924622,536.862254858017,,2,,8,2,lightness,readingArea,realistic,75,2023-03-28_14h30.23.525,tripletExp_regina_11082022,2022.2.4,120.04819897820455,
3,6,11,2,0.444444444444444,0.298245614035088,2,0.027777777777778,1.0,2,1.0,1.0,ReadingArea_rsl2-rcl44-esl29-rsm2-rcm2-esm100-rsr2-rcr100-esr100,exr/ReadingArea_rsl2-rcl44-esl29-rsm2-rcm2-esm100-rsr2-rcr100-esr100.exr,ReadingArea_rsl2-rcl44-esl29-rsm2-rcm2-esm100-rsr2-rcr100-esr100.npz,,,,,0,126,126,155,,left,green,1.24,538.5713980197906,,,2,,8,2,lightness,readingArea,realistic,75,2023-03-28_14h30.23.525,tripletExp_regina_11082022,2022.2.4,120.04819897820455,
11,0,10,2,1.0,1.0,2,0.027777777777778,0.298245614035088,2,0.694444444444444,1.0,ReadingArea_rsl2-rcl100-esl100-rsm2-rcm2-esm29-rsr2-rcr69-esr100,exr/ReadingArea_rsl2-rcl100-esl100-rsm2-rcm2-esm29-rsr2-rcr69-esr100.exr,ReadingArea_rsl2-rcl100-esl100-rsm2-rcm2-esm29-rsr2-rcr69-esr100.npz,,,,,0,127,127,259,,right,red,4.53,544.2018330097198,544.6680228710175,,2,,8,2,lightness,readingArea,realistic,75,2023-03-28_14h30.23.525,tripletExp_regina_11082022,2022.2.4,120.04819897820455,
14,8,9,2,0.25,3.10526315789474,2,0.25,1.0,2,0.444444444444444,1.0,ReadingArea_rsl2-rcl25-esl310-rsm2-rcm25-esm100-rsr2-rcr44-esr100,exr/ReadingArea_rsl2-rcl25-esl310-rsm2-rcm25-esm100-rsr2-rcr44-esr100.exr,ReadingArea_rsl2-rcl25-esl310-rsm2-rcm25-esm100-rsr2-rcr44-esr100.npz,,,,,0,128,128,518,,right,red,0.92,546.3712990283966,546.7611880302429,,2,,8,2,lightness,readingArea,realistic,75,2023-03-28_14h30.23.525,tripletExp_regina_11082022,2022.2.4,120.04819897820455,
2,1,10,2,0.25,0.298245614035088,2,0.111111111111111,0.298245614035088,2,0.694444444444444,1.0,ReadingArea_rsl2-rcl25-esl29-rsm2-rcm11-esm29-rsr2-rcr69-esr100,exr/ReadingArea_rsl2-rcl25-esl29-rsm2-rcm11-esm29-rsr2-rcr69-esr100.exr,ReadingArea_rsl2-rcl25-esl29-rsm2-rcm11-esm29-rsr2-rcr69-esr100.npz,,,,,0,129,129,585,,left,green,0.66,548.4472160339355,548.818815946579,,2,,8,2,lightness,readingArea,realistic,75,2023-03-28_14h30.23.525,tripletExp_regina_11082022,2022.2.4,120.04819897820455,
8,14,6,2,0.25,1.0,2,0.25,3.10526315789474,2,0.027777777777778,1.0,ReadingArea_rsl2-rcl25-esl100-rsm2-rcm25-esm310-rsr2-rcr2-esr100,exr/ReadingArea_rsl2-rcl25-esl100-rsm2-rcm25-esm310-rsr2-rcr2-esr100.exr,ReadingArea_rsl2-rcl25-esl100-rsm2-rcm25-esm310-rsr2-rcr2-esr100.npz,,,,,0,130,130,469,,left,green,0.93,550.5214359760284,550.9092428684235,,2,,8,2,lightness,readingArea,realistic,75,2023-03-28_14h30.23.525,tripletExp_regina_11082022,2022.2.4,120.04819897820455,
6,12,0,2,0.027777777777778,1.0,2,0.027777777777778,3.10526315789474,2,0.027777777777778,0.298245614035088,ReadingArea_rsl2-rcl2-esl100-rsm2-rcm2-esm310-rsr2-rcr2-esr29,exr/ReadingArea_rsl2-rcl2-esl100-rsm2-rcm2-esm310-rsr2-rcr2-esr29.exr,ReadingArea_rsl2-rcl2-esl100-rsm2-rcm2-esm310-rsr2-rcr2-esr29.npz,,,,,0,131,131,23,,left,green,1.05,552.6094899177551,552.992348909378,,2,,8,2,lightness,readingArea,realistic,75,2023-03-28_14h30.23.525,tripletExp_regina_11082022,2022.2.4,120.04819897820455,
11,5,2,2,1.0,1.0,2,1.0,0.298245614035088,2,0.25,0.298245614035088,ReadingArea_rsl2-rcl100-esl100-rsm2-rcm100-esm29-rsr2-rcr25-esr29,exr/ReadingArea_rsl2-rcl100-esl100-rsm2-rcm100-esm29-rsr2-rcr25-esr29.exr,ReadingArea_rsl2-rcl100-esl100-rsm2-rcm100-esm29-rsr2-rcr25-esr29.npz,,,,,0,132,132,596,,right,red,2.82,556.4605820178986,556.8511559963226,,2,,8,2,lightness,readingArea,realistic,75,2023-03-28_14h30.23.525,tripletExp_regina_11082022,2022.2.4,120.04819897820455,
6,5,11,2,0.027777777777778,1.0,2,1.0,0.298245614035088,2,1.0,1.0,ReadingArea_rsl2-rcl2-esl100-rsm2-rcm100-esm29-rsr2-rcr100-esr100,exr/ReadingArea_rsl2-rcl2-esl100-rsm2-rcm100-esm29-rsr2-rcr100-esr100.exr,ReadingArea_rsl2-rcl2-esl100-rsm2-rcm100-esm29-rsr2-rcr100-esr100.npz,,,,,0,133,133,289,,right,red,2.8,560.3327839374542,,,2,,8,2,lightness,readingArea,realistic,75,2023-03-28_14h30.23.525,tripletExp_regina_11082022,2022.2.4,120.04819897820455,
14,13,0,2,0.25,3.10526315789474,2,0.111111111111111,3.10526315789474,2,0.027777777777778,0.298245614035088,ReadingArea_rsl2-rcl25-esl310-rsm2-rcm11-esm310-rsr2-rcr2-esr29,exr/ReadingArea_rsl2-rcl25-esl310-rsm2-rcm11-esm310-rsr2-rcr2-esr29.exr,ReadingArea_rsl2-rcl25-esl310-rsm2-rcm11-esm310-rsr2-rcr2-esr29.npz,,,,,0,134,134,417,,left,green,0.65,562.5221419334412,562.926915884018,,2,,8,2,lightness,readingArea,realistic,75,2023-03-28_14h30.23.525,tripletExp_regina_11082022,2022.2.4,120.04819897820455,
3,6,5,2,0.444444444444444,0.298245614035088,2,0.027777777777778,1.0,2,1.0,0.298245614035088,ReadingArea_rsl2-rcl44-esl29-rsm2-rcm2-esm100-rsr2-rcr100-esr29,exr/ReadingArea_rsl2-rcl44-esl29-rsm2-rcm2-esm100-rsr2-rcr100-esr29.exr,ReadingArea_rsl2-rcl44-esl29-rsm2-rcm2-esm100-rsr2-rcr100-esr29.npz,,,,,0,135,135,274,,left,green,2.96,566.4011158943176,566.8959019184113,,2,,8,2,lightness,readingArea,realistic,75,2023-03-28_14h30.23.525,tripletExp_regina_11082022,2022.2.4,120.04819897820455,
8,3,12,2,0.25,1.0,2,0.444444444444444,0.298245614035088,2,0.027777777777778,3.10526315789474,ReadingArea_rsl2-rcl25-esl100-rsm2-rcm44-esm29-rsr2-rcr2-esr310,exr/ReadingArea_rsl2-rcl25-esl100-rsm2-rcm44-esm29-rsr2-rcr2-esr310.exr,ReadingArea_rsl2-rcl25-esl100-rsm2-rcm44-esm29-rsr2-rcr2-esr310.npz,,,,,0,136,136,22,,left,green,1.04,568.6133999824524,569.014405965805,,2,,8,2,lightness,readingArea,realistic,75,2023-03-28_14h30.23.525,tripletExp_regina_11082022,2022.2.4,120.04819897820455,
13,6,8,2,0.111111111111111,3.10526315789474,2,0.027777777777778,1.0,2,0.25,1.0,ReadingArea_rsl2-rcl11-esl310-rsm2-rcm2-esm100-rsr2-rcr25-esr100,exr/ReadingArea_rsl2-rcl11-esl310-rsm2-rcm2-esm100-rsr2-rcr25-esr100.exr,ReadingArea_rsl2-rcl11-esl310-rsm2-rcm2-esm100-rsr2-rcr25-esr100.npz,,,,,0,137,137,340,,right,red,2.86,572.4909598827362,572.9045369625092,,2,,8,2,lightness,readingArea,realistic,75,2023-03-28_14h30.23.525,tripletExp_regina_11082022,2022.2.4,120.04819897820455,
7,8,14,2,0.111111111111111,1.0,2,0.25,1.0,2,0.25,3.10526315789474,ReadingArea_rsl2-rcl11-esl100-rsm2-rcm25-esm100-rsr2-rcr25-esr310,exr/ReadingArea_rsl2-rcl11-esl100-rsm2-rcm25-esm100-rsr2-rcr25-esr310.exr,ReadingArea_rsl2-rcl11-esl100-rsm2-rcm25-esm100-rsr2-rcr25-esr310.npz,,,,,0,138,138,300,,left,green,0.87,574.62158203125,575.0426440238953,,2,,8,2,lightness,readingArea,realistic,75,2023-03-28_14h30.23.525,tripletExp_regina_11082022,2022.2.4,120.04819897820455,
11,2,4,2,1.0,1.0,2,0.25,0.298245614035088,2,0.694444444444444,0.298245614035088,ReadingArea_rsl2-rcl100-esl100-rsm2-rcm25-esm29-rsr2-rcr69-esr29,exr/ReadingArea_rsl2-rcl100-esl100-rsm2-rcm25-esm29-rsr2-rcr69-esr29.exr,ReadingArea_rsl2-rcl100-esl100-rsm2-rcm25-esm29-rsr2-rcr69-esr29.npz,,,,,0,139,139,359,,right,red,0.87,576.7290530204773,577.1250288486481,,2,,8,2,lightness,readingArea,realistic,75,2023-03-28_14h30.23.525,tripletExp_regina_11082022,2022.2.4,120.04819897820455,
12,5,2,2,0.027777777777778,3.10526315789474,2,1.0,0.298245614035088,2,0.25,0.298245614035088,ReadingArea_rsl2-rcl2-esl310-rsm2-rcm100-esm29-rsr2-rcr25-esr29,exr/ReadingArea_rsl2-rcl2-esl310-rsm2-rcm100-esm29-rsr2-rcr25-esr29.exr,ReadingArea_rsl2-rcl2-esl310-rsm2-rcm100-esm29-rsr2-rcr25-esr29.npz,,,,,0,140,140,415,,right,red,1.42,578.8338840007782,579.2451019287109,,2,,8,2,lightness,readingArea,realistic,75,2023-03-28_14h30.23.525,tripletExp_regina_11082022,2022.2.4,120.04819897820455,
0,5,6,2,0.027777777777778,0.298245614035088,2,1.0,0.298245614035088,2,0.027777777777778,1.0,ReadingArea_rsl2-rcl2-esl29-rsm2-rcm100-esm29-rsr2-rcr2-esr100,exr/ReadingArea_rsl2-rcl2-esl29-rsm2-rcm100-esm29-rsr2-rcr2-esr100.exr,ReadingArea_rsl2-rcl2-esl29-rsm2-rcm100-esm29-rsr2-rcr2-esr100.npz,,,,,0,141,141,374,,right,red,3.61,584.5272929668427,584.9203958511353,,2,,8,2,lightness,readingArea,realistic,75,2023-03-28_14h30.23.525,tripletExp_regina_11082022,2022.2.4,120.04819897820455,
2,12,13,2,0.25,0.298245614035088,2,0.027777777777778,3.10526315789474,2,0.111111111111111,3.10526315789474,ReadingArea_rsl2-rcl25-esl29-rsm2-rcm2-esm310-rsr2-rcr11-esr310,exr/ReadingArea_rsl2-rcl25-esl29-rsm2-rcm2-esm310-rsr2-rcr11-esr310.exr,ReadingArea_rsl2-rcl25-esl29-rsm2-rcm2-esm310-rsr2-rcr11-esr310.npz,,,,,0,142,142,232,,left,green,0.9,586.6433730125427,587.0512008666992,,2,,8,2,lightness,readingArea,realistic,75,2023-03-28_14h30.23.525,tripletExp_regina_11082022,2022.2.4,120.04819897820455,
14,8,2,2,0.25,3.10526315789474,2,0.25,1.0,2,0.25,0.298245614035088,ReadingArea_rsl2-rcl25-esl310-rsm2-rcm25-esm100-rsr2-rcr25-esr29,exr/ReadingArea_rsl2-rcl25-esl310-rsm2-rcm25-esm100-rsr2-rcr25-esr29.exr,ReadingArea_rsl2-rcl25-esl310-rsm2-rcm25-esm100-rsr2-rcr25-esr29.npz,,,,,0,143,143,251,,right,red,4.1,592.302726984024,592.6959140300751,,2,,8,2,lightness,readingArea,realistic,75,2023-03-28_14h30.23.525,tripletExp_regina_11082022,2022.2.4,120.04819897820455,
6,11,8,2,0.027777777777778,1.0,2,1.0,1.0,2,0.25,1.0,ReadingArea_rsl2-rcl2-esl100-rsm2-rcm100-esm100-rsr2-rcr25-esr100,exr/ReadingArea_rsl2-rcl2-esl100-rsm2-rcm100-esm100-rsr2-rcr25-esr100.exr,ReadingArea_rsl2-rcl2-esl100-rsm2-rcm100-esm100-rsr2-rcr25-esr100.npz,,,,,0,144,144,176,,right,red,1.53,594.4004859924316,594.7876570224762,,2,,8,2,lightness,readingArea,realistic,75,2023-03-28_14h30.23.525,tripletExp_regina_11082022,2022.2.4,120.04819897820455,
12,9,13,2,0.027777777777778,3.10526315789474,2,0.444444444444444,1.0,2,0.111111111111111,3.10526315789474,ReadingArea_rsl2-rcl2-esl310-rsm2-rcm44-esm100-rsr2-rcr11-esr310,exr/ReadingArea_rsl2-rcl2-esl310-rsm2-rcm44-esm100-rsr2-rcr11-esr310.exr,ReadingArea_rsl2-rcl2-esl310-rsm2-rcm44-esm100-rsr2-rcr11-esr310.npz,,,,,0,145,145,529,,right,red,2.24,598.2681920528412,598.663516998291,,2,,8,2,lightness,readingArea,realistic,75,2023-03-28_14h30.23.525,tripletExp_regina_11082022,2022.2.4,120.04819897820455,
6,0,10,2,0.027777777777778,1.0,2,0.027777777777778,0.298245614035088,2,0.694444444444444,1.0,ReadingArea_rsl2-rcl2-esl100-rsm2-rcm2-esm29-rsr2-rcr69-esr100,exr/ReadingArea_rsl2-rcl2-esl100-rsm2-rcm2-esm29-rsr2-rcr69-esr100.exr,ReadingArea_rsl2-rcl2-esl100-rsm2-rcm2-esm29-rsr2-rcr69-esr100.npz,,,,,0,146,146,532,,left,green,0.84,600.3720419406891,600.8468759059906,,2,,8,2,lightness,readingArea,realistic,75,2023-03-28_14h30.23.525,tripletExp_regina_11082022,2022.2.4,120.04819897820455,
9,11,13,2,0.444444444444444,1.0,2,1.0,1.0,2,0.111111111111111,3.10526315789474,ReadingArea_rsl2-rcl44-esl100-rsm2-rcm100-esm100-rsr2-rcr11-esr310,exr/ReadingArea_rsl2-rcl44-esl100-rsm2-rcm100-esm100-rsr2-rcr11-esr310.exr,ReadingArea_rsl2-rcl44-esl100-rsm2-rcm100-esm100-rsr2-rcr11-esr310.npz,,,,,0,147,147,254,,right,red,4.95,606.0781309604645,606.4721169471741,,2,,8,2,lightness,readingArea,realistic,75,2023-03-28_14h30.23.525,tripletExp_regina_11082022,2022.2.4,120.04819897820455,
5,6,0,2,1.0,0.298245614035088,2,0.027777777777778,1.0,2,0.027777777777778,0.298245614035088,ReadingArea_rsl2-rcl100-esl29-rsm2-rcm2-esm100-rsr2-rcr2-esr29,exr/ReadingArea_rsl2-rcl100-esl29-rsm2-rcm2-esm100-rsr2-rcr2-esr29.exr,ReadingArea_rsl2-rcl100-esl29-rsm2-rcm2-esm100-rsr2-rcr2-esr29.npz,,,,,0,148,148,511,,right,red,4.09,611.7129969596863,612.163341999054,,2,,8,2,lightness,readingArea,realistic,75,2023-03-28_14h30.23.525,tripletExp_regina_11082022,2022.2.4,120.04819897820455,
7,8,3,2,0.111111111111111,1.0,2,0.25,1.0,2,0.444444444444444,0.298245614035088,ReadingArea_rsl2-rcl11-esl100-rsm2-rcm25-esm100-rsr2-rcr44-esr29,exr/ReadingArea_rsl2-rcl11-esl100-rsm2-rcm25-esm100-rsr2-rcr44-esr29.exr,ReadingArea_rsl2-rcl11-esl100-rsm2-rcm25-esm100-rsr2-rcr44-esr29.npz,,,,,0,149,149,459,,left,green,2.46,615.6326818466187,615.8322539329529,,2,,8,2,lightness,readingArea,realistic,75,2023-03-28_14h30.23.525,tripletExp_regina_11082022,2022.2.4,120.04819897820455,
7,4,1,2,0.111111111111111,1.0,2,0.694444444444444,0.298245614035088,2,0.111111111111111,0.298245614035088,ReadingArea_rsl2-rcl11-esl100-rsm2-rcm69-esm29-rsr2-rcr11-esr29,exr/ReadingArea_rsl2-rcl11-esl100-rsm2-rcm69-esm29-rsr2-rcr11-esr29.exr,ReadingArea_rsl2-rcl11-esl100-rsm2-rcm69-esm29-rsr2-rcr11-esr29.npz,,,,,0,150,150,369,,left,green,2.11,621.2547559738159,621.6503758430481,,3,,8,2,lightness,readingArea,realistic,75,2023-03-28_14h30.23.525,tripletExp_regina_11082022,2022.2.4,120.04819897820455,
8,9,1,2,0.25,1.0,2,0.444444444444444,1.0,2,0.111111111111111,0.298245614035088,ReadingArea_rsl2-rcl25-esl100-rsm2-rcm44-esm100-rsr2-rcr11-esr29,exr/ReadingArea_rsl2-rcl25-esl100-rsm2-rcm44-esm100-rsr2-rcr11-esr29.exr,ReadingArea_rsl2-rcl25-esl100-rsm2-rcm44-esm100-rsr2-rcr11-esr29.npz,,,,,0,151,151,266,,left,green,0.7,623.3633558750153,623.7558660507202,,3,,8,2,lightness,readingArea,realistic,75,2023-03-28_14h30.23.525,tripletExp_regina_11082022,2022.2.4,120.04819897820455,
3,4,5,2,0.444444444444444,0.298245614035088,2,0.694444444444444,0.298245614035088,2,1.0,0.298245614035088,ReadingArea_rsl2-rcl44-esl29-rsm2-rcm69-esm29-rsr2-rcr100-esr29,exr/ReadingArea_rsl2-rcl44-esl29-rsm2-rcm69-esm29-rsr2-rcr100-esr29.exr,ReadingArea_rsl2-rcl44-esl29-rsm2-rcm69-esm29-rsr2-rcr100-esr29.npz,,,,,0,152,152,233,,left,green,2.55,627.1974878311157,627.5867788791656,,3,,8,2,lightness,readingArea,realistic,75,2023-03-28_14h30.23.525,tripletExp_regina_11082022,2022.2.4,120.04819897820455,
3,12,4,2,0.444444444444444,0.298245614035088,2,0.027777777777778,3.10526315789474,2,0.694444444444444,0.298245614035088,ReadingArea_rsl2-rcl44-esl29-rsm2-rcm2-esm310-rsr2-rcr69-esr29,exr/ReadingArea_rsl2-rcl44-esl29-rsm2-rcm2-esm310-rsr2-rcr69-esr29.exr,ReadingArea_rsl2-rcl44-esl29-rsm2-rcm2-esm310-rsr2-rcr69-esr29.npz,,,,,0,153,153,426,,left,green,3.01,631.0687370300293,,,3,,8,2,lightness,readingArea,realistic,75,2023-03-28_14h30.23.525,tripletExp_regina_11082022,2022.2.4,120.04819897820455,
12,5,4,2,0.027777777777778,3.10526315789474,2,1.0,0.298245614035088,2,0.694444444444444,0.298245614035088,ReadingArea_rsl2-rcl2-esl310-rsm2-rcm100-esm29-rsr2-rcr69-esr29,exr/ReadingArea_rsl2-rcl2-esl310-rsm2-rcm100-esm29-rsr2-rcr69-esr29.exr,ReadingArea_rsl2-rcl2-esl310-rsm2-rcm100-esm29-rsr2-rcr69-esr29.npz,,,,,0,154,154,566,,right,red,4.31,636.8087170124054,637.1992518901825,,3,,8,2,lightness,readingArea,realistic,75,2023-03-28_14h30.23.525,tripletExp_regina_11082022,2022.2.4,120.04819897820455,
9,14,7,2,0.444444444444444,1.0,2,0.25,3.10526315789474,2,0.111111111111111,1.0,ReadingArea_rsl2-rcl44-esl100-rsm2-rcm25-esm310-rsr2-rcr11-esr100,exr/ReadingArea_rsl2-rcl44-esl100-rsm2-rcm25-esm310-rsr2-rcr11-esr100.exr,ReadingArea_rsl2-rcl44-esl100-rsm2-rcm25-esm310-rsr2-rcr11-esr100.npz,,,,,0,155,155,44,,left,green,2.98,640.6772379875183,641.0658009052277,,3,,8,2,lightness,readingArea,realistic,75,2023-03-28_14h30.23.525,tripletExp_regina_11082022,2022.2.4,120.04819897820455,
12,8,6,2,0.027777777777778,3.10526315789474,2,0.25,1.0,2,0.027777777777778,1.0,ReadingArea_rsl2-rcl2-esl310-rsm2-rcm25-esm100-rsr2-rcr2-esr100,exr/ReadingArea_rsl2-rcl2-esl310-rsm2-rcm25-esm100-rsr2-rcr2-esr100.exr,ReadingArea_rsl2-rcl2-esl310-rsm2-rcm25-esm100-rsr2-rcr2-esr100.npz,,,,,0,156,156,281,,left,green,3.83,646.3077149391174,646.7962648868561,,3,,8,2,lightness,readingArea,realistic,75,2023-03-28_14h30.23.525,tripletExp_regina_11082022,2022.2.4,120.04819897820455,
11,9,4,2,1.0,1.0,2,0.444444444444444,1.0,2,0.694444444444444,0.298245614035088,ReadingArea_rsl2-rcl100-esl100-rsm2-rcm44-esm100-rsr2-rcr69-esr29,exr/ReadingArea_rsl2-rcl100-esl100-rsm2-rcm44-esm100-rsr2-rcr69-esr29.exr,ReadingArea_rsl2-rcl100-esl100-rsm2-rcm44-esm100-rsr2-rcr69-esr29.npz,,,,,0,157,157,26,,left,green,0.93,648.5111989974976,648.9101679325104,,3,,8,2,lightness,readingArea,realistic,75,2023-03-28_14h30.23.525,tripletExp_regina_11082022,2022.2.4,120.04819897820455,
12,3,11,2,0.027777777777778,3.10526315789474,2,0.444444444444444,0.298245614035088,2,1.0,1.0,ReadingArea_rsl2-rcl2-esl310-rsm2-rcm44-esm29-rsr2-rcr100-esr100,exr/ReadingArea_rsl2-rcl2-esl310-rsm2-rcm44-esm29-rsr2-rcr100-esr100.exr,ReadingArea_rsl2-rcl2-esl310-rsm2-rcm44-esm29-rsr2-rcr100-esr100.npz,,,,,0,158,158,83,,left,green,2.83,652.394670009613,652.8030149936676,,3,,8,2,lightness,readingArea,realistic,75,2023-03-28_14h30.23.525,tripletExp_regina_11082022,2022.2.4,120.04819897820455,
0,7,9,2,0.027777777777778,0.298245614035088,2,0.111111111111111,1.0,2,0.444444444444444,1.0,ReadingArea_rsl2-rcl2-esl29-rsm2-rcm11-esm100-rsr2-rcr44-esr100,exr/ReadingArea_rsl2-rcl2-esl29-rsm2-rcm11-esm100-rsr2-rcr44-esr100.exr,ReadingArea_rsl2-rcl2-esl29-rsm2-rcm11-esm100-rsr2-rcr44-esr100.npz,,,,,0,159,159,463,,right,red,1.76,654.5193219184875,654.9048750400543,,3,,8,2,lightness,readingArea,realistic,75,2023-03-28_14h30.23.525,tripletExp_regina_11082022,2022.2.4,120.04819897820455,
1,3,4,2,0.111111111111111,0.298245614035088,2,0.444444444444444,0.298245614035088,2,0.694444444444444,0.298245614035088,ReadingArea_rsl2-rcl11-esl29-rsm2-rcm44-esm29-rsr2-rcr69-esr29,exr/ReadingArea_rsl2-rcl11-esl29-rsm2-rcm44-esm29-rsr2-rcr69-esr29.exr,ReadingArea_rsl2-rcl11-esl29-rsm2-rcm44-esm29-rsr2-rcr69-esr29.npz,,,,,0,160,160,153,,right,red,1.06,656.6242280006409,657.1092360019684,,3,,8,2,lightness,readingArea,realistic,75,2023-03-28_14h30.23.525,tripletExp_regina_11082022,2022.2.4,120.04819897820455,
5,10,12,2,1.0,0.298245614035088,2,0.694444444444444,1.0,2,0.027777777777778,3.10526315789474,ReadingArea_rsl2-rcl100-esl29-rsm2-rcm69-esm100-rsr2-rcr2-esr310,exr/ReadingArea_rsl2-rcl100-esl29-rsm2-rcm69-esm100-rsr2-rcr2-esr310.exr,ReadingArea_rsl2-rcl100-esl29-rsm2-rcm69-esm100-rsr2-rcr2-esr310.npz,,,,,0,161,161,587,,left,green,2.14,660.5806288719177,660.9835360050201,,3,,8,2,lightness,readingArea,realistic,75,2023-03-28_14h30.23.525,tripletExp_regina_11082022,2022.2.4,120.04819897820455,
1,12,0,2,0.111111111111111,0.298245614035088,2,0.027777777777778,3.10526315789474,2,0.027777777777778,0.298245614035088,ReadingArea_rsl2-rcl11-esl29-rsm2-rcm2-esm310-rsr2-rcr2-esr29,exr/ReadingArea_rsl2-rcl11-esl29-rsm2-rcm2-esm310-rsr2-rcr2-esr29.exr,ReadingArea_rsl2-rcl11-esl29-rsm2-rcm2-esm310-rsr2-rcr2-esr29.npz,,,,,0,162,162,113,,left,green,2.89,664.4864618778229,664.8964569568634,,3,,8,2,lightness,readingArea,realistic,75,2023-03-28_14h30.23.525,tripletExp_regina_11082022,2022.2.4,120.04819897820455,
4,10,6,2,0.694444444444444,0.298245614035088,2,0.694444444444444,1.0,2,0.027777777777778,1.0,ReadingArea_rsl2-rcl69-esl29-rsm2-rcm69-esm100-rsr2-rcr2-esr100,exr/ReadingArea_rsl2-rcl69-esl29-rsm2-rcm69-esm100-rsr2-rcr2-esr100.exr,ReadingArea_rsl2-rcl69-esl29-rsm2-rcm69-esm100-rsr2-rcr2-esr100.npz,,,,,0,163,163,468,,left,green,1.28,666.5953299999237,666.994381904602,,3,,8,2,lightness,readingArea,realistic,75,2023-03-28_14h30.23.525,tripletExp_regina_11082022,2022.2.4,120.04819897820455,
8,7,12,2,0.25,1.0,2,0.111111111111111,1.0,2,0.027777777777778,3.10526315789474,ReadingArea_rsl2-rcl25-esl100-rsm2-rcm11-esm100-rsr2-rcr2-esr310,exr/ReadingArea_rsl2-rcl25-esl100-rsm2-rcm11-esm100-rsr2-rcr2-esr310.exr,ReadingArea_rsl2-rcl25-esl100-rsm2-rcm11-esm100-rsr2-rcr2-esr310.npz,,,,,0,164,164,471,,right,red,1.86,670.4807710647583,670.9461958408356,,3,,8,2,lightness,readingArea,realistic,75,2023-03-28_14h30.23.525,tripletExp_regina_11082022,2022.2.4,120.04819897820455,
0,14,11,2,0.027777777777778,0.298245614035088,2,0.25,3.10526315789474,2,1.0,1.0,ReadingArea_rsl2-rcl2-esl29-rsm2-rcm25-esm310-rsr2-rcr100-esr100,exr/ReadingArea_rsl2-rcl2-esl29-rsm2-rcm25-esm310-rsr2-rcr100-esr100.exr,ReadingArea_rsl2-rcl2-esl29-rsm2-rcm25-esm310-rsr2-rcr100-esr100.npz,,,,,0,165,165,557,,right,red,1.14,672.6444900035858,673.0559079647064,,3,,8,2,lightness,readingArea,realistic,75,2023-03-28_14h30.23.525,tripletExp_regina_11082022,2022.2.4,120.04819897820455,
6,1,2,2,0.027777777777778,1.0,2,0.111111111111111,0.298245614035088,2,0.25,0.298245614035088,ReadingArea_rsl2-rcl2-esl100-rsm2-rcm11-esm29-rsr2-rcr25-esr29,exr/ReadingArea_rsl2-rcl2-esl100-rsm2-rcm11-esm29-rsr2-rcr25-esr29.exr,ReadingArea_rsl2-rcl2-esl100-rsm2-rcm11-esm29-rsr2-rcr25-esr29.npz,,,,,0,166,166,68,,right,red,2.74,676.5107278823853,676.9126470088959,,3,,8,2,lightness,readingArea,realistic,75,2023-03-28_14h30.23.525,tripletExp_regina_11082022,2022.2.4,120.04819897820455,
11,8,2,2,1.0,1.0,2,0.25,1.0,2,0.25,0.298245614035088,ReadingArea_rsl2-rcl100-esl100-rsm2-rcm25-esm100-rsr2-rcr25-esr29,exr/ReadingArea_rsl2-rcl100-esl100-rsm2-rcm25-esm100-rsr2-rcr25-esr29.exr,ReadingArea_rsl2-rcl100-esl100-rsm2-rcm25-esm100-rsr2-rcr25-esr29.npz,,,,,0,167,167,406,,left,green,1.94,680.4053230285645,680.8419179916382,,3,,8,2,lightness,readingArea,realistic,75,2023-03-28_14h30.23.525,tripletExp_regina_11082022,2022.2.4,120.04819897820455,
6,9,2,2,0.027777777777778,1.0,2,0.444444444444444,1.0,2,0.25,0.298245614035088,ReadingArea_rsl2-rcl2-esl100-rsm2-rcm44-esm100-rsr2-rcr25-esr29,exr/ReadingArea_rsl2-rcl2-esl100-rsm2-rcm44-esm100-rsr2-rcr25-esr29.exr,ReadingArea_rsl2-rcl2-esl100-rsm2-rcm44-esm100-rsr2-rcr25-esr29.npz,,,,,0,168,168,182,,left,green,4.55,686.0827078819275,686.4748170375824,,3,,8,2,lightness,readingArea,realistic,75,2023-03-28_14h30.23.525,tripletExp_regina_11082022,2022.2.4,120.04819897820455,
7,3,0,2,0.111111111111111,1.0,2,0.444444444444444,0.298245614035088,2,0.027777777777778,0.298245614035088,ReadingArea_rsl2-rcl11-esl100-rsm2-rcm44-esm29-rsr2-rcr2-esr29,exr/ReadingArea_rsl2-rcl11-esl100-rsm2-rcm44-esm29-rsr2-rcr2-esr29.exr,ReadingArea_rsl2-rcl11-esl100-rsm2-rcm44-esm29-rsr2-rcr2-esr29.npz,,,,,0,169,169,318,,left,green,0.97,688.1767859458923,688.5631630420685,,3,,8,2,lightness,readingArea,realistic,75,2023-03-28_14h30.23.525,tripletExp_regina_11082022,2022.2.4,120.04819897820455,
14,6,2,2,0.25,3.10526315789474,2,0.027777777777778,1.0,2,0.25,0.298245614035088,ReadingArea_rsl2-rcl25-esl310-rsm2-rcm2-esm100-rsr2-rcr25-esr29,exr/ReadingArea_rsl2-rcl25-esl310-rsm2-rcm2-esm100-rsr2-rcr25-esr29.exr,ReadingArea_rsl2-rcl25-esl310-rsm2-rcm2-esm100-rsr2-rcr25-esr29.npz,,,,,0,170,170,272,,right,red,2.11,692.0563688278198,692.4698638916016,,3,,8,2,lightness,readingArea,realistic,75,2023-03-28_14h30.23.525,tripletExp_regina_11082022,2022.2.4,120.04819897820455,
10,7,11,2,0.694444444444444,1.0,2,0.111111111111111,1.0,2,1.0,1.0,ReadingArea_rsl2-rcl69-esl100-rsm2-rcm11-esm100-rsr2-rcr100-esr100,exr/ReadingArea_rsl2-rcl69-esl100-rsm2-rcm11-esm100-rsr2-rcr100-esr100.exr,ReadingArea_rsl2-rcl69-esl100-rsm2-rcm11-esm100-rsr2-rcr100-esr100.npz,,,,,0,171,171,542,,left,green,2.4,695.9689519405365,696.4558169841766,,3,,8,2,lightness,readingArea,realistic,75,2023-03-28_14h30.23.525,tripletExp_regina_11082022,2022.2.4,120.04819897820455,
7,13,12,2,0.111111111111111,1.0,2,0.111111111111111,3.10526315789474,2,0.027777777777778,3.10526315789474,ReadingArea_rsl2-rcl11-esl100-rsm2-rcm11-esm310-rsr2-rcr2-esr310,exr/ReadingArea_rsl2-rcl11-esl100-rsm2-rcm11-esm310-rsr2-rcr2-esr310.exr,ReadingArea_rsl2-rcl11-esl100-rsm2-rcm11-esm310-rsr2-rcr2-esr310.npz,,,,,0,172,172,438,,right,red,2.34,699.9495680332184,700.3577010631561,,3,,8,2,lightness,readingArea,realistic,75,2023-03-28_14h30.23.525,tripletExp_regina_11082022,2022.2.4,120.04819897820455,
10,4,9,2,0.694444444444444,1.0,2,0.694444444444444,0.298245614035088,2,0.444444444444444,1.0,ReadingArea_rsl2-rcl69-esl100-rsm2-rcm69-esm29-rsr2-rcr44-esr100,exr/ReadingArea_rsl2-rcl69-esl100-rsm2-rcm69-esm29-rsr2-rcr44-esr100.exr,ReadingArea_rsl2-rcl69-esl100-rsm2-rcm69-esm29-rsr2-rcr44-esr100.npz,,,,,0,173,173,452,,right,red,2.09,703.8334839344025,704.2341449260712,,3,,8,2,lightness,readingArea,realistic,75,2023-03-28_14h30.23.525,tripletExp_regina_11082022,2022.2.4,120.04819897820455,
14,11,4,2,0.25,3.10526315789474,2,1.0,1.0,2,0.694444444444444,0.298245614035088,ReadingArea_rsl2-rcl25-esl310-rsm2-rcm100-esm100-rsr2-rcr69-esr29,exr/ReadingArea_rsl2-rcl25-esl310-rsm2-rcm100-esm100-rsr2-rcr69-esr29.exr,ReadingArea_rsl2-rcl25-esl310-rsm2-rcm100-esm100-rsr2-rcr69-esr29.npz,,,,,0,174,174,370,,left,green,1.14,705.9367220401764,706.3360509872437,,3,,8,2,lightness,readingArea,realistic,75,2023-03-28_14h30.23.525,tripletExp_regina_11082022,2022.2.4,120.04819897820455,
0,8,6,2,0.027777777777778,0.298245614035088,2,0.25,1.0,2,0.027777777777778,1.0,ReadingArea_rsl2-rcl2-esl29-rsm2-rcm25-esm100-rsr2-rcr2-esr100,exr/ReadingArea_rsl2-rcl2-esl29-rsm2-rcm25-esm100-rsr2-rcr2-esr100.exr,ReadingArea_rsl2-rcl2-esl29-rsm2-rcm25-esm100-rsr2-rcr2-esr100.npz,,,,,0,175,175,92,,right,red,1.06,708.0593359470367,708.4712820053101,,3,,8,2,lightness,readingArea,realistic,75,2023-03-28_14h30.23.525,tripletExp_regina_11082022,2022.2.4,120.04819897820455,
10,11,5,2,0.694444444444444,1.0,2,1.0,1.0,2,1.0,0.298245614035088,ReadingArea_rsl2-rcl69-esl100-rsm2-rcm100-esm100-rsr2-rcr100-esr29,exr/ReadingArea_rsl2-rcl69-esl100-rsm2-rcm100-esm100-rsr2-rcr100-esr29.exr,ReadingArea_rsl2-rcl69-esl100-rsm2-rcm100-esm100-rsr2-rcr100-esr29.npz,,,,,0,176,176,514,,right,red,3.06,711.912672996521,712.3572499752045,,3,,8,2,lightness,readingArea,realistic,75,2023-03-28_14h30.23.525,tripletExp_regina_11082022,2022.2.4,120.04819897820455,
4,5,1,2,0.694444444444444,0.298245614035088,2,1.0,0.298245614035088,2,0.111111111111111,0.298245614035088,ReadingArea_rsl2-rcl69-esl29-rsm2-rcm100-esm29-rsr2-rcr11-esr29,exr/ReadingArea_rsl2-rcl69-esl29-rsm2-rcm100-esm29-rsr2-rcr11-esr29.exr,ReadingArea_rsl2-rcl69-esl29-rsm2-rcm100-esm29-rsr2-rcr11-esr29.npz,,,,,0,177,177,240,,left,green,2.53,715.8225009441376,716.2122008800507,,3,,8,2,lightness,readingArea,realistic,75,2023-03-28_14h30.23.525,tripletExp_regina_11082022,2022.2.4,120.04819897820455,
2,4,14,2,0.25,0.298245614035088,2,0.694444444444444,0.298245614035088,2,0.25,3.10526315789474,ReadingArea_rsl2-rcl25-esl29-rsm2-rcm69-esm29-rsr2-rcr25-esr310,exr/ReadingArea_rsl2-rcl25-esl29-rsm2-rcm69-esm29-rsr2-rcr25-esr310.exr,ReadingArea_rsl2-rcl25-esl29-rsm2-rcm69-esm29-rsr2-rcr25-esr310.npz,,,,,0,178,178,356,,left,green,2.36,719.6991739273071,720.0916700363159,,3,,8,2,lightness,readingArea,realistic,75,2023-03-28_14h30.23.525,tripletExp_regina_11082022,2022.2.4,120.04819897820455,
7,10,4,2,0.111111111111111,1.0,2,0.694444444444444,1.0,2,0.694444444444444,0.298245614035088,ReadingArea_rsl2-rcl11-esl100-rsm2-rcm69-esm100-rsr2-rcr69-esr29,exr/ReadingArea_rsl2-rcl11-esl100-rsm2-rcm69-esm100-rsr2-rcr69-esr29.exr,ReadingArea_rsl2-rcl11-esl100-rsm2-rcm69-esm100-rsr2-rcr69-esr29.npz,,,,,0,179,179,46,,right,red,2.57,723.5792639255524,723.9832289218903,,3,,8,2,lightness,readingArea,realistic,75,2023-03-28_14h30.23.525,tripletExp_regina_11082022,2022.2.4,120.04819897820455,
13,6,12,2,0.111111111111111,3.10526315789474,2,0.027777777777778,1.0,2,0.027777777777778,3.10526315789474,ReadingArea_rsl2-rcl11-esl310-rsm2-rcm2-esm100-rsr2-rcr2-esr310,exr/ReadingArea_rsl2-rcl11-esl310-rsm2-rcm2-esm100-rsr2-rcr2-esr310.exr,ReadingArea_rsl2-rcl11-esl310-rsm2-rcm2-esm100-rsr2-rcr2-esr310.npz,,,,,0,180,180,147,,right,red,4.33,729.2147240638733,729.7096519470215,,3,,8,2,lightness,readingArea,realistic,75,2023-03-28_14h30.23.525,tripletExp_regina_11082022,2022.2.4,120.04819897820455,
13,3,5,2,0.111111111111111,3.10526315789474,2,0.444444444444444,0.298245614035088,2,1.0,0.298245614035088,ReadingArea_rsl2-rcl11-esl310-rsm2-rcm44-esm29-rsr2-rcr100-esr29,exr/ReadingArea_rsl2-rcl11-esl310-rsm2-rcm44-esm29-rsr2-rcr100-esr29.exr,ReadingArea_rsl2-rcl11-esl310-rsm2-rcm44-esm29-rsr2-rcr100-esr29.npz,,,,,0,181,181,398,,right,red,1.1,731.4138810634613,731.8161008358002,,3,,8,2,lightness,readingArea,realistic,75,2023-03-28_14h30.23.525,tripletExp_regina_11082022,2022.2.4,120.04819897820455,
12,6,8,2,0.027777777777778,3.10526315789474,2,0.027777777777778,1.0,2,0.25,1.0,ReadingArea_rsl2-rcl2-esl310-rsm2-rcm2-esm100-rsr2-rcr25-esr100,exr/ReadingArea_rsl2-rcl2-esl310-rsm2-rcm2-esm100-rsr2-rcr25-esr100.exr,ReadingArea_rsl2-rcl2-esl310-rsm2-rcm2-esm100-rsr2-rcr25-esr100.npz,,,,,0,182,182,540,,left,green,3.54,735.2818448543549,735.6738278865814,,3,,8,2,lightness,readingArea,realistic,75,2023-03-28_14h30.23.525,tripletExp_regina_11082022,2022.2.4,120.04819897820455,
6,1,14,2,0.027777777777778,1.0,2,0.111111111111111,0.298245614035088,2,0.25,3.10526315789474,ReadingArea_rsl2-rcl2-esl100-rsm2-rcm11-esm29-rsr2-rcr25-esr310,exr/ReadingArea_rsl2-rcl2-esl100-rsm2-rcm11-esm29-rsr2-rcr25-esr310.exr,ReadingArea_rsl2-rcl2-esl100-rsm2-rcm11-esm29-rsr2-rcr25-esr310.npz,,,,,0,183,183,381,,left,green,1.19,737.3705449104309,737.778000831604,,3,,8,2,lightness,readingArea,realistic,75,2023-03-28_14h30.23.525,tripletExp_regina_11082022,2022.2.4,120.04819897820455,
11,8,7,2,1.0,1.0,2,0.25,1.0,2,0.111111111111111,1.0,ReadingArea_rsl2-rcl100-esl100-rsm2-rcm25-esm100-rsr2-rcr11-esr100,exr/ReadingArea_rsl2-rcl100-esl100-rsm2-rcm25-esm100-rsr2-rcr11-esr100.exr,ReadingArea_rsl2-rcl100-esl100-rsm2-rcm25-esm100-rsr2-rcr11-esr100.npz,,,,,0,184,184,105,,right,red,1.26,739.4744329452515,739.9621210098267,,3,,8,2,lightness,readingArea,realistic,75,2023-03-28_14h30.23.525,tripletExp_regina_11082022,2022.2.4,120.04819897820455,
13,2,4,2,0.111111111111111,3.10526315789474,2,0.25,0.298245614035088,2,0.694444444444444,0.298245614035088,ReadingArea_rsl2-rcl11-esl310-rsm2-rcm25-esm29-rsr2-rcr69-esr29,exr/ReadingArea_rsl2-rcl11-esl310-rsm2-rcm25-esm29-rsr2-rcr69-esr29.exr,ReadingArea_rsl2-rcl11-esl310-rsm2-rcm25-esm29-rsr2-rcr69-esr29.npz,,,,,0,185,185,307,,right,red,0.98,741.654788017273,742.0369679927826,,3,,8,2,lightness,readingArea,realistic,75,2023-03-28_14h30.23.525,tripletExp_regina_11082022,2022.2.4,120.04819897820455,
6,0,14,2,0.027777777777778,1.0,2,0.027777777777778,0.298245614035088,2,0.25,3.10526315789474,ReadingArea_rsl2-rcl2-esl100-rsm2-rcm2-esm29-rsr2-rcr25-esr310,exr/ReadingArea_rsl2-rcl2-esl100-rsm2-rcm2-esm29-rsr2-rcr25-esr310.exr,ReadingArea_rsl2-rcl2-esl100-rsm2-rcm2-esm29-rsr2-rcr25-esr310.npz,,,,,0,186,186,169,,left,green,1.12,743.7401750087738,744.1468379497528,,3,,8,2,lightness,readingArea,realistic,75,2023-03-28_14h30.23.525,tripletExp_regina_11082022,2022.2.4,120.04819897820455,
9,3,14,2,0.444444444444444,1.0,2,0.444444444444444,0.298245614035088,2,0.25,3.10526315789474,ReadingArea_rsl2-rcl44-esl100-rsm2-rcm44-esm29-rsr2-rcr25-esr310,exr/ReadingArea_rsl2-rcl44-esl100-rsm2-rcm44-esm29-rsr2-rcr25-esr310.exr,ReadingArea_rsl2-rcl44-esl100-rsm2-rcm44-esm29-rsr2-rcr25-esr310.npz,,,,,0,187,187,17,,left,green,2.94,747.6543409824371,,,3,,8,2,lightness,readingArea,realistic,75,2023-03-28_14h30.23.525,tripletExp_regina_11082022,2022.2.4,120.04819897820455,
12,8,9,2,0.027777777777778,3.10526315789474,2,0.25,1.0,2,0.444444444444444,1.0,ReadingArea_rsl2-rcl2-esl310-rsm2-rcm25-esm100-rsr2-rcr44-esr100,exr/ReadingArea_rsl2-rcl2-esl310-rsm2-rcm25-esm100-rsr2-rcr44-esr100.exr,ReadingArea_rsl2-rcl2-esl310-rsm2-rcm25-esm100-rsr2-rcr44-esr100.npz,,,,,0,188,188,517,,right,red,1.09,749.8261768817902,750.245344877243,,3,,8,2,lightness,readingArea,realistic,75,2023-03-28_14h30.23.525,tripletExp_regina_11082022,2022.2.4,120.04819897820455,
3,10,4,2,0.444444444444444,0.298245614035088,2,0.694444444444444,1.0,2,0.694444444444444,0.298245614035088,ReadingArea_rsl2-rcl44-esl29-rsm2-rcm69-esm100-rsr2-rcr69-esr29,exr/ReadingArea_rsl2-rcl44-esl29-rsm2-rcm69-esm100-rsr2-rcr69-esr29.exr,ReadingArea_rsl2-rcl44-esl29-rsm2-rcm69-esm100-rsr2-rcr69-esr29.npz,,,,,0,189,189,435,,right,red,3.01,753.7377660274506,754.128674030304,,3,,8,2,lightness,readingArea,realistic,75,2023-03-28_14h30.23.525,tripletExp_regina_11082022,2022.2.4,120.04819897820455,
7,2,6,2,0.111111111111111,1.0,2,0.25,0.298245614035088,2,0.027777777777778,1.0,ReadingArea_rsl2-rcl11-esl100-rsm2-rcm25-esm29-rsr2-rcr2-esr100,exr/ReadingArea_rsl2-rcl11-esl100-rsm2-rcm25-esm29-rsr2-rcr2-esr100.exr,ReadingArea_rsl2-rcl11-esl100-rsm2-rcm25-esm29-rsr2-rcr2-esr100.npz,,,,,0,190,190,506,,left,green,0.79,755.8508260250092,756.249265909195,,3,,8,2,lightness,readingArea,realistic,75,2023-03-28_14h30.23.525,tripletExp_regina_11082022,2022.2.4,120.04819897820455,
14,5,10,2,0.25,3.10526315789474,2,1.0,0.298245614035088,2,0.694444444444444,1.0,ReadingArea_rsl2-rcl25-esl310-rsm2-rcm100-esm29-rsr2-rcr69-esr100,exr/ReadingArea_rsl2-rcl25-esl310-rsm2-rcm100-esm29-rsr2-rcr69-esr100.exr,ReadingArea_rsl2-rcl25-esl310-rsm2-rcm100-esm29-rsr2-rcr69-esr100.npz,,,,,0,191,191,170,,right,red,2.57,759.735533952713,760.1507298946381,,3,,8,2,lightness,readingArea,realistic,75,2023-03-28_14h30.23.525,tripletExp_regina_11082022,2022.2.4,120.04819897820455,
14,4,7,2,0.25,3.10526315789474,2,0.694444444444444,0.298245614035088,2,0.111111111111111,1.0,ReadingArea_rsl2-rcl25-esl310-rsm2-rcm69-esm29-rsr2-rcr11-esr100,exr/ReadingArea_rsl2-rcl25-esl310-rsm2-rcm69-esm29-rsr2-rcr11-esr100.exr,ReadingArea_rsl2-rcl25-esl310-rsm2-rcm69-esm29-rsr2-rcr11-esr100.npz,,,,,0,192,192,136,,right,red,0.79,761.8643350601196,762.2531158924103,,3,,8,2,lightness,readingArea,realistic,75,2023-03-28_14h30.23.525,tripletExp_regina_11082022,2022.2.4,120.04819897820455,
1,3,12,2,0.111111111111111,0.298245614035088,2,0.444444444444444,0.298245614035088,2,0.027777777777778,3.10526315789474,ReadingArea_rsl2-rcl11-esl29-rsm2-rcm44-esm29-rsr2-rcr2-esr310,exr/ReadingArea_rsl2-rcl11-esl29-rsm2-rcm44-esm29-rsr2-rcr2-esr310.exr,ReadingArea_rsl2-rcl11-esl29-rsm2-rcm44-esm29-rsr2-rcr2-esr310.npz,,,,,0,193,193,323,,right,red,2.73,765.7434568405151,766.1312758922577,,3,,8,2,lightness,readingArea,realistic,75,2023-03-28_14h30.23.525,tripletExp_regina_11082022,2022.2.4,120.04819897820455,
14,7,13,2,0.25,3.10526315789474,2,0.111111111111111,1.0,2,0.111111111111111,3.10526315789474,ReadingArea_rsl2-rcl25-esl310-rsm2-rcm11-esm100-rsr2-rcr11-esr310,exr/ReadingArea_rsl2-rcl25-esl310-rsm2-rcm11-esm100-rsr2-rcr11-esr310.exr,ReadingArea_rsl2-rcl25-esl310-rsm2-rcm11-esm100-rsr2-rcr11-esr310.npz,,,,,0,194,194,358,,right,red,1.15,767.8410880565643,,,3,,8,2,lightness,readingArea,realistic,75,2023-03-28_14h30.23.525,tripletExp_regina_11082022,2022.2.4,120.04819897820455,
10,11,0,2,0.694444444444444,1.0,2,1.0,1.0,2,0.027777777777778,0.298245614035088,ReadingArea_rsl2-rcl69-esl100-rsm2-rcm100-esm100-rsr2-rcr2-esr29,exr/ReadingArea_rsl2-rcl69-esl100-rsm2-rcm100-esm100-rsr2-rcr2-esr29.exr,ReadingArea_rsl2-rcl69-esl100-rsm2-rcm100-esm100-rsr2-rcr2-esr29.npz,,,,,0,195,195,58,,left,green,0.85,769.965283870697,770.3611090183258,,3,,8,2,lightness,readingArea,realistic,75,2023-03-28_14h30.23.525,tripletExp_regina_11082022,2022.2.4,120.04819897820455,
12,11,6,2,0.027777777777778,3.10526315789474,2,1.0,1.0,2,0.027777777777778,1.0,ReadingArea_rsl2-rcl2-esl310-rsm2-rcm100-esm100-rsr2-rcr2-esr100,exr/ReadingArea_rsl2-rcl2-esl310-rsm2-rcm100-esm100-rsr2-rcr2-esr100.exr,ReadingArea_rsl2-rcl2-esl310-rsm2-rcm100-esm100-rsr2-rcr2-esr100.npz,,,,,0,196,196,163,,left,green,2.61,773.8579709529877,,,3,,8,2,lightness,readingArea,realistic,75,2023-03-28_14h30.23.525,tripletExp_regina_11082022,2022.2.4,120.04819897820455,
2,9,8,2,0.25,0.298245614035088,2,0.444444444444444,1.0,2,0.25,1.0,ReadingArea_rsl2-rcl25-esl29-rsm2-rcm44-esm100-rsr2-rcr25-esr100,exr/ReadingArea_rsl2-rcl25-esl29-rsm2-rcm44-esm100-rsr2-rcr25-esr100.exr,ReadingArea_rsl2-rcl25-esl29-rsm2-rcm44-esm100-rsr2-rcr25-esr100.npz,,,,,0,197,197,407,,right,red,0.87,775.9729099273682,776.4575040340424,,3,,8,2,lightness,readingArea,realistic,75,2023-03-28_14h30.23.525,tripletExp_regina_11082022,2022.2.4,120.04819897820455,
6,0,4,2,0.027777777777778,1.0,2,0.027777777777778,0.298245614035088,2,0.694444444444444,0.298245614035088,ReadingArea_rsl2-rcl2-esl100-rsm2-rcm2-esm29-rsr2-rcr69-esr29,exr/ReadingArea_rsl2-rcl2-esl100-rsm2-rcm2-esm29-rsr2-rcr69-esr29.exr,ReadingArea_rsl2-rcl2-esl100-rsm2-rcm2-esm29-rsr2-rcr69-esr29.npz,,,,,0,198,198,555,,left,green,1.04,778.1550149917603,778.5601398944855,,3,,8,2,lightness,readingArea,realistic,75,2023-03-28_14h30.23.525,tripletExp_regina_11082022,2022.2.4,120.04819897820455,
4,13,2,2,0.694444444444444,0.298245614035088,2,0.111111111111111,3.10526315789474,2,0.25,0.298245614035088,ReadingArea_rsl2-rcl69-esl29-rsm2-rcm11-esm310-rsr2-rcr25-esr29,exr/ReadingArea_rsl2-rcl69-esl29-rsm2-rcm11-esm310-rsr2-rcr25-esr29.exr,ReadingArea_rsl2-rcl69-esl29-rsm2-rcm11-esm310-rsr2-rcr25-esr29.npz,,,,,0,199,199,592,,left,green,2.44,782.0246949195862,782.4180009365082,,3,,8,2,lightness,readingArea,realistic,75,2023-03-28_14h30.23.525,tripletExp_regina_11082022,2022.2.4,120.04819897820455,
3,8,1,2,0.444444444444444,0.298245614035088,2,0.25,1.0,2,0.111111111111111,0.298245614035088,ReadingArea_rsl2-rcl44-esl29-rsm2-rcm25-esm100-rsr2-rcr11-esr29,exr/ReadingArea_rsl2-rcl44-esl29-rsm2-rcm25-esm100-rsr2-rcr11-esr29.exr,ReadingArea_rsl2-rcl44-esl29-rsm2-rcm25-esm100-rsr2-rcr11-esr29.npz,,,,,0,200,200,230,,left,green,0.76,784.1375060081482,784.5426518917084,,3,,8,2,lightness,readingArea,realistic,75,2023-03-28_14h30.23.525,tripletExp_regina_11082022,2022.2.4,120.04819897820455,
10,3,1,2,0.694444444444444,1.0,2,0.444444444444444,0.298245614035088,2,0.111111111111111,0.298245614035088,ReadingArea_rsl2-rcl69-esl100-rsm2-rcm44-esm29-rsr2-rcr11-esr29,exr/ReadingArea_rsl2-rcl69-esl100-rsm2-rcm44-esm29-rsr2-rcr11-esr29.exr,ReadingArea_rsl2-rcl69-esl100-rsm2-rcm44-esm29-rsr2-rcr11-esr29.npz,,,,,0,201,201,420,,left,green,2.16,788.017767906189,788.4043500423431,,3,,8,2,lightness,readingArea,realistic,75,2023-03-28_14h30.23.525,tripletExp_regina_11082022,2022.2.4,120.04819897820455,
5,8,3,2,1.0,0.298245614035088,2,0.25,1.0,2,0.444444444444444,0.298245614035088,ReadingArea_rsl2-rcl100-esl29-rsm2-rcm25-esm100-rsr2-rcr44-esr29,exr/ReadingArea_rsl2-rcl100-esl29-rsm2-rcm25-esm100-rsr2-rcr44-esr29.exr,ReadingArea_rsl2-rcl100-esl29-rsm2-rcm25-esm100-rsr2-rcr44-esr29.npz,,,,,0,202,202,556,,right,red,1.3,790.1038060188293,790.5115599632263,,3,,8,2,lightness,readingArea,realistic,75,2023-03-28_14h30.23.525,tripletExp_regina_11082022,2022.2.4,120.04819897820455,
1,7,8,2,0.111111111111111,0.298245614035088,2,0.111111111111111,1.0,2,0.25,1.0,ReadingArea_rsl2-rcl11-esl29-rsm2-rcm11-esm100-rsr2-rcr25-esr100,exr/ReadingArea_rsl2-rcl11-esl29-rsm2-rcm11-esm100-rsr2-rcr25-esr100.exr,ReadingArea_rsl2-rcl11-esl29-rsm2-rcm11-esm100-rsr2-rcr25-esr100.npz,,,,,0,203,203,260,,right,red,1.26,792.22150182724,792.6185460090637,,3,,8,2,lightness,readingArea,realistic,75,2023-03-28_14h30.23.525,tripletExp_regina_11082022,2022.2.4,120.04819897820455,
