index_left,index_middle,index_right,reflectance_surround_left,reflectance_center_left,emission_spot_left,reflectance_surround_middle,reflectance_center_middle,emission_spot_middle,reflectance_surround_right,reflectance_center_right,emission_spot_right,ImageName,ImageExr,ImageNpy,trials_2.thisRepN,trials_2.thisTrialN,trials_2.thisN,trials_2.thisIndex,trials.thisRepN,trials.thisTrialN,trials.thisN,trials.thisIndex,sound_1.started,BB_Trial.resp,BB_Trial.color,BB_Trial.rt,text.started,text.stopped,sound_2.started,block,sound_4.started,participant,session,L/B,scene,condition,nTrialsPerBlock,date,expName,psychopyVersion,frameRate,Unnamed: 42
13,8,14,0,0.111111111111111,3.10526315789474,0,0.25,1.0,0,0.25,3.10526315789474,ReadingArea_rsl0-rcl11-esl310-rsm0-rcm25-esm100-rsr0-rcr25-esr310,exr/ReadingArea_rsl0-rcl11-esl310-rsm0-rcm25-esm100-rsr0-rcr25-esr310.exr,ReadingArea_rsl0-rcl11-esl310-rsm0-rcm25-esm100-rsr0-rcr25-esr310.npz,,,,,0,0,0,345,256.6323199510574,left,green,2.47,274.229749917984,274.817547082901,208.66522600650788,1,,4,7,lightness,readingArea,realistic,75,2023-03-27_09h59.33.997,tripletExp_regina_11082022,2022.2.4,120.03205201584286,
4,12,6,0,0.694444444444444,0.298245614035088,0,0.027777777777778,3.10526315789474,0,0.027777777777778,1.0,ReadingArea_rsl0-rcl69-esl29-rsm0-rcm2-esm310-rsr0-rcr2-esr100,exr/ReadingArea_rsl0-rcl69-esl29-rsm0-rcm2-esm310-rsr0-rcr2-esr100.exr,ReadingArea_rsl0-rcl69-esl29-rsm0-rcm2-esm310-rsr0-rcr2-esr100.npz,,,,,0,1,1,99,,right,red,4.68,280.1036970615387,290.00450706481934,,1,,4,7,lightness,readingArea,realistic,75,2023-03-27_09h59.33.997,tripletExp_regina_11082022,2022.2.4,120.03205201584286,
7,3,5,0,0.111111111111111,1.0,0,0.444444444444444,0.298245614035088,0,1.0,0.298245614035088,ReadingArea_rsl0-rcl11-esl100-rsm0-rcm44-esm29-rsr0-rcr100-esr29,exr/ReadingArea_rsl0-rcl11-esl100-rsm0-rcm44-esm29-rsr0-rcr100-esr29.exr,ReadingArea_rsl0-rcl11-esl100-rsm0-rcm44-esm29-rsr0-rcr100-esr29.npz,,,,,0,2,2,589,,left,green,2.26,293.4450740814209,293.9186909198761,,1,,4,7,lightness,readingArea,realistic,75,2023-03-27_09h59.33.997,tripletExp_regina_11082022,2022.2.4,120.03205201584286,
10,0,8,0,0.694444444444444,1.0,0,0.027777777777778,0.298245614035088,0,0.25,1.0,ReadingArea_rsl0-rcl69-esl100-rsm0-rcm2-esm29-rsr0-rcr25-esr100,exr/ReadingArea_rsl0-rcl69-esl100-rsm0-rcm2-esm29-rsr0-rcr25-esr100.exr,ReadingArea_rsl0-rcl69-esl100-rsm0-rcm2-esm29-rsr0-rcr25-esr100.npz,,,,,0,3,3,552,,right,red,2.21,297.427442073822,297.89086389541626,,1,,4,7,lightness,readingArea,realistic,75,2023-03-27_09h59.33.997,tripletExp_regina_11082022,2022.2.4,120.03205201584286,
2,10,6,0,0.25,0.298245614035088,0,0.694444444444444,1.0,0,0.027777777777778,1.0,ReadingArea_rsl0-rcl25-esl29-rsm0-rcm69-esm100-rsr0-rcr2-esr100,exr/ReadingArea_rsl0-rcl25-esl29-rsm0-rcm69-esm100-rsr0-rcr2-esr100.exr,ReadingArea_rsl0-rcl25-esl29-rsm0-rcm69-esm100-rsr0-rcr2-esr100.npz,,,,,0,4,4,4,,left,green,2.47,301.3641610145569,301.8390259742737,,1,,4,7,lightness,readingArea,realistic,75,2023-03-27_09h59.33.997,tripletExp_regina_11082022,2022.2.4,120.03205201584286,
2,12,6,0,0.25,0.298245614035088,0,0.027777777777778,3.10526315789474,0,0.027777777777778,1.0,ReadingArea_rsl0-rcl25-esl29-rsm0-rcm2-esm310-rsr0-rcr2-esr100,exr/ReadingArea_rsl0-rcl25-esl29-rsm0-rcm2-esm310-rsr0-rcr2-esr100.exr,ReadingArea_rsl0-rcl25-esl29-rsm0-rcm2-esm310-rsr0-rcr2-esr100.npz,,,,,0,5,5,400,,left,green,3.28,305.3295929431915,305.93585205078125,,1,,4,7,lightness,readingArea,realistic,75,2023-03-27_09h59.33.997,tripletExp_regina_11082022,2022.2.4,120.03205201584286,
5,13,12,0,1.0,0.298245614035088,0,0.111111111111111,3.10526315789474,0,0.027777777777778,3.10526315789474,ReadingArea_rsl0-rcl100-esl29-rsm0-rcm11-esm310-rsr0-rcr2-esr310,exr/ReadingArea_rsl0-rcl100-esl29-rsm0-rcm11-esm310-rsr0-rcr2-esr310.exr,ReadingArea_rsl0-rcl100-esl29-rsm0-rcm11-esm310-rsr0-rcr2-esr310.npz,,,,,0,6,6,389,,left,green,2.29,309.40214800834656,309.8523950576782,,1,,4,7,lightness,readingArea,realistic,75,2023-03-27_09h59.33.997,tripletExp_regina_11082022,2022.2.4,120.03205201584286,
11,5,4,0,1.0,1.0,0,1.0,0.298245614035088,0,0.694444444444444,0.298245614035088,ReadingArea_rsl0-rcl100-esl100-rsm0-rcm100-esm29-rsr0-rcr69-esr29,exr/ReadingArea_rsl0-rcl100-esl100-rsm0-rcm100-esm29-rsr0-rcr69-esr29.exr,ReadingArea_rsl0-rcl100-esl100-rsm0-rcm100-esm29-rsr0-rcr69-esr29.npz,,,,,0,7,7,564,,right,red,2.54,313.33546900749207,313.7905070781708,,1,,4,7,lightness,readingArea,realistic,75,2023-03-27_09h59.33.997,tripletExp_regina_11082022,2022.2.4,120.03205201584286,
8,12,4,0,0.25,1.0,0,0.027777777777778,3.10526315789474,0,0.694444444444444,0.298245614035088,ReadingArea_rsl0-rcl25-esl100-rsm0-rcm2-esm310-rsr0-rcr69-esr29,exr/ReadingArea_rsl0-rcl25-esl100-rsm0-rcm2-esm310-rsr0-rcr69-esr29.exr,ReadingArea_rsl0-rcl25-esl100-rsm0-rcm2-esm310-rsr0-rcr69-esr29.npz,,,,,0,8,8,30,,right,red,4.36,319.04722595214844,319.4922740459442,,1,,4,7,lightness,readingArea,realistic,75,2023-03-27_09h59.33.997,tripletExp_regina_11082022,2022.2.4,120.03205201584286,
2,6,10,0,0.25,0.298245614035088,0,0.027777777777778,1.0,0,0.694444444444444,1.0,ReadingArea_rsl0-rcl25-esl29-rsm0-rcm2-esm100-rsr0-rcr69-esr100,exr/ReadingArea_rsl0-rcl25-esl29-rsm0-rcm2-esm100-rsr0-rcr69-esr100.exr,ReadingArea_rsl0-rcl25-esl29-rsm0-rcm2-esm100-rsr0-rcr69-esr100.npz,,,,,0,9,9,42,,left,green,2.19,322.9371399879456,323.4039490222931,,1,,4,7,lightness,readingArea,realistic,75,2023-03-27_09h59.33.997,tripletExp_regina_11082022,2022.2.4,120.03205201584286,
0,5,6,0,0.027777777777778,0.298245614035088,0,1.0,0.298245614035088,0,0.027777777777778,1.0,ReadingArea_rsl0-rcl2-esl29-rsm0-rcm100-esm29-rsr0-rcr2-esr100,exr/ReadingArea_rsl0-rcl2-esl29-rsm0-rcm100-esm29-rsr0-rcr2-esr100.exr,ReadingArea_rsl0-rcl2-esl29-rsm0-rcm100-esm29-rsr0-rcr2-esr100.npz,,,,,0,10,10,374,,right,red,3.76,328.6137809753418,329.084655046463,,1,,4,7,lightness,readingArea,realistic,75,2023-03-27_09h59.33.997,tripletExp_regina_11082022,2022.2.4,120.03205201584286,
6,13,5,0,0.027777777777778,1.0,0,0.111111111111111,3.10526315789474,0,1.0,0.298245614035088,ReadingArea_rsl0-rcl2-esl100-rsm0-rcm11-esm310-rsr0-rcr100-esr29,exr/ReadingArea_rsl0-rcl2-esl100-rsm0-rcm11-esm310-rsr0-rcr100-esr29.exr,ReadingArea_rsl0-rcl2-esl100-rsm0-rcm11-esm310-rsr0-rcr100-esr29.npz,,,,,0,11,11,53,,right,red,2.07,332.541867017746,332.9996919631958,,1,,4,7,lightness,readingArea,realistic,75,2023-03-27_09h59.33.997,tripletExp_regina_11082022,2022.2.4,120.03205201584286,
6,11,3,0,0.027777777777778,1.0,0,1.0,1.0,0,0.444444444444444,0.298245614035088,ReadingArea_rsl0-rcl2-esl100-rsm0-rcm100-esm100-rsr0-rcr44-esr29,exr/ReadingArea_rsl0-rcl2-esl100-rsm0-rcm100-esm100-rsr0-rcr44-esr29.exr,ReadingArea_rsl0-rcl2-esl100-rsm0-rcm100-esm100-rsr0-rcr44-esr29.npz,,,,,0,12,12,11,,right,red,2.52,336.4664988517761,336.94247698783875,,1,,4,7,lightness,readingArea,realistic,75,2023-03-27_09h59.33.997,tripletExp_regina_11082022,2022.2.4,120.03205201584286,
6,0,1,0,0.027777777777778,1.0,0,0.027777777777778,0.298245614035088,0,0.111111111111111,0.298245614035088,ReadingArea_rsl0-rcl2-esl100-rsm0-rcm2-esm29-rsr0-rcr11-esr29,exr/ReadingArea_rsl0-rcl2-esl100-rsm0-rcm2-esm29-rsr0-rcr11-esr29.exr,ReadingArea_rsl0-rcl2-esl100-rsm0-rcm2-esm29-rsr0-rcr11-esr29.npz,,,,,0,13,13,302,,right,red,4.78,342.213504076004,342.6844589710236,,1,,4,7,lightness,readingArea,realistic,75,2023-03-27_09h59.33.997,tripletExp_regina_11082022,2022.2.4,120.03205201584286,
2,1,14,0,0.25,0.298245614035088,0,0.111111111111111,0.298245614035088,0,0.25,3.10526315789474,ReadingArea_rsl0-rcl25-esl29-rsm0-rcm11-esm29-rsr0-rcr25-esr310,exr/ReadingArea_rsl0-rcl25-esl29-rsm0-rcm11-esm29-rsr0-rcr25-esr310.exr,ReadingArea_rsl0-rcl25-esl29-rsm0-rcm11-esm29-rsr0-rcr25-esr310.npz,,,,,0,14,14,59,,left,green,2.68,346.1574330329895,346.6989820003509,,1,,4,7,lightness,readingArea,realistic,75,2023-03-27_09h59.33.997,tripletExp_regina_11082022,2022.2.4,120.03205201584286,
12,13,10,0,0.027777777777778,3.10526315789474,0,0.111111111111111,3.10526315789474,0,0.694444444444444,1.0,ReadingArea_rsl0-rcl2-esl310-rsm0-rcm11-esm310-rsr0-rcr69-esr100,exr/ReadingArea_rsl0-rcl2-esl310-rsm0-rcm11-esm310-rsr0-rcr69-esr100.exr,ReadingArea_rsl0-rcl2-esl310-rsm0-rcm11-esm310-rsr0-rcr69-esr100.npz,,,,,0,15,15,295,,right,red,3.0,350.17461800575256,350.6583938598633,,1,,4,7,lightness,readingArea,realistic,75,2023-03-27_09h59.33.997,tripletExp_regina_11082022,2022.2.4,120.03205201584286,
1,13,7,0,0.111111111111111,0.298245614035088,0,0.111111111111111,3.10526315789474,0,0.111111111111111,1.0,ReadingArea_rsl0-rcl11-esl29-rsm0-rcm11-esm310-rsr0-rcr11-esr100,exr/ReadingArea_rsl0-rcl11-esl29-rsm0-rcm11-esm310-rsr0-rcr11-esr100.exr,ReadingArea_rsl0-rcl11-esl29-rsm0-rcm11-esm310-rsr0-rcr11-esr100.npz,,,,,0,16,16,158,,right,red,2.96,354.13335394859314,354.5863790512085,,1,,4,7,lightness,readingArea,realistic,75,2023-03-27_09h59.33.997,tripletExp_regina_11082022,2022.2.4,120.03205201584286,
10,6,13,0,0.694444444444444,1.0,0,0.027777777777778,1.0,0,0.111111111111111,3.10526315789474,ReadingArea_rsl0-rcl69-esl100-rsm0-rcm2-esm100-rsr0-rcr11-esr310,exr/ReadingArea_rsl0-rcl69-esl100-rsm0-rcm2-esm100-rsr0-rcr11-esr310.exr,ReadingArea_rsl0-rcl69-esl100-rsm0-rcm2-esm100-rsr0-rcr11-esr310.npz,,,,,0,17,17,41,,right,red,2.5,358.0664019584656,358.5421688556671,,1,,4,7,lightness,readingArea,realistic,75,2023-03-27_09h59.33.997,tripletExp_regina_11082022,2022.2.4,120.03205201584286,
0,7,9,0,0.027777777777778,0.298245614035088,0,0.111111111111111,1.0,0,0.444444444444444,1.0,ReadingArea_rsl0-rcl2-esl29-rsm0-rcm11-esm100-rsr0-rcr44-esr100,exr/ReadingArea_rsl0-rcl2-esl29-rsm0-rcm11-esm100-rsr0-rcr44-esr100.exr,ReadingArea_rsl0-rcl2-esl29-rsm0-rcm11-esm100-rsr0-rcr44-esr100.npz,,,,,0,18,18,463,,right,red,3.5,361.99193501472473,362.4470369815826,,1,,4,7,lightness,readingArea,realistic,75,2023-03-27_09h59.33.997,tripletExp_regina_11082022,2022.2.4,120.03205201584286,
11,8,7,0,1.0,1.0,0,0.25,1.0,0,0.111111111111111,1.0,ReadingArea_rsl0-rcl100-esl100-rsm0-rcm25-esm100-rsr0-rcr11-esr100,exr/ReadingArea_rsl0-rcl100-esl100-rsm0-rcm25-esm100-rsr0-rcr11-esr100.exr,ReadingArea_rsl0-rcl100-esl100-rsm0-rcm25-esm100-rsr0-rcr11-esr100.npz,,,,,0,19,19,105,,right,red,2.21,365.9258298873901,366.3700940608978,,1,,4,7,lightness,readingArea,realistic,75,2023-03-27_09h59.33.997,tripletExp_regina_11082022,2022.2.4,120.03205201584286,
13,7,11,0,0.111111111111111,3.10526315789474,0,0.111111111111111,1.0,0,1.0,1.0,ReadingArea_rsl0-rcl11-esl310-rsm0-rcm11-esm100-rsr0-rcr100-esr100,exr/ReadingArea_rsl0-rcl11-esl310-rsm0-rcm11-esm100-rsr0-rcr100-esr100.exr,ReadingArea_rsl0-rcl11-esl310-rsm0-rcm11-esm100-rsr0-rcr100-esr100.npz,,,,,0,20,20,121,,left,green,2.32,369.8465008735657,370.3221130371094,,1,,4,7,lightness,readingArea,realistic,75,2023-03-27_09h59.33.997,tripletExp_regina_11082022,2022.2.4,120.03205201584286,
14,7,1,0,0.25,3.10526315789474,0,0.111111111111111,1.0,0,0.111111111111111,0.298245614035088,ReadingArea_rsl0-rcl25-esl310-rsm0-rcm11-esm100-rsr0-rcr11-esr29,exr/ReadingArea_rsl0-rcl25-esl310-rsm0-rcm11-esm100-rsr0-rcr11-esr29.exr,ReadingArea_rsl0-rcl25-esl310-rsm0-rcm11-esm100-rsr0-rcr11-esr29.npz,,,,,0,21,21,298,,right,red,2.58,373.785453081131,374.2476480007172,,1,,4,7,lightness,readingArea,realistic,75,2023-03-27_09h59.33.997,tripletExp_regina_11082022,2022.2.4,120.03205201584286,
8,6,5,0,0.25,1.0,0,0.027777777777778,1.0,0,1.0,0.298245614035088,ReadingArea_rsl0-rcl25-esl100-rsm0-rcm2-esm100-rsr0-rcr100-esr29,exr/ReadingArea_rsl0-rcl25-esl100-rsm0-rcm2-esm100-rsr0-rcr100-esr29.exr,ReadingArea_rsl0-rcl25-esl100-rsm0-rcm2-esm100-rsr0-rcr100-esr29.npz,,,,,0,22,22,241,,left,green,2.96,377.7140419483185,,,1,,4,7,lightness,readingArea,realistic,75,2023-03-27_09h59.33.997,tripletExp_regina_11082022,2022.2.4,120.03205201584286,
8,0,4,0,0.25,1.0,0,0.027777777777778,0.298245614035088,0,0.694444444444444,0.298245614035088,ReadingArea_rsl0-rcl25-esl100-rsm0-rcm2-esm29-rsr0-rcr69-esr29,exr/ReadingArea_rsl0-rcl25-esl100-rsm0-rcm2-esm29-rsr0-rcr69-esr29.exr,ReadingArea_rsl0-rcl25-esl100-rsm0-rcm2-esm29-rsr0-rcr69-esr29.npz,,,,,0,23,23,346,,right,red,2.86,381.6377398967743,382.14897108078,,1,,4,7,lightness,readingArea,realistic,75,2023-03-27_09h59.33.997,tripletExp_regina_11082022,2022.2.4,120.03205201584286,
8,12,13,0,0.25,1.0,0,0.027777777777778,3.10526315789474,0,0.111111111111111,3.10526315789474,ReadingArea_rsl0-rcl25-esl100-rsm0-rcm2-esm310-rsr0-rcr11-esr310,exr/ReadingArea_rsl0-rcl25-esl100-rsm0-rcm2-esm310-rsr0-rcr11-esr310.exr,ReadingArea_rsl0-rcl25-esl100-rsm0-rcm2-esm310-rsr0-rcr11-esr310.npz,,,,,0,24,24,275,,left,green,4.08,387.3803298473358,387.8470778465271,,1,,4,7,lightness,readingArea,realistic,75,2023-03-27_09h59.33.997,tripletExp_regina_11082022,2022.2.4,120.03205201584286,
12,3,10,0,0.027777777777778,3.10526315789474,0,0.444444444444444,0.298245614035088,0,0.694444444444444,1.0,ReadingArea_rsl0-rcl2-esl310-rsm0-rcm44-esm29-rsr0-rcr69-esr100,exr/ReadingArea_rsl0-rcl2-esl310-rsm0-rcm44-esm29-rsr0-rcr69-esr100.exr,ReadingArea_rsl0-rcl2-esl310-rsm0-rcm44-esm29-rsr0-rcr69-esr100.npz,,,,,0,25,25,437,,left,green,2.0,391.29021286964417,391.750305891037,,1,,4,7,lightness,readingArea,realistic,75,2023-03-27_09h59.33.997,tripletExp_regina_11082022,2022.2.4,120.03205201584286,
5,10,2,0,1.0,0.298245614035088,0,0.694444444444444,1.0,0,0.25,0.298245614035088,ReadingArea_rsl0-rcl100-esl29-rsm0-rcm69-esm100-rsr0-rcr25-esr29,exr/ReadingArea_rsl0-rcl100-esl29-rsm0-rcm69-esm100-rsr0-rcr25-esr29.exr,ReadingArea_rsl0-rcl100-esl29-rsm0-rcm69-esm100-rsr0-rcr25-esr29.npz,,,,,0,26,26,489,,left,green,2.41,395.21731400489807,395.68800497055054,,1,,4,7,lightness,readingArea,realistic,75,2023-03-27_09h59.33.997,tripletExp_regina_11082022,2022.2.4,120.03205201584286,
13,10,7,0,0.111111111111111,3.10526315789474,0,0.694444444444444,1.0,0,0.111111111111111,1.0,ReadingArea_rsl0-rcl11-esl310-rsm0-rcm69-esm100-rsr0-rcr11-esr100,exr/ReadingArea_rsl0-rcl11-esl310-rsm0-rcm69-esm100-rsr0-rcr11-esr100.exr,ReadingArea_rsl0-rcl11-esl310-rsm0-rcm69-esm100-rsr0-rcr11-esr100.npz,,,,,0,27,27,385,,left,green,2.96,399.1511518955231,399.6144909858704,,1,,4,7,lightness,readingArea,realistic,75,2023-03-27_09h59.33.997,tripletExp_regina_11082022,2022.2.4,120.03205201584286,
13,9,6,0,0.111111111111111,3.10526315789474,0,0.444444444444444,1.0,0,0.027777777777778,1.0,ReadingArea_rsl0-rcl11-esl310-rsm0-rcm44-esm100-rsr0-rcr2-esr100,exr/ReadingArea_rsl0-rcl11-esl310-rsm0-rcm44-esm100-rsr0-rcr2-esr100.exr,ReadingArea_rsl0-rcl11-esl310-rsm0-rcm44-esm100-rsr0-rcr2-esr100.npz,,,,,0,28,28,19,,left,green,2.26,403.0853369235992,403.5685570240021,,1,,4,7,lightness,readingArea,realistic,75,2023-03-27_09h59.33.997,tripletExp_regina_11082022,2022.2.4,120.03205201584286,
3,9,0,0,0.444444444444444,0.298245614035088,0,0.444444444444444,1.0,0,0.027777777777778,0.298245614035088,ReadingArea_rsl0-rcl44-esl29-rsm0-rcm44-esm100-rsr0-rcr2-esr29,exr/ReadingArea_rsl0-rcl44-esl29-rsm0-rcm44-esm100-rsr0-rcr2-esr29.exr,ReadingArea_rsl0-rcl44-esl29-rsm0-rcm44-esm100-rsr0-rcr2-esr29.npz,,,,,0,29,29,551,,left,green,2.19,407.04942297935486,407.7589900493622,,1,,4,7,lightness,readingArea,realistic,75,2023-03-27_09h59.33.997,tripletExp_regina_11082022,2022.2.4,120.03205201584286,
14,13,6,0,0.25,3.10526315789474,0,0.111111111111111,3.10526315789474,0,0.027777777777778,1.0,ReadingArea_rsl0-rcl25-esl310-rsm0-rcm11-esm310-rsr0-rcr2-esr100,exr/ReadingArea_rsl0-rcl25-esl310-rsm0-rcm11-esm310-rsr0-rcr2-esr100.exr,ReadingArea_rsl0-rcl25-esl310-rsm0-rcm11-esm310-rsr0-rcr2-esr100.npz,,,,,0,30,30,102,,right,red,4.09,413.0078508853912,413.4806180000305,,1,,4,7,lightness,readingArea,realistic,75,2023-03-27_09h59.33.997,tripletExp_regina_11082022,2022.2.4,120.03205201584286,
14,4,7,0,0.25,3.10526315789474,0,0.694444444444444,0.298245614035088,0,0.111111111111111,1.0,ReadingArea_rsl0-rcl25-esl310-rsm0-rcm69-esm29-rsr0-rcr11-esr100,exr/ReadingArea_rsl0-rcl25-esl310-rsm0-rcm69-esm29-rsr0-rcr11-esr100.exr,ReadingArea_rsl0-rcl25-esl310-rsm0-rcm69-esm29-rsr0-rcr11-esr100.npz,,,,,0,31,31,136,,right,red,2.47,416.9522888660431,417.42114090919495,,1,,4,7,lightness,readingArea,realistic,75,2023-03-27_09h59.33.997,tripletExp_regina_11082022,2022.2.4,120.03205201584286,
3,2,8,0,0.444444444444444,0.298245614035088,0,0.25,0.298245614035088,0,0.25,1.0,ReadingArea_rsl0-rcl44-esl29-rsm0-rcm25-esm29-rsr0-rcr25-esr100,exr/ReadingArea_rsl0-rcl44-esl29-rsm0-rcm25-esm29-rsr0-rcr25-esr100.exr,ReadingArea_rsl0-rcl44-esl29-rsm0-rcm25-esm29-rsr0-rcr25-esr100.npz,,,,,0,32,32,181,,left,green,4.0,422.6610360145569,423.2735209465027,,1,,4,7,lightness,readingArea,realistic,75,2023-03-27_09h59.33.997,tripletExp_regina_11082022,2022.2.4,120.03205201584286,
5,3,0,0,1.0,0.298245614035088,0,0.444444444444444,0.298245614035088,0,0.027777777777778,0.298245614035088,ReadingArea_rsl0-rcl100-esl29-rsm0-rcm44-esm29-rsr0-rcr2-esr29,exr/ReadingArea_rsl0-rcl100-esl29-rsm0-rcm44-esm29-rsr0-rcr2-esr29.exr,ReadingArea_rsl0-rcl100-esl29-rsm0-rcm44-esm29-rsr0-rcr2-esr29.npz,,,,,0,33,33,303,,right,red,4.46,428.5039780139923,428.95995688438416,,1,,4,7,lightness,readingArea,realistic,75,2023-03-27_09h59.33.997,tripletExp_regina_11082022,2022.2.4,120.03205201584286,
5,9,12,0,1.0,0.298245614035088,0,0.444444444444444,1.0,0,0.027777777777778,3.10526315789474,ReadingArea_rsl0-rcl100-esl29-rsm0-rcm44-esm100-rsr0-rcr2-esr310,exr/ReadingArea_rsl0-rcl100-esl29-rsm0-rcm44-esm100-rsr0-rcr2-esr310.exr,ReadingArea_rsl0-rcl100-esl29-rsm0-rcm44-esm100-rsr0-rcr2-esr310.npz,,,,,0,34,34,539,,left,green,2.52,432.4049389362335,432.8772258758545,,1,,4,7,lightness,readingArea,realistic,75,2023-03-27_09h59.33.997,tripletExp_regina_11082022,2022.2.4,120.03205201584286,
10,14,13,0,0.694444444444444,1.0,0,0.25,3.10526315789474,0,0.111111111111111,3.10526315789474,ReadingArea_rsl0-rcl69-esl100-rsm0-rcm25-esm310-rsr0-rcr11-esr310,exr/ReadingArea_rsl0-rcl69-esl100-rsm0-rcm25-esm310-rsr0-rcr11-esr310.exr,ReadingArea_rsl0-rcl69-esl100-rsm0-rcm25-esm310-rsr0-rcr11-esr310.npz,,,,,0,35,35,168,,left,green,2.53,436.3472008705139,436.7996418476105,,1,,4,7,lightness,readingArea,realistic,75,2023-03-27_09h59.33.997,tripletExp_regina_11082022,2022.2.4,120.03205201584286,
10,3,0,0,0.694444444444444,1.0,0,0.444444444444444,0.298245614035088,0,0.027777777777778,0.298245614035088,ReadingArea_rsl0-rcl69-esl100-rsm0-rcm44-esm29-rsr0-rcr2-esr29,exr/ReadingArea_rsl0-rcl69-esl100-rsm0-rcm44-esm29-rsr0-rcr2-esr29.exr,ReadingArea_rsl0-rcl69-esl100-rsm0-rcm44-esm29-rsr0-rcr2-esr29.npz,,,,,0,36,36,203,,right,red,4.6,442.0627419948578,442.51710200309753,,1,,4,7,lightness,readingArea,realistic,75,2023-03-27_09h59.33.997,tripletExp_regina_11082022,2022.2.4,120.03205201584286,
11,7,8,0,1.0,1.0,0,0.111111111111111,1.0,0,0.25,1.0,ReadingArea_rsl0-rcl100-esl100-rsm0-rcm11-esm100-rsr0-rcr25-esr100,exr/ReadingArea_rsl0-rcl100-esl100-rsm0-rcm11-esm100-rsr0-rcr25-esr100.exr,ReadingArea_rsl0-rcl100-esl100-rsm0-rcm11-esm100-rsr0-rcr25-esr100.npz,,,,,0,37,37,37,,right,red,2.45,446.01851987838745,446.4976489543915,,1,,4,7,lightness,readingArea,realistic,75,2023-03-27_09h59.33.997,tripletExp_regina_11082022,2022.2.4,120.03205201584286,
7,13,4,0,0.111111111111111,1.0,0,0.111111111111111,3.10526315789474,0,0.694444444444444,0.298245614035088,ReadingArea_rsl0-rcl11-esl100-rsm0-rcm11-esm310-rsr0-rcr69-esr29,exr/ReadingArea_rsl0-rcl11-esl100-rsm0-rcm11-esm310-rsr0-rcr69-esr29.exr,ReadingArea_rsl0-rcl11-esl100-rsm0-rcm11-esm310-rsr0-rcr69-esr29.npz,,,,,0,38,38,456,,right,red,3.91,451.7600200176239,452.2222318649292,,1,,4,7,lightness,readingArea,realistic,75,2023-03-27_09h59.33.997,tripletExp_regina_11082022,2022.2.4,120.03205201584286,
9,0,11,0,0.444444444444444,1.0,0,0.027777777777778,0.298245614035088,0,1.0,1.0,ReadingArea_rsl0-rcl44-esl100-rsm0-rcm2-esm29-rsr0-rcr100-esr100,exr/ReadingArea_rsl0-rcl44-esl100-rsm0-rcm2-esm29-rsr0-rcr100-esr100.exr,ReadingArea_rsl0-rcl44-esl100-rsm0-rcm2-esm29-rsr0-rcr100-esr100.npz,,,,,0,39,39,319,,left,green,2.36,455.7047109603882,456.1696820259094,,1,,4,7,lightness,readingArea,realistic,75,2023-03-27_09h59.33.997,tripletExp_regina_11082022,2022.2.4,120.03205201584286,
7,3,0,0,0.111111111111111,1.0,0,0.444444444444444,0.298245614035088,0,0.027777777777778,0.298245614035088,ReadingArea_rsl0-rcl11-esl100-rsm0-rcm44-esm29-rsr0-rcr2-esr29,exr/ReadingArea_rsl0-rcl11-esl100-rsm0-rcm44-esm29-rsr0-rcr2-esr29.exr,ReadingArea_rsl0-rcl11-esl100-rsm0-rcm44-esm29-rsr0-rcr2-esr29.npz,,,,,0,40,40,318,,right,red,4.47,461.4257249832153,461.8816249370575,,1,,4,7,lightness,readingArea,realistic,75,2023-03-27_09h59.33.997,tripletExp_regina_11082022,2022.2.4,120.03205201584286,
6,0,4,0,0.027777777777778,1.0,0,0.027777777777778,0.298245614035088,0,0.694444444444444,0.298245614035088,ReadingArea_rsl0-rcl2-esl100-rsm0-rcm2-esm29-rsr0-rcr69-esr29,exr/ReadingArea_rsl0-rcl2-esl100-rsm0-rcm2-esm29-rsr0-rcr69-esr29.exr,ReadingArea_rsl0-rcl2-esl100-rsm0-rcm2-esm29-rsr0-rcr69-esr29.npz,,,,,0,41,41,555,,left,green,2.72,465.35271096229553,,,1,,4,7,lightness,readingArea,realistic,75,2023-03-27_09h59.33.997,tripletExp_regina_11082022,2022.2.4,120.03205201584286,
3,6,11,0,0.444444444444444,0.298245614035088,0,0.027777777777778,1.0,0,1.0,1.0,ReadingArea_rsl0-rcl44-esl29-rsm0-rcm2-esm100-rsr0-rcr100-esr100,exr/ReadingArea_rsl0-rcl44-esl29-rsm0-rcm2-esm100-rsr0-rcr100-esr100.exr,ReadingArea_rsl0-rcl44-esl29-rsm0-rcm2-esm100-rsr0-rcr100-esr100.npz,,,,,0,42,42,155,,left,green,3.01,469.3189299106598,469.7685558795929,,1,,4,7,lightness,readingArea,realistic,75,2023-03-27_09h59.33.997,tripletExp_regina_11082022,2022.2.4,120.03205201584286,
4,7,5,0,0.694444444444444,0.298245614035088,0,0.111111111111111,1.0,0,1.0,0.298245614035088,ReadingArea_rsl0-rcl69-esl29-rsm0-rcm11-esm100-rsr0-rcr100-esr29,exr/ReadingArea_rsl0-rcl69-esl29-rsm0-rcm11-esm100-rsr0-rcr100-esr29.exr,ReadingArea_rsl0-rcl69-esl29-rsm0-rcm11-esm100-rsr0-rcr100-esr29.npz,,,,,0,43,43,195,,left,green,2.27,473.2352318763733,473.6832010746002,,1,,4,7,lightness,readingArea,realistic,75,2023-03-27_09h59.33.997,tripletExp_regina_11082022,2022.2.4,120.03205201584286,
12,6,7,0,0.027777777777778,3.10526315789474,0,0.027777777777778,1.0,0,0.111111111111111,1.0,ReadingArea_rsl0-rcl2-esl310-rsm0-rcm2-esm100-rsr0-rcr11-esr100,exr/ReadingArea_rsl0-rcl2-esl310-rsm0-rcm2-esm100-rsr0-rcr11-esr100.exr,ReadingArea_rsl0-rcl2-esl310-rsm0-rcm2-esm100-rsr0-rcr11-esr100.npz,,,,,0,44,44,308,,left,green,4.14,478.9387309551239,479.4118580818176,,1,,4,7,lightness,readingArea,realistic,75,2023-03-27_09h59.33.997,tripletExp_regina_11082022,2022.2.4,120.03205201584286,
3,7,9,0,0.444444444444444,0.298245614035088,0,0.111111111111111,1.0,0,0.444444444444444,1.0,ReadingArea_rsl0-rcl44-esl29-rsm0-rcm11-esm100-rsr0-rcr44-esr100,exr/ReadingArea_rsl0-rcl44-esl29-rsm0-rcm11-esm100-rsr0-rcr44-esr100.exr,ReadingArea_rsl0-rcl44-esl29-rsm0-rcm11-esm100-rsr0-rcr44-esr100.npz,,,,,0,45,45,382,,left,green,2.46,482.8819959163666,483.3292379379273,,1,,4,7,lightness,readingArea,realistic,75,2023-03-27_09h59.33.997,tripletExp_regina_11082022,2022.2.4,120.03205201584286,
9,7,10,0,0.444444444444444,1.0,0,0.111111111111111,1.0,0,0.694444444444444,1.0,ReadingArea_rsl0-rcl44-esl100-rsm0-rcm11-esm100-rsr0-rcr69-esr100,exr/ReadingArea_rsl0-rcl44-esl100-rsm0-rcm11-esm100-rsr0-rcr69-esr100.exr,ReadingArea_rsl0-rcl44-esl100-rsm0-rcm11-esm100-rsr0-rcr69-esr100.npz,,,,,0,46,46,508,,left,green,2.24,486.7747509479522,487.2518410682678,,1,,4,7,lightness,readingArea,realistic,75,2023-03-27_09h59.33.997,tripletExp_regina_11082022,2022.2.4,120.03205201584286,
9,13,0,0,0.444444444444444,1.0,0,0.111111111111111,3.10526315789474,0,0.027777777777778,0.298245614035088,ReadingArea_rsl0-rcl44-esl100-rsm0-rcm11-esm310-rsr0-rcr2-esr29,exr/ReadingArea_rsl0-rcl44-esl100-rsm0-rcm11-esm310-rsr0-rcr2-esr29.exr,ReadingArea_rsl0-rcl44-esl100-rsm0-rcm11-esm310-rsr0-rcr2-esr29.npz,,,,,0,47,47,205,,,green,2.24,492.5319218635559,493.0766999721527,,1,492.0869169473648,4,7,lightness,readingArea,realistic,75,2023-03-27_09h59.33.997,tripletExp_regina_11082022,2022.2.4,120.03205201584286,
1,14,6,0,0.111111111111111,0.298245614035088,0,0.25,3.10526315789474,0,0.027777777777778,1.0,ReadingArea_rsl0-rcl11-esl29-rsm0-rcm25-esm310-rsr0-rcr2-esr100,exr/ReadingArea_rsl0-rcl11-esl29-rsm0-rcm25-esm310-rsr0-rcr2-esr100.exr,ReadingArea_rsl0-rcl11-esl29-rsm0-rcm25-esm310-rsr0-rcr2-esr100.npz,,,,,0,48,48,475,,left,green,4.0,498.3171439170837,498.7795460224152,,1,,4,7,lightness,readingArea,realistic,75,2023-03-27_09h59.33.997,tripletExp_regina_11082022,2022.2.4,120.03205201584286,
14,3,6,0,0.25,3.10526315789474,0,0.444444444444444,0.298245614035088,0,0.027777777777778,1.0,ReadingArea_rsl0-rcl25-esl310-rsm0-rcm44-esm29-rsr0-rcr2-esr100,exr/ReadingArea_rsl0-rcl25-esl310-rsm0-rcm44-esm29-rsr0-rcr2-esr100.exr,ReadingArea_rsl0-rcl25-esl310-rsm0-rcm44-esm29-rsr0-rcr2-esr100.npz,,,,,0,49,49,244,,right,red,2.11,502.25941801071167,502.7195839881897,,1,,4,7,lightness,readingArea,realistic,75,2023-03-27_09h59.33.997,tripletExp_regina_11082022,2022.2.4,120.03205201584286,
4,6,3,0,0.694444444444444,0.298245614035088,0,0.027777777777778,1.0,0,0.444444444444444,0.298245614035088,ReadingArea_rsl0-rcl69-esl29-rsm0-rcm2-esm100-rsr0-rcr44-esr29,exr/ReadingArea_rsl0-rcl69-esl29-rsm0-rcm2-esm100-rsr0-rcr44-esr29.exr,ReadingArea_rsl0-rcl69-esl29-rsm0-rcm2-esm100-rsr0-rcr44-esr29.npz,,,,,0,50,50,344,,left,green,3.77,507.9685258865357,508.4391670227051,,1,,4,7,lightness,readingArea,realistic,75,2023-03-27_09h59.33.997,tripletExp_regina_11082022,2022.2.4,120.03205201584286,
10,8,1,0,0.694444444444444,1.0,0,0.25,1.0,0,0.111111111111111,0.298245614035088,ReadingArea_rsl0-rcl69-esl100-rsm0-rcm25-esm100-rsr0-rcr11-esr29,exr/ReadingArea_rsl0-rcl69-esl100-rsm0-rcm25-esm100-rsr0-rcr11-esr29.exr,ReadingArea_rsl0-rcl69-esl100-rsm0-rcm25-esm100-rsr0-rcr11-esr29.npz,,,,,0,51,51,247,,right,red,2.38,511.9114768505096,512.3535990715027,,1,,4,7,lightness,readingArea,realistic,75,2023-03-27_09h59.33.997,tripletExp_regina_11082022,2022.2.4,120.03205201584286,
4,10,6,0,0.694444444444444,0.298245614035088,0,0.694444444444444,1.0,0,0.027777777777778,1.0,ReadingArea_rsl0-rcl69-esl29-rsm0-rcm69-esm100-rsr0-rcr2-esr100,exr/ReadingArea_rsl0-rcl69-esl29-rsm0-rcm69-esm100-rsr0-rcr2-esr100.exr,ReadingArea_rsl0-rcl69-esl29-rsm0-rcm69-esm100-rsr0-rcr2-esr100.npz,,,,,0,52,52,468,,left,green,2.42,515.8349678516388,516.30002784729,,1,,4,7,lightness,readingArea,realistic,75,2023-03-27_09h59.33.997,tripletExp_regina_11082022,2022.2.4,120.03205201584286,
14,11,3,0,0.25,3.10526315789474,0,1.0,1.0,0,0.444444444444444,0.298245614035088,ReadingArea_rsl0-rcl25-esl310-rsm0-rcm100-esm100-rsr0-rcr44-esr29,exr/ReadingArea_rsl0-rcl25-esl310-rsm0-rcm100-esm100-rsr0-rcr44-esr29.exr,ReadingArea_rsl0-rcl25-esl310-rsm0-rcm100-esm100-rsr0-rcr44-esr29.npz,,,,,0,53,53,78,,left,green,1.84,519.7537679672241,520.2294149398804,,1,,4,7,lightness,readingArea,realistic,75,2023-03-27_09h59.33.997,tripletExp_regina_11082022,2022.2.4,120.03205201584286,
1,10,11,0,0.111111111111111,0.298245614035088,0,0.694444444444444,1.0,0,1.0,1.0,ReadingArea_rsl0-rcl11-esl29-rsm0-rcm69-esm100-rsr0-rcr100-esr100,exr/ReadingArea_rsl0-rcl11-esl29-rsm0-rcm69-esm100-rsr0-rcr100-esr100.exr,ReadingArea_rsl0-rcl11-esl29-rsm0-rcm69-esm100-rsr0-rcr100-esr100.npz,,,,,0,54,54,483,,right,red,4.53,525.4973599910736,525.9906878471375,,1,,4,7,lightness,readingArea,realistic,75,2023-03-27_09h59.33.997,tripletExp_regina_11082022,2022.2.4,120.03205201584286,
3,4,11,0,0.444444444444444,0.298245614035088,0,0.694444444444444,0.298245614035088,0,1.0,1.0,ReadingArea_rsl0-rcl44-esl29-rsm0-rcm69-esm29-rsr0-rcr100-esr100,exr/ReadingArea_rsl0-rcl44-esl29-rsm0-rcm69-esm29-rsr0-rcr100-esr100.exr,ReadingArea_rsl0-rcl44-esl29-rsm0-rcm69-esm29-rsr0-rcr100-esr100.npz,,,,,0,55,55,207,,left,green,2.38,529.456906080246,529.930212020874,,1,,4,7,lightness,readingArea,realistic,75,2023-03-27_09h59.33.997,tripletExp_regina_11082022,2022.2.4,120.03205201584286,
10,4,13,0,0.694444444444444,1.0,0,0.694444444444444,0.298245614035088,0,0.111111111111111,3.10526315789474,ReadingArea_rsl0-rcl69-esl100-rsm0-rcm69-esm29-rsr0-rcr11-esr310,exr/ReadingArea_rsl0-rcl69-esl100-rsm0-rcm69-esm29-rsr0-rcr11-esr310.exr,ReadingArea_rsl0-rcl69-esl100-rsm0-rcm69-esm29-rsr0-rcr11-esr310.npz,,,,,0,56,56,24,,right,red,2.19,533.3784039020538,533.8352270126343,,1,,4,7,lightness,readingArea,realistic,75,2023-03-27_09h59.33.997,tripletExp_regina_11082022,2022.2.4,120.03205201584286,
5,2,8,0,1.0,0.298245614035088,0,0.25,0.298245614035088,0,0.25,1.0,ReadingArea_rsl0-rcl100-esl29-rsm0-rcm25-esm29-rsr0-rcr25-esr100,exr/ReadingArea_rsl0-rcl100-esl29-rsm0-rcm25-esm29-rsr0-rcr25-esr100.exr,ReadingArea_rsl0-rcl100-esl29-rsm0-rcm25-esm29-rsr0-rcr25-esr100.npz,,,,,0,57,57,538,,right,red,2.16,537.3353400230408,537.7785470485687,,1,,4,7,lightness,readingArea,realistic,75,2023-03-27_09h59.33.997,tripletExp_regina_11082022,2022.2.4,120.03205201584286,
0,10,12,0,0.027777777777778,0.298245614035088,0,0.694444444444444,1.0,0,0.027777777777778,3.10526315789474,ReadingArea_rsl0-rcl2-esl29-rsm0-rcm69-esm100-rsr0-rcr2-esr310,exr/ReadingArea_rsl0-rcl2-esl29-rsm0-rcm69-esm100-rsr0-rcr2-esr310.exr,ReadingArea_rsl0-rcl2-esl29-rsm0-rcm69-esm100-rsr0-rcr2-esr310.npz,,,,,0,58,58,531,,right,red,3.02,541.2667820453644,541.7487659454346,,1,,4,7,lightness,readingArea,realistic,75,2023-03-27_09h59.33.997,tripletExp_regina_11082022,2022.2.4,120.03205201584286,
10,14,4,0,0.694444444444444,1.0,0,0.25,3.10526315789474,0,0.694444444444444,0.298245614035088,ReadingArea_rsl0-rcl69-esl100-rsm0-rcm25-esm310-rsr0-rcr69-esr29,exr/ReadingArea_rsl0-rcl69-esl100-rsm0-rcm25-esm310-rsr0-rcr69-esr29.exr,ReadingArea_rsl0-rcl69-esl100-rsm0-rcm25-esm310-rsr0-rcr69-esr29.npz,,,,,0,59,59,267,,right,red,2.2,545.2131130695343,545.7584369182587,,1,,4,7,lightness,readingArea,realistic,75,2023-03-27_09h59.33.997,tripletExp_regina_11082022,2022.2.4,120.03205201584286,
5,1,4,0,1.0,0.298245614035088,0,0.111111111111111,0.298245614035088,0,0.694444444444444,0.298245614035088,ReadingArea_rsl0-rcl100-esl29-rsm0-rcm11-esm29-rsr0-rcr69-esr29,exr/ReadingArea_rsl0-rcl100-esl29-rsm0-rcm11-esm29-rsr0-rcr69-esr29.exr,ReadingArea_rsl0-rcl100-esl29-rsm0-rcm11-esm29-rsr0-rcr69-esr29.npz,,,,,0,60,60,287,,right,red,2.99,549.2187099456787,549.7134020328522,,1,,4,7,lightness,readingArea,realistic,75,2023-03-27_09h59.33.997,tripletExp_regina_11082022,2022.2.4,120.03205201584286,
13,6,1,0,0.111111111111111,3.10526315789474,0,0.027777777777778,1.0,0,0.111111111111111,0.298245614035088,ReadingArea_rsl0-rcl11-esl310-rsm0-rcm2-esm100-rsr0-rcr11-esr29,exr/ReadingArea_rsl0-rcl11-esl310-rsm0-rcm2-esm100-rsr0-rcr11-esr29.exr,ReadingArea_rsl0-rcl11-esl310-rsm0-rcm2-esm100-rsr0-rcr11-esr29.npz,,,,,0,61,61,486,,right,red,2.58,553.1907379627228,553.6611249446869,,1,,4,7,lightness,readingArea,realistic,75,2023-03-27_09h59.33.997,tripletExp_regina_11082022,2022.2.4,120.03205201584286,
10,6,3,0,0.694444444444444,1.0,0,0.027777777777778,1.0,0,0.444444444444444,0.298245614035088,ReadingArea_rsl0-rcl69-esl100-rsm0-rcm2-esm100-rsr0-rcr44-esr29,exr/ReadingArea_rsl0-rcl69-esl100-rsm0-rcm2-esm100-rsr0-rcr44-esr29.exr,ReadingArea_rsl0-rcl69-esl100-rsm0-rcm2-esm100-rsr0-rcr44-esr29.npz,,,,,0,62,62,0,,right,red,2.84,557.1353249549866,557.61580991745,,1,,4,7,lightness,readingArea,realistic,75,2023-03-27_09h59.33.997,tripletExp_regina_11082022,2022.2.4,120.03205201584286,
14,0,5,0,0.25,3.10526315789474,0,0.027777777777778,0.298245614035088,0,1.0,0.298245614035088,ReadingArea_rsl0-rcl25-esl310-rsm0-rcm2-esm29-rsr0-rcr100-esr29,exr/ReadingArea_rsl0-rcl25-esl310-rsm0-rcm2-esm29-rsr0-rcr100-esr29.exr,ReadingArea_rsl0-rcl25-esl310-rsm0-rcm2-esm29-rsr0-rcr100-esr29.npz,,,,,0,63,63,418,,right,red,2.22,561.0763959884644,561.5844180583954,,1,,4,7,lightness,readingArea,realistic,75,2023-03-27_09h59.33.997,tripletExp_regina_11082022,2022.2.4,120.03205201584286,
3,12,4,0,0.444444444444444,0.298245614035088,0,0.027777777777778,3.10526315789474,0,0.694444444444444,0.298245614035088,ReadingArea_rsl0-rcl44-esl29-rsm0-rcm2-esm310-rsr0-rcr69-esr29,exr/ReadingArea_rsl0-rcl44-esl29-rsm0-rcm2-esm310-rsr0-rcr69-esr29.exr,ReadingArea_rsl0-rcl44-esl29-rsm0-rcm2-esm310-rsr0-rcr69-esr29.npz,,,,,0,64,64,426,,left,green,2.51,565.0609910488129,565.5278398990631,,1,,4,7,lightness,readingArea,realistic,75,2023-03-27_09h59.33.997,tripletExp_regina_11082022,2022.2.4,120.03205201584286,
2,1,13,0,0.25,0.298245614035088,0,0.111111111111111,0.298245614035088,0,0.111111111111111,3.10526315789474,ReadingArea_rsl0-rcl25-esl29-rsm0-rcm11-esm29-rsr0-rcr11-esr310,exr/ReadingArea_rsl0-rcl25-esl29-rsm0-rcm11-esm29-rsr0-rcr11-esr310.exr,ReadingArea_rsl0-rcl25-esl29-rsm0-rcm11-esm29-rsr0-rcr11-esr310.npz,,,,,0,65,65,290,,left,green,2.12,569.012825012207,569.4751389026642,,1,,4,7,lightness,readingArea,realistic,75,2023-03-27_09h59.33.997,tripletExp_regina_11082022,2022.2.4,120.03205201584286,
12,3,0,0,0.027777777777778,3.10526315789474,0,0.444444444444444,0.298245614035088,0,0.027777777777778,0.298245614035088,ReadingArea_rsl0-rcl2-esl310-rsm0-rcm44-esm29-rsr0-rcr2-esr29,exr/ReadingArea_rsl0-rcl2-esl310-rsm0-rcm44-esm29-rsr0-rcr2-esr29.exr,ReadingArea_rsl0-rcl2-esl310-rsm0-rcm44-esm29-rsr0-rcr2-esr29.npz,,,,,0,66,66,502,,left,green,2.39,572.9510340690613,573.4095990657806,,1,,4,7,lightness,readingArea,realistic,75,2023-03-27_09h59.33.997,tripletExp_regina_11082022,2022.2.4,120.03205201584286,
4,8,11,0,0.694444444444444,0.298245614035088,0,0.25,1.0,0,1.0,1.0,ReadingArea_rsl0-rcl69-esl29-rsm0-rcm25-esm100-rsr0-rcr100-esr100,exr/ReadingArea_rsl0-rcl69-esl29-rsm0-rcm25-esm100-rsr0-rcr100-esr100.exr,ReadingArea_rsl0-rcl69-esl29-rsm0-rcm25-esm100-rsr0-rcr100-esr100.npz,,,,,0,67,67,403,,left,green,2.82,576.8834869861603,577.3434529304504,,1,,4,7,lightness,readingArea,realistic,75,2023-03-27_09h59.33.997,tripletExp_regina_11082022,2022.2.4,120.03205201584286,
14,0,6,0,0.25,3.10526315789474,0,0.027777777777778,0.298245614035088,0,0.027777777777778,1.0,ReadingArea_rsl0-rcl25-esl310-rsm0-rcm2-esm29-rsr0-rcr2-esr100,exr/ReadingArea_rsl0-rcl25-esl310-rsm0-rcm2-esm29-rsr0-rcr2-esr100.exr,ReadingArea_rsl0-rcl25-esl310-rsm0-rcm2-esm29-rsr0-rcr2-esr100.npz,,,,,0,68,68,496,,right,red,2.12,580.8223969936371,581.3039779663086,,1,,4,7,lightness,readingArea,realistic,75,2023-03-27_09h59.33.997,tripletExp_regina_11082022,2022.2.4,120.03205201584286,
3,7,0,0,0.444444444444444,0.298245614035088,0,0.111111111111111,1.0,0,0.027777777777778,0.298245614035088,ReadingArea_rsl0-rcl44-esl29-rsm0-rcm11-esm100-rsr0-rcr2-esr29,exr/ReadingArea_rsl0-rcl44-esl29-rsm0-rcm11-esm100-rsr0-rcr2-esr29.exr,ReadingArea_rsl0-rcl44-esl29-rsm0-rcm11-esm100-rsr0-rcr2-esr29.npz,,,,,0,69,69,327,,left,green,2.06,584.7583389282227,585.2135670185089,,1,,4,7,lightness,readingArea,realistic,75,2023-03-27_09h59.33.997,tripletExp_regina_11082022,2022.2.4,120.03205201584286,
5,0,11,0,1.0,0.298245614035088,0,0.027777777777778,0.298245614035088,0,1.0,1.0,ReadingArea_rsl0-rcl100-esl29-rsm0-rcm2-esm29-rsr0-rcr100-esr100,exr/ReadingArea_rsl0-rcl100-esl29-rsm0-rcm2-esm29-rsr0-rcr100-esr100.exr,ReadingArea_rsl0-rcl100-esl29-rsm0-rcm2-esm29-rsr0-rcr100-esr100.npz,,,,,0,70,70,547,,left,green,2.21,588.703428030014,589.1733598709106,,1,,4,7,lightness,readingArea,realistic,75,2023-03-27_09h59.33.997,tripletExp_regina_11082022,2022.2.4,120.03205201584286,
12,11,13,0,0.027777777777778,3.10526315789474,0,1.0,1.0,0,0.111111111111111,3.10526315789474,ReadingArea_rsl0-rcl2-esl310-rsm0-rcm100-esm100-rsr0-rcr11-esr310,exr/ReadingArea_rsl0-rcl2-esl310-rsm0-rcm100-esm100-rsr0-rcr11-esr310.exr,ReadingArea_rsl0-rcl2-esl310-rsm0-rcm100-esm100-rsr0-rcr11-esr310.npz,,,,,0,71,71,151,,right,red,2.61,592.6433839797974,593.1036539077759,,1,,4,7,lightness,readingArea,realistic,75,2023-03-27_09h59.33.997,tripletExp_regina_11082022,2022.2.4,120.03205201584286,
6,4,0,0,0.027777777777778,1.0,0,0.694444444444444,0.298245614035088,0,0.027777777777778,0.298245614035088,ReadingArea_rsl0-rcl2-esl100-rsm0-rcm69-esm29-rsr0-rcr2-esr29,exr/ReadingArea_rsl0-rcl2-esl100-rsm0-rcm69-esm29-rsr0-rcr2-esr29.exr,ReadingArea_rsl0-rcl2-esl100-rsm0-rcm69-esm29-rsr0-rcr2-esr29.npz,,,,,0,72,72,360,,left,green,3.71,598.3539190292358,598.9100499153137,,1,,4,7,lightness,readingArea,realistic,75,2023-03-27_09h59.33.997,tripletExp_regina_11082022,2022.2.4,120.03205201584286,
0,2,1,0,0.027777777777778,0.298245614035088,0,0.25,0.298245614035088,0,0.111111111111111,0.298245614035088,ReadingArea_rsl0-rcl2-esl29-rsm0-rcm25-esm29-rsr0-rcr11-esr29,exr/ReadingArea_rsl0-rcl2-esl29-rsm0-rcm25-esm29-rsr0-rcr11-esr29.exr,ReadingArea_rsl0-rcl2-esl29-rsm0-rcm25-esm29-rsr0-rcr11-esr29.npz,,,,,0,73,73,527,,right,red,1.94,602.3872539997101,602.8688168525696,,1,,4,7,lightness,readingArea,realistic,75,2023-03-27_09h59.33.997,tripletExp_regina_11082022,2022.2.4,120.03205201584286,
13,10,11,0,0.111111111111111,3.10526315789474,0,0.694444444444444,1.0,0,1.0,1.0,ReadingArea_rsl0-rcl11-esl310-rsm0-rcm69-esm100-rsr0-rcr100-esr100,exr/ReadingArea_rsl0-rcl11-esl310-rsm0-rcm69-esm100-rsr0-rcr100-esr100.exr,ReadingArea_rsl0-rcl11-esl310-rsm0-rcm69-esm100-rsr0-rcr100-esr100.npz,,,,,0,74,74,320,,left,green,3.84,608.1095929145813,608.3150918483734,,1,,4,7,lightness,readingArea,realistic,75,2023-03-27_09h59.33.997,tripletExp_regina_11082022,2022.2.4,120.03205201584286,
7,9,5,0,0.111111111111111,1.0,0,0.444444444444444,1.0,0,1.0,0.298245614035088,ReadingArea_rsl0-rcl11-esl100-rsm0-rcm44-esm100-rsr0-rcr100-esr29,exr/ReadingArea_rsl0-rcl11-esl100-rsm0-rcm44-esm100-rsr0-rcr100-esr29.exr,ReadingArea_rsl0-rcl11-esl100-rsm0-rcm44-esm100-rsr0-rcr100-esr29.npz,,,,,0,75,75,291,,right,red,2.09,655.1441140174866,655.7015318870544,,2,,4,7,lightness,readingArea,realistic,75,2023-03-27_09h59.33.997,tripletExp_regina_11082022,2022.2.4,120.03205201584286,
6,10,8,0,0.027777777777778,1.0,0,0.694444444444444,1.0,0,0.25,1.0,ReadingArea_rsl0-rcl2-esl100-rsm0-rcm69-esm100-rsr0-rcr25-esr100,exr/ReadingArea_rsl0-rcl2-esl100-rsm0-rcm69-esm100-rsr0-rcr25-esr100.exr,ReadingArea_rsl0-rcl2-esl100-rsm0-rcm69-esm100-rsr0-rcr25-esr100.npz,,,,,0,76,76,167,,right,red,3.13,659.164134979248,659.6172919273376,,2,,4,7,lightness,readingArea,realistic,75,2023-03-27_09h59.33.997,tripletExp_regina_11082022,2022.2.4,120.03205201584286,
5,9,10,0,1.0,0.298245614035088,0,0.444444444444444,1.0,0,0.694444444444444,1.0,ReadingArea_rsl0-rcl100-esl29-rsm0-rcm44-esm100-rsr0-rcr69-esr100,exr/ReadingArea_rsl0-rcl100-esl29-rsm0-rcm44-esm100-rsr0-rcr69-esr100.exr,ReadingArea_rsl0-rcl100-esl29-rsm0-rcm44-esm100-rsr0-rcr69-esr100.npz,,,,,0,77,77,322,,left,green,2.08,663.0913488864899,663.5683069229126,,2,,4,7,lightness,readingArea,realistic,75,2023-03-27_09h59.33.997,tripletExp_regina_11082022,2022.2.4,120.03205201584286,
8,1,3,0,0.25,1.0,0,0.111111111111111,0.298245614035088,0,0.444444444444444,0.298245614035088,ReadingArea_rsl0-rcl25-esl100-rsm0-rcm11-esm29-rsr0-rcr44-esr29,exr/ReadingArea_rsl0-rcl25-esl100-rsm0-rcm11-esm29-rsr0-rcr44-esr29.exr,ReadingArea_rsl0-rcl25-esl100-rsm0-rcm11-esm29-rsr0-rcr44-esr29.npz,,,,,0,78,78,490,,right,red,2.16,667.0459539890289,667.5250358581543,,2,,4,7,lightness,readingArea,realistic,75,2023-03-27_09h59.33.997,tripletExp_regina_11082022,2022.2.4,120.03205201584286,
2,4,13,0,0.25,0.298245614035088,0,0.694444444444444,0.298245614035088,0,0.111111111111111,3.10526315789474,ReadingArea_rsl0-rcl25-esl29-rsm0-rcm69-esm29-rsr0-rcr11-esr310,exr/ReadingArea_rsl0-rcl25-esl29-rsm0-rcm69-esm29-rsr0-rcr11-esr310.exr,ReadingArea_rsl0-rcl25-esl29-rsm0-rcm69-esm29-rsr0-rcr11-esr310.npz,,,,,0,79,79,325,,right,red,2.57,670.9969639778137,671.4855198860168,,2,,4,7,lightness,readingArea,realistic,75,2023-03-27_09h59.33.997,tripletExp_regina_11082022,2022.2.4,120.03205201584286,
3,11,14,0,0.444444444444444,0.298245614035088,0,1.0,1.0,0,0.25,3.10526315789474,ReadingArea_rsl0-rcl44-esl29-rsm0-rcm100-esm100-rsr0-rcr25-esr310,exr/ReadingArea_rsl0-rcl44-esl29-rsm0-rcm100-esm100-rsr0-rcr25-esr310.exr,ReadingArea_rsl0-rcl44-esl29-rsm0-rcm100-esm100-rsr0-rcr25-esr310.npz,,,,,0,80,80,570,,right,red,2.56,674.9477229118347,675.443755865097,,2,,4,7,lightness,readingArea,realistic,75,2023-03-27_09h59.33.997,tripletExp_regina_11082022,2022.2.4,120.03205201584286,
12,7,2,0,0.027777777777778,3.10526315789474,0,0.111111111111111,1.0,0,0.25,0.298245614035088,ReadingArea_rsl0-rcl2-esl310-rsm0-rcm11-esm100-rsr0-rcr25-esr29,exr/ReadingArea_rsl0-rcl2-esl310-rsm0-rcm11-esm100-rsr0-rcr25-esr29.exr,ReadingArea_rsl0-rcl2-esl310-rsm0-rcm11-esm100-rsr0-rcr25-esr29.npz,,,,,0,81,81,248,,left,green,4.03,680.694906949997,,,2,,4,7,lightness,readingArea,realistic,75,2023-03-27_09h59.33.997,tripletExp_regina_11082022,2022.2.4,120.03205201584286,
11,5,1,0,1.0,1.0,0,1.0,0.298245614035088,0,0.111111111111111,0.298245614035088,ReadingArea_rsl0-rcl100-esl100-rsm0-rcm100-esm29-rsr0-rcr11-esr29,exr/ReadingArea_rsl0-rcl100-esl100-rsm0-rcm100-esm29-rsr0-rcr11-esr29.exr,ReadingArea_rsl0-rcl100-esl100-rsm0-rcm100-esm29-rsr0-rcr11-esr29.npz,,,,,0,82,82,48,,right,red,2.24,684.7558500766754,685.2185878753662,,2,,4,7,lightness,readingArea,realistic,75,2023-03-27_09h59.33.997,tripletExp_regina_11082022,2022.2.4,120.03205201584286,
8,12,3,0,0.25,1.0,0,0.027777777777778,3.10526315789474,0,0.444444444444444,0.298245614035088,ReadingArea_rsl0-rcl25-esl100-rsm0-rcm2-esm310-rsr0-rcr44-esr29,exr/ReadingArea_rsl0-rcl25-esl100-rsm0-rcm2-esm310-rsr0-rcr44-esr29.exr,ReadingArea_rsl0-rcl25-esl100-rsm0-rcm2-esm310-rsr0-rcr44-esr29.npz,,,,,0,83,83,6,,left,green,4.35,690.4538059234619,690.9207348823547,,2,,4,7,lightness,readingArea,realistic,75,2023-03-27_09h59.33.997,tripletExp_regina_11082022,2022.2.4,120.03205201584286,
12,10,5,0,0.027777777777778,3.10526315789474,0,0.694444444444444,1.0,0,1.0,0.298245614035088,ReadingArea_rsl0-rcl2-esl310-rsm0-rcm69-esm100-rsr0-rcr100-esr29,exr/ReadingArea_rsl0-rcl2-esl310-rsm0-rcm69-esm100-rsr0-rcr100-esr29.exr,ReadingArea_rsl0-rcl2-esl310-rsm0-rcm69-esm100-rsr0-rcr100-esr29.npz,,,,,0,84,84,470,,right,red,2.16,694.3933420181274,694.8659949302673,,2,,4,7,lightness,readingArea,realistic,75,2023-03-27_09h59.33.997,tripletExp_regina_11082022,2022.2.4,120.03205201584286,
0,14,10,0,0.027777777777778,0.298245614035088,0,0.25,3.10526315789474,0,0.694444444444444,1.0,ReadingArea_rsl0-rcl2-esl29-rsm0-rcm25-esm310-rsr0-rcr69-esr100,exr/ReadingArea_rsl0-rcl2-esl29-rsm0-rcm25-esm310-rsr0-rcr69-esr100.exr,ReadingArea_rsl0-rcl2-esl29-rsm0-rcm25-esm310-rsr0-rcr69-esr100.npz,,,,,0,85,85,128,,right,red,3.66,700.1087870597839,700.5754158496857,,2,,4,7,lightness,readingArea,realistic,75,2023-03-27_09h59.33.997,tripletExp_regina_11082022,2022.2.4,120.03205201584286,
4,7,10,0,0.694444444444444,0.298245614035088,0,0.111111111111111,1.0,0,0.694444444444444,1.0,ReadingArea_rsl0-rcl69-esl29-rsm0-rcm11-esm100-rsr0-rcr69-esr100,exr/ReadingArea_rsl0-rcl69-esl29-rsm0-rcm11-esm100-rsr0-rcr69-esr100.exr,ReadingArea_rsl0-rcl69-esl29-rsm0-rcm11-esm100-rsr0-rcr69-esr100.npz,,,,,0,86,86,8,,left,green,2.74,704.0467228889465,704.4912779331207,,2,,4,7,lightness,readingArea,realistic,75,2023-03-27_09h59.33.997,tripletExp_regina_11082022,2022.2.4,120.03205201584286,
13,4,12,0,0.111111111111111,3.10526315789474,0,0.694444444444444,0.298245614035088,0,0.027777777777778,3.10526315789474,ReadingArea_rsl0-rcl11-esl310-rsm0-rcm69-esm29-rsr0-rcr2-esr310,exr/ReadingArea_rsl0-rcl11-esl310-rsm0-rcm69-esm29-rsr0-rcr2-esr310.exr,ReadingArea_rsl0-rcl11-esl310-rsm0-rcm69-esm29-rsr0-rcr2-esr310.npz,,,,,0,87,87,122,,left,green,2.33,707.9577860832214,708.4201600551605,,2,,4,7,lightness,readingArea,realistic,75,2023-03-27_09h59.33.997,tripletExp_regina_11082022,2022.2.4,120.03205201584286,
7,10,5,0,0.111111111111111,1.0,0,0.694444444444444,1.0,0,1.0,0.298245614035088,ReadingArea_rsl0-rcl11-esl100-rsm0-rcm69-esm100-rsr0-rcr100-esr29,exr/ReadingArea_rsl0-rcl11-esl100-rsm0-rcm69-esm100-rsr0-rcr100-esr29.exr,ReadingArea_rsl0-rcl11-esl100-rsm0-rcm69-esm100-rsr0-rcr100-esr29.npz,,,,,0,88,88,395,,right,red,2.84,711.9027829170227,712.3611750602722,,2,,4,7,lightness,readingArea,realistic,75,2023-03-27_09h59.33.997,tripletExp_regina_11082022,2022.2.4,120.03205201584286,
10,9,6,0,0.694444444444444,1.0,0,0.444444444444444,1.0,0,0.027777777777778,1.0,ReadingArea_rsl0-rcl69-esl100-rsm0-rcm44-esm100-rsr0-rcr2-esr100,exr/ReadingArea_rsl0-rcl69-esl100-rsm0-rcm44-esm100-rsr0-rcr2-esr100.exr,ReadingArea_rsl0-rcl69-esl100-rsm0-rcm44-esm100-rsr0-rcr2-esr100.npz,,,,,0,89,89,35,,left,green,2.35,715.8374738693237,716.3099639415741,,2,,4,7,lightness,readingArea,realistic,75,2023-03-27_09h59.33.997,tripletExp_regina_11082022,2022.2.4,120.03205201584286,
7,12,0,0,0.111111111111111,1.0,0,0.027777777777778,3.10526315789474,0,0.027777777777778,0.298245614035088,ReadingArea_rsl0-rcl11-esl100-rsm0-rcm2-esm310-rsr0-rcr2-esr29,exr/ReadingArea_rsl0-rcl11-esl100-rsm0-rcm2-esm310-rsr0-rcr2-esr29.exr,ReadingArea_rsl0-rcl11-esl100-rsm0-rcm2-esm310-rsr0-rcr2-esr29.npz,,,,,0,90,90,425,,left,green,2.68,719.7748169898987,720.2333419322968,,2,,4,7,lightness,readingArea,realistic,75,2023-03-27_09h59.33.997,tripletExp_regina_11082022,2022.2.4,120.03205201584286,
11,6,8,0,1.0,1.0,0,0.027777777777778,1.0,0,0.25,1.0,ReadingArea_rsl0-rcl100-esl100-rsm0-rcm2-esm100-rsr0-rcr25-esr100,exr/ReadingArea_rsl0-rcl100-esl100-rsm0-rcm2-esm100-rsr0-rcr25-esr100.exr,ReadingArea_rsl0-rcl100-esl100-rsm0-rcm2-esm100-rsr0-rcr25-esr100.npz,,,,,0,91,91,599,,right,red,2.56,723.7170450687408,724.16938996315,,2,,4,7,lightness,readingArea,realistic,75,2023-03-27_09h59.33.997,tripletExp_regina_11082022,2022.2.4,120.03205201584286,
12,3,13,0,0.027777777777778,3.10526315789474,0,0.444444444444444,0.298245614035088,0,0.111111111111111,3.10526315789474,ReadingArea_rsl0-rcl2-esl310-rsm0-rcm44-esm29-rsr0-rcr11-esr310,exr/ReadingArea_rsl0-rcl2-esl310-rsm0-rcm44-esm29-rsr0-rcr11-esr310.exr,ReadingArea_rsl0-rcl2-esl310-rsm0-rcm44-esm29-rsr0-rcr11-esr310.npz,,,,,0,92,92,383,,left,green,4.45,729.375205039978,729.8273980617523,,2,,4,7,lightness,readingArea,realistic,75,2023-03-27_09h59.33.997,tripletExp_regina_11082022,2022.2.4,120.03205201584286,
8,3,9,0,0.25,1.0,0,0.444444444444444,0.298245614035088,0,0.444444444444444,1.0,ReadingArea_rsl0-rcl25-esl100-rsm0-rcm44-esm29-rsr0-rcr44-esr100,exr/ReadingArea_rsl0-rcl25-esl100-rsm0-rcm44-esm29-rsr0-rcr44-esr100.exr,ReadingArea_rsl0-rcl25-esl100-rsm0-rcm44-esm29-rsr0-rcr44-esr100.npz,,,,,0,93,93,15,,left,green,2.17,733.3162519931793,733.7727539539337,,2,,4,7,lightness,readingArea,realistic,75,2023-03-27_09h59.33.997,tripletExp_regina_11082022,2022.2.4,120.03205201584286,
8,6,13,0,0.25,1.0,0,0.027777777777778,1.0,0,0.111111111111111,3.10526315789474,ReadingArea_rsl0-rcl25-esl100-rsm0-rcm2-esm100-rsr0-rcr11-esr310,exr/ReadingArea_rsl0-rcl25-esl100-rsm0-rcm2-esm100-rsr0-rcr11-esr310.exr,ReadingArea_rsl0-rcl25-esl100-rsm0-rcm2-esm100-rsr0-rcr11-esr310.npz,,,,,0,94,94,440,,left,green,2.95,737.2713198661804,737.7230908870697,,2,,4,7,lightness,readingArea,realistic,75,2023-03-27_09h59.33.997,tripletExp_regina_11082022,2022.2.4,120.03205201584286,
7,4,6,0,0.111111111111111,1.0,0,0.694444444444444,0.298245614035088,0,0.027777777777778,1.0,ReadingArea_rsl0-rcl11-esl100-rsm0-rcm69-esm29-rsr0-rcr2-esr100,exr/ReadingArea_rsl0-rcl11-esl100-rsm0-rcm69-esm29-rsr0-rcr2-esr100.exr,ReadingArea_rsl0-rcl11-esl100-rsm0-rcm69-esm29-rsr0-rcr2-esr100.npz,,,,,0,95,95,528,,left,green,2.8,741.2208528518677,,,2,,4,7,lightness,readingArea,realistic,75,2023-03-27_09h59.33.997,tripletExp_regina_11082022,2022.2.4,120.03205201584286,
1,3,12,0,0.111111111111111,0.298245614035088,0,0.444444444444444,0.298245614035088,0,0.027777777777778,3.10526315789474,ReadingArea_rsl0-rcl11-esl29-rsm0-rcm44-esm29-rsr0-rcr2-esr310,exr/ReadingArea_rsl0-rcl11-esl29-rsm0-rcm44-esm29-rsr0-rcr2-esr310.exr,ReadingArea_rsl0-rcl11-esl29-rsm0-rcm44-esm29-rsr0-rcr2-esr310.npz,,,,,0,96,96,323,,right,red,4.27,746.9146699905396,747.3841979503632,,2,,4,7,lightness,readingArea,realistic,75,2023-03-27_09h59.33.997,tripletExp_regina_11082022,2022.2.4,120.03205201584286,
6,13,8,0,0.027777777777778,1.0,0,0.111111111111111,3.10526315789474,0,0.25,1.0,ReadingArea_rsl0-rcl2-esl100-rsm0-rcm11-esm310-rsr0-rcr25-esr100,exr/ReadingArea_rsl0-rcl2-esl100-rsm0-rcm11-esm310-rsr0-rcr25-esr100.exr,ReadingArea_rsl0-rcl2-esl100-rsm0-rcm11-esm310-rsr0-rcr25-esr100.npz,,,,,0,97,97,535,,right,red,3.44,750.8523769378662,751.3145649433136,,2,,4,7,lightness,readingArea,realistic,75,2023-03-27_09h59.33.997,tripletExp_regina_11082022,2022.2.4,120.03205201584286,
12,10,6,0,0.027777777777778,3.10526315789474,0,0.694444444444444,1.0,0,0.027777777777778,1.0,ReadingArea_rsl0-rcl2-esl310-rsm0-rcm69-esm100-rsr0-rcr2-esr100,exr/ReadingArea_rsl0-rcl2-esl310-rsm0-rcm69-esm100-rsr0-rcr2-esr100.exr,ReadingArea_rsl0-rcl2-esl310-rsm0-rcm69-esm100-rsr0-rcr2-esr100.npz,,,,,0,98,98,273,,left,green,2.69,754.8083238601685,755.2941329479218,,2,,4,7,lightness,readingArea,realistic,75,2023-03-27_09h59.33.997,tripletExp_regina_11082022,2022.2.4,120.03205201584286,
14,12,9,0,0.25,3.10526315789474,0,0.027777777777778,3.10526315789474,0,0.444444444444444,1.0,ReadingArea_rsl0-rcl25-esl310-rsm0-rcm2-esm310-rsr0-rcr44-esr100,exr/ReadingArea_rsl0-rcl25-esl310-rsm0-rcm2-esm310-rsr0-rcr44-esr100.exr,ReadingArea_rsl0-rcl25-esl310-rsm0-rcm2-esm310-rsr0-rcr44-esr100.npz,,,,,0,99,99,40,,right,red,2.88,758.7745020389557,759.260027885437,,2,,4,7,lightness,readingArea,realistic,75,2023-03-27_09h59.33.997,tripletExp_regina_11082022,2022.2.4,120.03205201584286,
5,8,2,0,1.0,0.298245614035088,0,0.25,1.0,0,0.25,0.298245614035088,ReadingArea_rsl0-rcl100-esl29-rsm0-rcm25-esm100-rsr0-rcr25-esr29,exr/ReadingArea_rsl0-rcl100-esl29-rsm0-rcm25-esm100-rsr0-rcr25-esr29.exr,ReadingArea_rsl0-rcl100-esl29-rsm0-rcm25-esm100-rsr0-rcr25-esr29.npz,,,,,0,100,100,65,,left,green,4.52,764.5089609622955,765.0071380138397,,2,,4,7,lightness,readingArea,realistic,75,2023-03-27_09h59.33.997,tripletExp_regina_11082022,2022.2.4,120.03205201584286,
5,3,4,0,1.0,0.298245614035088,0,0.444444444444444,0.298245614035088,0,0.694444444444444,0.298245614035088,ReadingArea_rsl0-rcl100-esl29-rsm0-rcm44-esm29-rsr0-rcr69-esr29,exr/ReadingArea_rsl0-rcl100-esl29-rsm0-rcm44-esm29-rsr0-rcr69-esr29.exr,ReadingArea_rsl0-rcl100-esl29-rsm0-rcm44-esm29-rsr0-rcr69-esr29.npz,,,,,0,101,101,201,,right,red,3.21,768.490306854248,768.9602830410004,,2,,4,7,lightness,readingArea,realistic,75,2023-03-27_09h59.33.997,tripletExp_regina_11082022,2022.2.4,120.03205201584286,
13,6,0,0,0.111111111111111,3.10526315789474,0,0.027777777777778,1.0,0,0.027777777777778,0.298245614035088,ReadingArea_rsl0-rcl11-esl310-rsm0-rcm2-esm100-rsr0-rcr2-esr29,exr/ReadingArea_rsl0-rcl11-esl310-rsm0-rcm2-esm100-rsr0-rcr2-esr29.exr,ReadingArea_rsl0-rcl11-esl310-rsm0-rcm2-esm100-rsr0-rcr2-esr29.npz,,,,,0,102,102,309,,right,red,3.6,772.403589963913,772.8767800331116,,2,,4,7,lightness,readingArea,realistic,75,2023-03-27_09h59.33.997,tripletExp_regina_11082022,2022.2.4,120.03205201584286,
3,2,11,0,0.444444444444444,0.298245614035088,0,0.25,0.298245614035088,0,1.0,1.0,ReadingArea_rsl0-rcl44-esl29-rsm0-rcm25-esm29-rsr0-rcr100-esr100,exr/ReadingArea_rsl0-rcl44-esl29-rsm0-rcm25-esm29-rsr0-rcr100-esr100.exr,ReadingArea_rsl0-rcl44-esl29-rsm0-rcm25-esm29-rsr0-rcr100-esr100.npz,,,,,0,103,103,257,,left,green,2.2,776.3424270153046,776.812166929245,,2,,4,7,lightness,readingArea,realistic,75,2023-03-27_09h59.33.997,tripletExp_regina_11082022,2022.2.4,120.03205201584286,
12,6,8,0,0.027777777777778,3.10526315789474,0,0.027777777777778,1.0,0,0.25,1.0,ReadingArea_rsl0-rcl2-esl310-rsm0-rcm2-esm100-rsr0-rcr25-esr100,exr/ReadingArea_rsl0-rcl2-esl310-rsm0-rcm2-esm100-rsr0-rcr25-esr100.exr,ReadingArea_rsl0-rcl2-esl310-rsm0-rcm2-esm100-rsr0-rcr25-esr100.npz,,,,,0,104,104,540,,left,green,2.37,780.2689769268036,780.7492399215698,,2,,4,7,lightness,readingArea,realistic,75,2023-03-27_09h59.33.997,tripletExp_regina_11082022,2022.2.4,120.03205201584286,
11,4,0,0,1.0,1.0,0,0.694444444444444,0.298245614035088,0,0.027777777777778,0.298245614035088,ReadingArea_rsl0-rcl100-esl100-rsm0-rcm69-esm29-rsr0-rcr2-esr29,exr/ReadingArea_rsl0-rcl100-esl100-rsm0-rcm69-esm29-rsr0-rcr2-esr29.exr,ReadingArea_rsl0-rcl100-esl100-rsm0-rcm69-esm29-rsr0-rcr2-esr29.npz,,,,,0,105,105,219,,right,red,2.37,784.2124059200287,784.684427022934,,2,,4,7,lightness,readingArea,realistic,75,2023-03-27_09h59.33.997,tripletExp_regina_11082022,2022.2.4,120.03205201584286,
9,6,14,0,0.444444444444444,1.0,0,0.027777777777778,1.0,0,0.25,3.10526315789474,ReadingArea_rsl0-rcl44-esl100-rsm0-rcm2-esm100-rsr0-rcr25-esr310,exr/ReadingArea_rsl0-rcl44-esl100-rsm0-rcm2-esm100-rsr0-rcr25-esr310.exr,ReadingArea_rsl0-rcl44-esl100-rsm0-rcm2-esm100-rsr0-rcr25-esr310.npz,,,,,0,106,106,213,,left,green,3.4,788.1512808799744,788.6160299777985,,2,,4,7,lightness,readingArea,realistic,75,2023-03-27_09h59.33.997,tripletExp_regina_11082022,2022.2.4,120.03205201584286,
5,2,10,0,1.0,0.298245614035088,0,0.25,0.298245614035088,0,0.694444444444444,1.0,ReadingArea_rsl0-rcl100-esl29-rsm0-rcm25-esm29-rsr0-rcr69-esr100,exr/ReadingArea_rsl0-rcl100-esl29-rsm0-rcm25-esm29-rsr0-rcr69-esr100.exr,ReadingArea_rsl0-rcl100-esl29-rsm0-rcm25-esm29-rsr0-rcr69-esr100.npz,,,,,0,107,107,595,,left,green,2.04,792.0968358516693,792.5756928920746,,2,,4,7,lightness,readingArea,realistic,75,2023-03-27_09h59.33.997,tripletExp_regina_11082022,2022.2.4,120.03205201584286,
8,7,12,0,0.25,1.0,0,0.111111111111111,1.0,0,0.027777777777778,3.10526315789474,ReadingArea_rsl0-rcl25-esl100-rsm0-rcm11-esm100-rsr0-rcr2-esr310,exr/ReadingArea_rsl0-rcl25-esl100-rsm0-rcm11-esm100-rsr0-rcr2-esr310.exr,ReadingArea_rsl0-rcl25-esl100-rsm0-rcm11-esm100-rsr0-rcr2-esr310.npz,,,,,0,108,108,471,,right,red,2.69,796.0566890239716,796.5289318561554,,2,,4,7,lightness,readingArea,realistic,75,2023-03-27_09h59.33.997,tripletExp_regina_11082022,2022.2.4,120.03205201584286,
2,9,10,0,0.25,0.298245614035088,0,0.444444444444444,1.0,0,0.694444444444444,1.0,ReadingArea_rsl0-rcl25-esl29-rsm0-rcm44-esm100-rsr0-rcr69-esr100,exr/ReadingArea_rsl0-rcl25-esl29-rsm0-rcm44-esm100-rsr0-rcr69-esr100.exr,ReadingArea_rsl0-rcl25-esl29-rsm0-rcm44-esm100-rsr0-rcr69-esr100.npz,,,,,0,109,109,117,,right,red,3.34,799.9982419013977,800.4825699329376,,2,,4,7,lightness,readingArea,realistic,75,2023-03-27_09h59.33.997,tripletExp_regina_11082022,2022.2.4,120.03205201584286,
9,6,8,0,0.444444444444444,1.0,0,0.027777777777778,1.0,0,0.25,1.0,ReadingArea_rsl0-rcl44-esl100-rsm0-rcm2-esm100-rsr0-rcr25-esr100,exr/ReadingArea_rsl0-rcl44-esl100-rsm0-rcm2-esm100-rsr0-rcr25-esr100.exr,ReadingArea_rsl0-rcl44-esl100-rsm0-rcm2-esm100-rsr0-rcr25-esr100.npz,,,,,0,110,110,312,,right,red,3.83,805.7411630153656,806.3046019077301,,2,,4,7,lightness,readingArea,realistic,75,2023-03-27_09h59.33.997,tripletExp_regina_11082022,2022.2.4,120.03205201584286,
2,8,7,0,0.25,0.298245614035088,0,0.25,1.0,0,0.111111111111111,1.0,ReadingArea_rsl0-rcl25-esl29-rsm0-rcm25-esm100-rsr0-rcr11-esr100,exr/ReadingArea_rsl0-rcl25-esl29-rsm0-rcm25-esm100-rsr0-rcr11-esr100.exr,ReadingArea_rsl0-rcl25-esl29-rsm0-rcm25-esm100-rsr0-rcr11-esr100.npz,,,,,0,111,111,393,,left,green,3.6,809.7863719463348,810.2488670349121,,2,,4,7,lightness,readingArea,realistic,75,2023-03-27_09h59.33.997,tripletExp_regina_11082022,2022.2.4,120.03205201584286,
9,14,7,0,0.444444444444444,1.0,0,0.25,3.10526315789474,0,0.111111111111111,1.0,ReadingArea_rsl0-rcl44-esl100-rsm0-rcm25-esm310-rsr0-rcr11-esr100,exr/ReadingArea_rsl0-rcl44-esl100-rsm0-rcm25-esm310-rsr0-rcr11-esr100.exr,ReadingArea_rsl0-rcl44-esl100-rsm0-rcm25-esm310-rsr0-rcr11-esr100.npz,,,,,0,112,112,44,,left,green,3.13,813.7394440174103,814.203852891922,,2,,4,7,lightness,readingArea,realistic,75,2023-03-27_09h59.33.997,tripletExp_regina_11082022,2022.2.4,120.03205201584286,
14,6,7,0,0.25,3.10526315789474,0,0.027777777777778,1.0,0,0.111111111111111,1.0,ReadingArea_rsl0-rcl25-esl310-rsm0-rcm2-esm100-rsr0-rcr11-esr100,exr/ReadingArea_rsl0-rcl25-esl310-rsm0-rcm2-esm100-rsr0-rcr11-esr100.exr,ReadingArea_rsl0-rcl25-esl310-rsm0-rcm2-esm100-rsr0-rcr11-esr100.npz,,,,,0,113,113,306,,right,red,2.72,817.6760768890381,818.2066769599915,,2,,4,7,lightness,readingArea,realistic,75,2023-03-27_09h59.33.997,tripletExp_regina_11082022,2022.2.4,120.03205201584286,
11,7,14,0,1.0,1.0,0,0.111111111111111,1.0,0,0.25,3.10526315789474,ReadingArea_rsl0-rcl100-esl100-rsm0-rcm11-esm100-rsr0-rcr25-esr310,exr/ReadingArea_rsl0-rcl100-esl100-rsm0-rcm11-esm100-rsr0-rcr25-esr310.exr,ReadingArea_rsl0-rcl100-esl100-rsm0-rcm11-esm100-rsr0-rcr25-esr310.npz,,,,,0,114,114,119,,right,red,4.12,823.4475560188293,823.9235079288483,,2,,4,7,lightness,readingArea,realistic,75,2023-03-27_09h59.33.997,tripletExp_regina_11082022,2022.2.4,120.03205201584286,
2,3,4,0,0.25,0.298245614035088,0,0.444444444444444,0.298245614035088,0,0.694444444444444,0.298245614035088,ReadingArea_rsl0-rcl25-esl29-rsm0-rcm44-esm29-rsr0-rcr69-esr29,exr/ReadingArea_rsl0-rcl25-esl29-rsm0-rcm44-esm29-rsr0-rcr69-esr29.exr,ReadingArea_rsl0-rcl25-esl29-rsm0-rcm44-esm29-rsr0-rcr69-esr29.npz,,,,,0,115,115,61,,right,red,3.4,827.415894985199,827.8660650253296,,2,,4,7,lightness,readingArea,realistic,75,2023-03-27_09h59.33.997,tripletExp_regina_11082022,2022.2.4,120.03205201584286,
4,2,5,0,0.694444444444444,0.298245614035088,0,0.25,0.298245614035088,0,1.0,0.298245614035088,ReadingArea_rsl0-rcl69-esl29-rsm0-rcm25-esm29-rsr0-rcr100-esr29,exr/ReadingArea_rsl0-rcl69-esl29-rsm0-rcm25-esm29-rsr0-rcr100-esr29.exr,ReadingArea_rsl0-rcl69-esl29-rsm0-rcm25-esm29-rsr0-rcr100-esr29.npz,,,,,0,116,116,101,,left,green,4.17,833.1347420215607,,,2,,4,7,lightness,readingArea,realistic,75,2023-03-27_09h59.33.997,tripletExp_regina_11082022,2022.2.4,120.03205201584286,
14,6,12,0,0.25,3.10526315789474,0,0.027777777777778,1.0,0,0.027777777777778,3.10526315789474,ReadingArea_rsl0-rcl25-esl310-rsm0-rcm2-esm100-rsr0-rcr2-esr310,exr/ReadingArea_rsl0-rcl25-esl310-rsm0-rcm2-esm100-rsr0-rcr2-esr310.exr,ReadingArea_rsl0-rcl25-esl310-rsm0-rcm2-esm100-rsr0-rcr2-esr310.npz,,,,,0,117,117,242,,right,red,2.79,837.0780310630798,837.5213599205017,,2,,4,7,lightness,readingArea,realistic,75,2023-03-27_09h59.33.997,tripletExp_regina_11082022,2022.2.4,120.03205201584286,
4,8,14,0,0.694444444444444,0.298245614035088,0,0.25,1.0,0,0.25,3.10526315789474,ReadingArea_rsl0-rcl69-esl29-rsm0-rcm25-esm100-rsr0-rcr25-esr310,exr/ReadingArea_rsl0-rcl69-esl29-rsm0-rcm25-esm100-rsr0-rcr25-esr310.exr,ReadingArea_rsl0-rcl69-esl29-rsm0-rcm25-esm100-rsr0-rcr25-esr310.npz,,,,,0,118,118,234,,left,green,2.45,840.9845809936523,841.4534819126129,,2,,4,7,lightness,readingArea,realistic,75,2023-03-27_09h59.33.997,tripletExp_regina_11082022,2022.2.4,120.03205201584286,
1,13,2,0,0.111111111111111,0.298245614035088,0,0.111111111111111,3.10526315789474,0,0.25,0.298245614035088,ReadingArea_rsl0-rcl11-esl29-rsm0-rcm11-esm310-rsr0-rcr25-esr29,exr/ReadingArea_rsl0-rcl11-esl29-rsm0-rcm11-esm310-rsr0-rcr25-esr29.exr,ReadingArea_rsl0-rcl11-esl29-rsm0-rcm11-esm310-rsr0-rcr25-esr29.npz,,,,,0,119,119,118,,right,red,2.93,844.9268329143524,845.410178899765,,2,,4,7,lightness,readingArea,realistic,75,2023-03-27_09h59.33.997,tripletExp_regina_11082022,2022.2.4,120.03205201584286,
14,3,2,0,0.25,3.10526315789474,0,0.444444444444444,0.298245614035088,0,0.25,0.298245614035088,ReadingArea_rsl0-rcl25-esl310-rsm0-rcm44-esm29-rsr0-rcr25-esr29,exr/ReadingArea_rsl0-rcl25-esl310-rsm0-rcm44-esm29-rsr0-rcr25-esr29.exr,ReadingArea_rsl0-rcl25-esl310-rsm0-rcm44-esm29-rsr0-rcr25-esr29.npz,,,,,0,120,120,52,,right,red,3.14,848.9015929698944,849.4007589817047,,2,,4,7,lightness,readingArea,realistic,75,2023-03-27_09h59.33.997,tripletExp_regina_11082022,2022.2.4,120.03205201584286,
12,7,9,0,0.027777777777778,3.10526315789474,0,0.111111111111111,1.0,0,0.444444444444444,1.0,ReadingArea_rsl0-rcl2-esl310-rsm0-rcm11-esm100-rsr0-rcr44-esr100,exr/ReadingArea_rsl0-rcl2-esl310-rsm0-rcm11-esm100-rsr0-rcr44-esr100.exr,ReadingArea_rsl0-rcl2-esl310-rsm0-rcm11-esm100-rsr0-rcr44-esr100.npz,,,,,0,121,121,124,,left,green,3.87,854.6549360752106,,,2,,4,7,lightness,readingArea,realistic,75,2023-03-27_09h59.33.997,tripletExp_regina_11082022,2022.2.4,120.03205201584286,
6,0,10,0,0.027777777777778,1.0,0,0.027777777777778,0.298245614035088,0,0.694444444444444,1.0,ReadingArea_rsl0-rcl2-esl100-rsm0-rcm2-esm29-rsr0-rcr69-esr100,exr/ReadingArea_rsl0-rcl2-esl100-rsm0-rcm2-esm29-rsr0-rcr69-esr100.exr,ReadingArea_rsl0-rcl2-esl100-rsm0-rcm2-esm29-rsr0-rcr69-esr100.npz,,,,,0,122,122,532,,left,green,2.62,858.5946810245514,859.0494530200958,,2,,4,7,lightness,readingArea,realistic,75,2023-03-27_09h59.33.997,tripletExp_regina_11082022,2022.2.4,120.03205201584286,
5,1,13,0,1.0,0.298245614035088,0,0.111111111111111,0.298245614035088,0,0.111111111111111,3.10526315789474,ReadingArea_rsl0-rcl100-esl29-rsm0-rcm11-esm29-rsr0-rcr11-esr310,exr/ReadingArea_rsl0-rcl100-esl29-rsm0-rcm11-esm29-rsr0-rcr11-esr310.exr,ReadingArea_rsl0-rcl100-esl29-rsm0-rcm11-esm29-rsr0-rcr11-esr310.npz,,,,,0,123,123,594,,,green,2.62,864.2846338748932,864.7632520198822,,2,863.9146290063858,4,7,lightness,readingArea,realistic,75,2023-03-27_09h59.33.997,tripletExp_regina_11082022,2022.2.4,120.03205201584286,
2,1,10,0,0.25,0.298245614035088,0,0.111111111111111,0.298245614035088,0,0.694444444444444,1.0,ReadingArea_rsl0-rcl25-esl29-rsm0-rcm11-esm29-rsr0-rcr69-esr100,exr/ReadingArea_rsl0-rcl25-esl29-rsm0-rcm11-esm29-rsr0-rcr69-esr100.exr,ReadingArea_rsl0-rcl25-esl29-rsm0-rcm11-esm29-rsr0-rcr69-esr100.npz,,,,,0,124,124,585,,left,green,2.12,868.2413880825043,868.6822810173035,,2,,4,7,lightness,readingArea,realistic,75,2023-03-27_09h59.33.997,tripletExp_regina_11082022,2022.2.4,120.03205201584286,
4,1,3,0,0.694444444444444,0.298245614035088,0,0.111111111111111,0.298245614035088,0,0.444444444444444,0.298245614035088,ReadingArea_rsl0-rcl69-esl29-rsm0-rcm11-esm29-rsr0-rcr44-esr29,exr/ReadingArea_rsl0-rcl69-esl29-rsm0-rcm11-esm29-rsr0-rcr44-esr29.exr,ReadingArea_rsl0-rcl69-esl29-rsm0-rcm11-esm29-rsr0-rcr44-esr29.npz,,,,,0,125,125,70,,right,red,2.56,872.1928510665894,872.6648960113525,,2,,4,7,lightness,readingArea,realistic,75,2023-03-27_09h59.33.997,tripletExp_regina_11082022,2022.2.4,120.03205201584286,
6,14,10,0,0.027777777777778,1.0,0,0.25,3.10526315789474,0,0.694444444444444,1.0,ReadingArea_rsl0-rcl2-esl100-rsm0-rcm25-esm310-rsr0-rcr69-esr100,exr/ReadingArea_rsl0-rcl2-esl100-rsm0-rcm25-esm310-rsr0-rcr69-esr100.exr,ReadingArea_rsl0-rcl2-esl100-rsm0-rcm25-esm310-rsr0-rcr69-esr100.npz,,,,,0,126,126,413,,right,red,2.41,876.1340570449829,876.5916550159454,,2,,4,7,lightness,readingArea,realistic,75,2023-03-27_09h59.33.997,tripletExp_regina_11082022,2022.2.4,120.03205201584286,
8,1,6,0,0.25,1.0,0,0.111111111111111,0.298245614035088,0,0.027777777777778,1.0,ReadingArea_rsl0-rcl25-esl100-rsm0-rcm11-esm29-rsr0-rcr2-esr100,exr/ReadingArea_rsl0-rcl25-esl100-rsm0-rcm11-esm29-rsr0-rcr2-esr100.exr,ReadingArea_rsl0-rcl25-esl100-rsm0-rcm11-esm29-rsr0-rcr2-esr100.npz,,,,,0,127,127,62,,right,red,3.93,881.8233640193939,882.286092042923,,2,,4,7,lightness,readingArea,realistic,75,2023-03-27_09h59.33.997,tripletExp_regina_11082022,2022.2.4,120.03205201584286,
4,14,1,0,0.694444444444444,0.298245614035088,0,0.25,3.10526315789474,0,0.111111111111111,0.298245614035088,ReadingArea_rsl0-rcl69-esl29-rsm0-rcm25-esm310-rsr0-rcr11-esr29,exr/ReadingArea_rsl0-rcl69-esl29-rsm0-rcm25-esm310-rsr0-rcr11-esr29.exr,ReadingArea_rsl0-rcl69-esl29-rsm0-rcm25-esm310-rsr0-rcr11-esr29.npz,,,,,0,128,128,477,,left,green,2.57,885.7667980194092,886.223680973053,,2,,4,7,lightness,readingArea,realistic,75,2023-03-27_09h59.33.997,tripletExp_regina_11082022,2022.2.4,120.03205201584286,
10,7,11,0,0.694444444444444,1.0,0,0.111111111111111,1.0,0,1.0,1.0,ReadingArea_rsl0-rcl69-esl100-rsm0-rcm11-esm100-rsr0-rcr100-esr100,exr/ReadingArea_rsl0-rcl69-esl100-rsm0-rcm11-esm100-rsr0-rcr100-esr100.exr,ReadingArea_rsl0-rcl69-esl100-rsm0-rcm11-esm100-rsr0-rcr100-esr100.npz,,,,,0,129,129,542,,right,red,3.02,889.6909029483795,890.1764259338379,,2,,4,7,lightness,readingArea,realistic,75,2023-03-27_09h59.33.997,tripletExp_regina_11082022,2022.2.4,120.03205201584286,
5,3,2,0,1.0,0.298245614035088,0,0.444444444444444,0.298245614035088,0,0.25,0.298245614035088,ReadingArea_rsl0-rcl100-esl29-rsm0-rcm44-esm29-rsr0-rcr25-esr29,exr/ReadingArea_rsl0-rcl100-esl29-rsm0-rcm44-esm29-rsr0-rcr25-esr29.exr,ReadingArea_rsl0-rcl100-esl29-rsm0-rcm44-esm29-rsr0-rcr25-esr29.npz,,,,,0,130,130,143,,left,green,2.54,893.6660709381104,894.1279129981995,,2,,4,7,lightness,readingArea,realistic,75,2023-03-27_09h59.33.997,tripletExp_regina_11082022,2022.2.4,120.03205201584286,
10,3,11,0,0.694444444444444,1.0,0,0.444444444444444,0.298245614035088,0,1.0,1.0,ReadingArea_rsl0-rcl69-esl100-rsm0-rcm44-esm29-rsr0-rcr100-esr100,exr/ReadingArea_rsl0-rcl69-esl100-rsm0-rcm44-esm29-rsr0-rcr100-esr100.exr,ReadingArea_rsl0-rcl69-esl100-rsm0-rcm44-esm29-rsr0-rcr100-esr100.npz,,,,,0,131,131,485,,left,green,2.99,897.5750498771667,898.0536749362946,,2,,4,7,lightness,readingArea,realistic,75,2023-03-27_09h59.33.997,tripletExp_regina_11082022,2022.2.4,120.03205201584286,
1,6,11,0,0.111111111111111,0.298245614035088,0,0.027777777777778,1.0,0,1.0,1.0,ReadingArea_rsl0-rcl11-esl29-rsm0-rcm2-esm100-rsr0-rcr100-esr100,exr/ReadingArea_rsl0-rcl11-esl29-rsm0-rcm2-esm100-rsr0-rcr100-esr100.exr,ReadingArea_rsl0-rcl11-esl29-rsm0-rcm2-esm100-rsr0-rcr100-esr100.npz,,,,,0,132,132,39,,left,green,1.99,901.5278298854828,901.9844698905944,,2,,4,7,lightness,readingArea,realistic,75,2023-03-27_09h59.33.997,tripletExp_regina_11082022,2022.2.4,120.03205201584286,
9,11,3,0,0.444444444444444,1.0,0,1.0,1.0,0,0.444444444444444,0.298245614035088,ReadingArea_rsl0-rcl44-esl100-rsm0-rcm100-esm100-rsr0-rcr44-esr29,exr/ReadingArea_rsl0-rcl44-esl100-rsm0-rcm100-esm100-rsr0-rcr44-esr29.exr,ReadingArea_rsl0-rcl44-esl100-rsm0-rcm100-esm100-rsr0-rcr44-esr29.npz,,,,,0,133,133,348,,left,green,2.96,905.472305059433,905.9443819522858,,2,,4,7,lightness,readingArea,realistic,75,2023-03-27_09h59.33.997,tripletExp_regina_11082022,2022.2.4,120.03205201584286,
0,8,12,0,0.027777777777778,0.298245614035088,0,0.25,1.0,0,0.027777777777778,3.10526315789474,ReadingArea_rsl0-rcl2-esl29-rsm0-rcm25-esm100-rsr0-rcr2-esr310,exr/ReadingArea_rsl0-rcl2-esl29-rsm0-rcm25-esm100-rsr0-rcr2-esr310.exr,ReadingArea_rsl0-rcl2-esl29-rsm0-rcm25-esm100-rsr0-rcr2-esr310.npz,,,,,0,134,134,314,,right,red,2.99,909.4272439479828,909.8989808559418,,2,,4,7,lightness,readingArea,realistic,75,2023-03-27_09h59.33.997,tripletExp_regina_11082022,2022.2.4,120.03205201584286,
1,13,11,0,0.111111111111111,0.298245614035088,0,0.111111111111111,3.10526315789474,0,1.0,1.0,ReadingArea_rsl0-rcl11-esl29-rsm0-rcm11-esm310-rsr0-rcr100-esr100,exr/ReadingArea_rsl0-rcl11-esl29-rsm0-rcm11-esm310-rsr0-rcr100-esr100.exr,ReadingArea_rsl0-rcl11-esl29-rsm0-rcm11-esm310-rsr0-rcr100-esr100.npz,,,,,0,135,135,333,,left,green,3.19,913.3887989521028,913.8511528968812,,2,,4,7,lightness,readingArea,realistic,75,2023-03-27_09h59.33.997,tripletExp_regina_11082022,2022.2.4,120.03205201584286,
5,10,12,0,1.0,0.298245614035088,0,0.694444444444444,1.0,0,0.027777777777778,3.10526315789474,ReadingArea_rsl0-rcl100-esl29-rsm0-rcm69-esm100-rsr0-rcr2-esr310,exr/ReadingArea_rsl0-rcl100-esl29-rsm0-rcm69-esm100-rsr0-rcr2-esr310.exr,ReadingArea_rsl0-rcl100-esl29-rsm0-rcm69-esm100-rsr0-rcr2-esr310.npz,,,,,0,136,136,587,,left,green,3.22,917.3331260681152,917.8161849975586,,2,,4,7,lightness,readingArea,realistic,75,2023-03-27_09h59.33.997,tripletExp_regina_11082022,2022.2.4,120.03205201584286,
14,13,2,0,0.25,3.10526315789474,0,0.111111111111111,3.10526315789474,0,0.25,0.298245614035088,ReadingArea_rsl0-rcl25-esl310-rsm0-rcm11-esm310-rsr0-rcr25-esr29,exr/ReadingArea_rsl0-rcl25-esl310-rsm0-rcm11-esm310-rsr0-rcr25-esr29.exr,ReadingArea_rsl0-rcl25-esl310-rsm0-rcm11-esm310-rsr0-rcr25-esr29.npz,,,,,0,137,137,377,,left,green,4.24,923.0633230209352,923.5206270217896,,2,,4,7,lightness,readingArea,realistic,75,2023-03-27_09h59.33.997,tripletExp_regina_11082022,2022.2.4,120.03205201584286,
3,0,4,0,0.444444444444444,0.298245614035088,0,0.027777777777778,0.298245614035088,0,0.694444444444444,0.298245614035088,ReadingArea_rsl0-rcl44-esl29-rsm0-rcm2-esm29-rsr0-rcr69-esr29,exr/ReadingArea_rsl0-rcl44-esl29-rsm0-rcm2-esm29-rsr0-rcr69-esr29.exr,ReadingArea_rsl0-rcl44-esl29-rsm0-rcm2-esm29-rsr0-rcr69-esr29.npz,,,,,0,138,138,111,,left,green,3.12,926.9937510490416,927.4774210453032,,2,,4,7,lightness,readingArea,realistic,75,2023-03-27_09h59.33.997,tripletExp_regina_11082022,2022.2.4,120.03205201584286,
2,12,13,0,0.25,0.298245614035088,0,0.027777777777778,3.10526315789474,0,0.111111111111111,3.10526315789474,ReadingArea_rsl0-rcl25-esl29-rsm0-rcm2-esm310-rsr0-rcr11-esr310,exr/ReadingArea_rsl0-rcl25-esl29-rsm0-rcm2-esm310-rsr0-rcr11-esr310.exr,ReadingArea_rsl0-rcl25-esl29-rsm0-rcm2-esm310-rsr0-rcr11-esr310.npz,,,,,0,139,139,232,,left,green,3.25,930.9436149597168,931.4184260368348,,2,,4,7,lightness,readingArea,realistic,75,2023-03-27_09h59.33.997,tripletExp_regina_11082022,2022.2.4,120.03205201584286,
5,13,7,0,1.0,0.298245614035088,0,0.111111111111111,3.10526315789474,0,0.111111111111111,1.0,ReadingArea_rsl0-rcl100-esl29-rsm0-rcm11-esm310-rsr0-rcr11-esr100,exr/ReadingArea_rsl0-rcl100-esl29-rsm0-rcm11-esm310-rsr0-rcr11-esr100.exr,ReadingArea_rsl0-rcl100-esl29-rsm0-rcm11-esm310-rsr0-rcr11-esr100.npz,,,,,0,140,140,189,,left,green,2.76,934.8983900547028,935.3659789562224,,2,,4,7,lightness,readingArea,realistic,75,2023-03-27_09h59.33.997,tripletExp_regina_11082022,2022.2.4,120.03205201584286,
7,4,1,0,0.111111111111111,1.0,0,0.694444444444444,0.298245614035088,0,0.111111111111111,0.298245614035088,ReadingArea_rsl0-rcl11-esl100-rsm0-rcm69-esm29-rsr0-rcr11-esr29,exr/ReadingArea_rsl0-rcl11-esl100-rsm0-rcm69-esm29-rsr0-rcr11-esr29.exr,ReadingArea_rsl0-rcl11-esl100-rsm0-rcm69-esm29-rsr0-rcr11-esr29.npz,,,,,0,141,141,369,,left,green,2.46,938.837236881256,939.3109769821168,,2,,4,7,lightness,readingArea,realistic,75,2023-03-27_09h59.33.997,tripletExp_regina_11082022,2022.2.4,120.03205201584286,
11,12,4,0,1.0,1.0,0,0.027777777777778,3.10526315789474,0,0.694444444444444,0.298245614035088,ReadingArea_rsl0-rcl100-esl100-rsm0-rcm2-esm310-rsr0-rcr69-esr29,exr/ReadingArea_rsl0-rcl100-esl100-rsm0-rcm2-esm310-rsr0-rcr69-esr29.exr,ReadingArea_rsl0-rcl100-esl100-rsm0-rcm2-esm310-rsr0-rcr69-esr29.npz,,,,,0,142,142,250,,right,red,2.99,942.7739429473876,943.2486109733582,,2,,4,7,lightness,readingArea,realistic,75,2023-03-27_09h59.33.997,tripletExp_regina_11082022,2022.2.4,120.03205201584286,
7,10,13,0,0.111111111111111,1.0,0,0.694444444444444,1.0,0,0.111111111111111,3.10526315789474,ReadingArea_rsl0-rcl11-esl100-rsm0-rcm69-esm100-rsr0-rcr11-esr310,exr/ReadingArea_rsl0-rcl11-esl100-rsm0-rcm69-esm100-rsr0-rcr11-esr310.exr,ReadingArea_rsl0-rcl11-esl100-rsm0-rcm69-esm100-rsr0-rcr11-esr310.npz,,,,,0,143,143,446,,right,red,2.9,946.7146708965302,947.1874799728394,,2,,4,7,lightness,readingArea,realistic,75,2023-03-27_09h59.33.997,tripletExp_regina_11082022,2022.2.4,120.03205201584286,
3,11,2,0,0.444444444444444,0.298245614035088,0,1.0,1.0,0,0.25,0.298245614035088,ReadingArea_rsl0-rcl44-esl29-rsm0-rcm100-esm100-rsr0-rcr25-esr29,exr/ReadingArea_rsl0-rcl44-esl29-rsm0-rcm100-esm100-rsr0-rcr25-esr29.exr,ReadingArea_rsl0-rcl44-esl29-rsm0-rcm100-esm100-rsr0-rcr25-esr29.npz,,,,,0,144,144,220,,left,green,2.93,950.6710879802704,951.1482088565826,,2,,4,7,lightness,readingArea,realistic,75,2023-03-27_09h59.33.997,tripletExp_regina_11082022,2022.2.4,120.03205201584286,
2,6,0,0,0.25,0.298245614035088,0,0.027777777777778,1.0,0,0.027777777777778,0.298245614035088,ReadingArea_rsl0-rcl25-esl29-rsm0-rcm2-esm100-rsr0-rcr2-esr29,exr/ReadingArea_rsl0-rcl25-esl29-rsm0-rcm2-esm100-rsr0-rcr2-esr29.exr,ReadingArea_rsl0-rcl25-esl29-rsm0-rcm2-esm100-rsr0-rcr2-esr29.npz,,,,,0,145,145,525,,right,red,4.22,956.3763899803162,956.8507208824158,,2,,4,7,lightness,readingArea,realistic,75,2023-03-27_09h59.33.997,tripletExp_regina_11082022,2022.2.4,120.03205201584286,
0,1,7,0,0.027777777777778,0.298245614035088,0,0.111111111111111,0.298245614035088,0,0.111111111111111,1.0,ReadingArea_rsl0-rcl2-esl29-rsm0-rcm11-esm29-rsr0-rcr11-esr100,exr/ReadingArea_rsl0-rcl2-esl29-rsm0-rcm11-esm29-rsr0-rcr11-esr100.exr,ReadingArea_rsl0-rcl2-esl29-rsm0-rcm11-esm29-rsr0-rcr11-esr100.npz,,,,,0,146,146,243,,right,red,4.62,962.0945439338684,962.5627839565276,,2,,4,7,lightness,readingArea,realistic,75,2023-03-27_09h59.33.997,tripletExp_regina_11082022,2022.2.4,120.03205201584286,
5,2,7,0,1.0,0.298245614035088,0,0.25,0.298245614035088,0,0.111111111111111,1.0,ReadingArea_rsl0-rcl100-esl29-rsm0-rcm25-esm29-rsr0-rcr11-esr100,exr/ReadingArea_rsl0-rcl100-esl29-rsm0-rcm25-esm29-rsr0-rcr11-esr100.exr,ReadingArea_rsl0-rcl100-esl29-rsm0-rcm25-esm29-rsr0-rcr11-esr100.npz,,,,,0,147,147,179,,right,red,3.04,966.0308730602264,,,2,,4,7,lightness,readingArea,realistic,75,2023-03-27_09h59.33.997,tripletExp_regina_11082022,2022.2.4,120.03205201584286,
6,1,10,0,0.027777777777778,1.0,0,0.111111111111111,0.298245614035088,0,0.694444444444444,1.0,ReadingArea_rsl0-rcl2-esl100-rsm0-rcm11-esm29-rsr0-rcr69-esr100,exr/ReadingArea_rsl0-rcl2-esl100-rsm0-rcm11-esm29-rsr0-rcr69-esr100.exr,ReadingArea_rsl0-rcl2-esl100-rsm0-rcm11-esm29-rsr0-rcr69-esr100.npz,,,,,0,148,148,561,,left,green,2.31,970.1284658908844,970.5968768596648,,2,,4,7,lightness,readingArea,realistic,75,2023-03-27_09h59.33.997,tripletExp_regina_11082022,2022.2.4,120.03205201584286,
10,4,8,0,0.694444444444444,1.0,0,0.694444444444444,0.298245614035088,0,0.25,1.0,ReadingArea_rsl0-rcl69-esl100-rsm0-rcm69-esm29-rsr0-rcr25-esr100,exr/ReadingArea_rsl0-rcl69-esl100-rsm0-rcm69-esm29-rsr0-rcr25-esr100.exr,ReadingArea_rsl0-rcl69-esl100-rsm0-rcm69-esm29-rsr0-rcr25-esr100.npz,,,,,0,149,149,562,,right,red,2.13,974.0529148578644,974.2558779716492,,2,,4,7,lightness,readingArea,realistic,75,2023-03-27_09h59.33.997,tripletExp_regina_11082022,2022.2.4,120.03205201584286,
3,1,0,0,0.444444444444444,0.298245614035088,0,0.111111111111111,0.298245614035088,0,0.027777777777778,0.298245614035088,ReadingArea_rsl0-rcl44-esl29-rsm0-rcm11-esm29-rsr0-rcr2-esr29,exr/ReadingArea_rsl0-rcl44-esl29-rsm0-rcm11-esm29-rsr0-rcr2-esr29.exr,ReadingArea_rsl0-rcl44-esl29-rsm0-rcm11-esm29-rsr0-rcr2-esr29.npz,,,,,0,150,150,343,,right,red,3.07,1038.9517970085144,1039.4129920005798,,3,,4,7,lightness,readingArea,realistic,75,2023-03-27_09h59.33.997,tripletExp_regina_11082022,2022.2.4,120.03205201584286,
4,0,1,0,0.694444444444444,0.298245614035088,0,0.027777777777778,0.298245614035088,0,0.111111111111111,0.298245614035088,ReadingArea_rsl0-rcl69-esl29-rsm0-rcm2-esm29-rsr0-rcr11-esr29,exr/ReadingArea_rsl0-rcl69-esl29-rsm0-rcm2-esm29-rsr0-rcr11-esr29.exr,ReadingArea_rsl0-rcl69-esl29-rsm0-rcm2-esm29-rsr0-rcr11-esr29.npz,,,,,0,151,151,173,,right,red,3.02,1042.879870891571,1043.3555779457092,,3,,4,7,lightness,readingArea,realistic,75,2023-03-27_09h59.33.997,tripletExp_regina_11082022,2022.2.4,120.03205201584286,
1,5,13,0,0.111111111111111,0.298245614035088,0,1.0,0.298245614035088,0,0.111111111111111,3.10526315789474,ReadingArea_rsl0-rcl11-esl29-rsm0-rcm100-esm29-rsr0-rcr11-esr310,exr/ReadingArea_rsl0-rcl11-esl29-rsm0-rcm100-esm29-rsr0-rcr11-esr310.exr,ReadingArea_rsl0-rcl11-esl29-rsm0-rcm100-esm29-rsr0-rcr11-esr310.npz,,,,,0,152,152,598,,right,red,3.2,1046.8250370025637,1047.294163942337,,3,,4,7,lightness,readingArea,realistic,75,2023-03-27_09h59.33.997,tripletExp_regina_11082022,2022.2.4,120.03205201584286,
13,3,7,0,0.111111111111111,3.10526315789474,0,0.444444444444444,0.298245614035088,0,0.111111111111111,1.0,ReadingArea_rsl0-rcl11-esl310-rsm0-rcm44-esm29-rsr0-rcr11-esr100,exr/ReadingArea_rsl0-rcl11-esl310-rsm0-rcm44-esm29-rsr0-rcr11-esr100.exr,ReadingArea_rsl0-rcl11-esl310-rsm0-rcm44-esm29-rsr0-rcr11-esr100.npz,,,,,0,153,153,497,,right,red,2.65,1050.7697639465332,1051.4252059459686,,3,,4,7,lightness,readingArea,realistic,75,2023-03-27_09h59.33.997,tripletExp_regina_11082022,2022.2.4,120.03205201584286,
4,10,9,0,0.694444444444444,0.298245614035088,0,0.694444444444444,1.0,0,0.444444444444444,1.0,ReadingArea_rsl0-rcl69-esl29-rsm0-rcm69-esm100-rsr0-rcr44-esr100,exr/ReadingArea_rsl0-rcl69-esl29-rsm0-rcm69-esm100-rsr0-rcr44-esr100.exr,ReadingArea_rsl0-rcl69-esl29-rsm0-rcm69-esm100-rsr0-rcr44-esr100.npz,,,,,0,154,154,516,,right,red,2.83,1054.8944618701937,1055.3664078712463,,3,,4,7,lightness,readingArea,realistic,75,2023-03-27_09h59.33.997,tripletExp_regina_11082022,2022.2.4,120.03205201584286,
0,14,11,0,0.027777777777778,0.298245614035088,0,0.25,3.10526315789474,0,1.0,1.0,ReadingArea_rsl0-rcl2-esl29-rsm0-rcm25-esm310-rsr0-rcr100-esr100,exr/ReadingArea_rsl0-rcl2-esl29-rsm0-rcm25-esm310-rsr0-rcr100-esr100.exr,ReadingArea_rsl0-rcl2-esl29-rsm0-rcm25-esm310-rsr0-rcr100-esr100.npz,,,,,0,155,155,557,,,red,2.83,1060.6178450584412,1061.0764770507812,,3,1060.208051943779,4,7,lightness,readingArea,realistic,75,2023-03-27_09h59.33.997,tripletExp_regina_11082022,2022.2.4,120.03205201584286,
3,0,2,0,0.444444444444444,0.298245614035088,0,0.027777777777778,0.298245614035088,0,0.25,0.298245614035088,ReadingArea_rsl0-rcl44-esl29-rsm0-rcm2-esm29-rsr0-rcr25-esr29,exr/ReadingArea_rsl0-rcl44-esl29-rsm0-rcm2-esm29-rsr0-rcr25-esr29.exr,ReadingArea_rsl0-rcl44-esl29-rsm0-rcm2-esm29-rsr0-rcr25-esr29.npz,,,,,0,156,156,334,,right,red,3.12,1064.5482850074768,1064.9945290088654,,3,,4,7,lightness,readingArea,realistic,75,2023-03-27_09h59.33.997,tripletExp_regina_11082022,2022.2.4,120.03205201584286,
13,1,7,0,0.111111111111111,3.10526315789474,0,0.111111111111111,0.298245614035088,0,0.111111111111111,1.0,ReadingArea_rsl0-rcl11-esl310-rsm0-rcm11-esm29-rsr0-rcr11-esr100,exr/ReadingArea_rsl0-rcl11-esl310-rsm0-rcm11-esm29-rsr0-rcr11-esr100.exr,ReadingArea_rsl0-rcl11-esl310-rsm0-rcm11-esm29-rsr0-rcr11-esr100.npz,,,,,0,157,157,206,,right,red,2.36,1068.4843609333038,1068.9632139205933,,3,,4,7,lightness,readingArea,realistic,75,2023-03-27_09h59.33.997,tripletExp_regina_11082022,2022.2.4,120.03205201584286,
3,6,10,0,0.444444444444444,0.298245614035088,0,0.027777777777778,1.0,0,0.694444444444444,1.0,ReadingArea_rsl0-rcl44-esl29-rsm0-rcm2-esm100-rsr0-rcr69-esr100,exr/ReadingArea_rsl0-rcl44-esl29-rsm0-rcm2-esm100-rsr0-rcr69-esr100.exr,ReadingArea_rsl0-rcl44-esl29-rsm0-rcm2-esm100-rsr0-rcr69-esr100.npz,,,,,0,158,158,138,,left,green,2.57,1072.4550008773804,1072.9965379238129,,3,,4,7,lightness,readingArea,realistic,75,2023-03-27_09h59.33.997,tripletExp_regina_11082022,2022.2.4,120.03205201584286,
6,13,0,0,0.027777777777778,1.0,0,0.111111111111111,3.10526315789474,0,0.027777777777778,0.298245614035088,ReadingArea_rsl0-rcl2-esl100-rsm0-rcm11-esm310-rsr0-rcr2-esr29,exr/ReadingArea_rsl0-rcl2-esl100-rsm0-rcm11-esm310-rsr0-rcr2-esr29.exr,ReadingArea_rsl0-rcl2-esl100-rsm0-rcm11-esm310-rsr0-rcr2-esr29.npz,,,,,0,159,159,580,,left,green,3.36,1076.4683649539948,1076.9525740146637,,3,,4,7,lightness,readingArea,realistic,75,2023-03-27_09h59.33.997,tripletExp_regina_11082022,2022.2.4,120.03205201584286,
1,5,14,0,0.111111111111111,0.298245614035088,0,1.0,0.298245614035088,0,0.25,3.10526315789474,ReadingArea_rsl0-rcl11-esl29-rsm0-rcm100-esm29-rsr0-rcr25-esr310,exr/ReadingArea_rsl0-rcl11-esl29-rsm0-rcm100-esm29-rsr0-rcr25-esr310.exr,ReadingArea_rsl0-rcl11-esl29-rsm0-rcm100-esm29-rsr0-rcr25-esr310.npz,,,,,0,160,160,191,,left,green,3.92,1082.2159168720243,,,3,,4,7,lightness,readingArea,realistic,75,2023-03-27_09h59.33.997,tripletExp_regina_11082022,2022.2.4,120.03205201584286,
10,0,14,0,0.694444444444444,1.0,0,0.027777777777778,0.298245614035088,0,0.25,3.10526315789474,ReadingArea_rsl0-rcl69-esl100-rsm0-rcm2-esm29-rsr0-rcr25-esr310,exr/ReadingArea_rsl0-rcl69-esl100-rsm0-rcm2-esm29-rsr0-rcr25-esr310.exr,ReadingArea_rsl0-rcl69-esl100-rsm0-rcm2-esm29-rsr0-rcr25-esr310.npz,,,,,0,161,161,95,,left,green,3.96,1087.931804895401,1088.417312860489,,3,,4,7,lightness,readingArea,realistic,75,2023-03-27_09h59.33.997,tripletExp_regina_11082022,2022.2.4,120.03205201584286,
6,1,14,0,0.027777777777778,1.0,0,0.111111111111111,0.298245614035088,0,0.25,3.10526315789474,ReadingArea_rsl0-rcl2-esl100-rsm0-rcm11-esm29-rsr0-rcr25-esr310,exr/ReadingArea_rsl0-rcl2-esl100-rsm0-rcm11-esm29-rsr0-rcr25-esr310.exr,ReadingArea_rsl0-rcl2-esl100-rsm0-rcm11-esm29-rsr0-rcr25-esr310.npz,,,,,0,162,162,381,,left,green,2.05,1091.8883609771729,1092.361664056778,,3,,4,7,lightness,readingArea,realistic,75,2023-03-27_09h59.33.997,tripletExp_regina_11082022,2022.2.4,120.03205201584286,
5,6,0,0,1.0,0.298245614035088,0,0.027777777777778,1.0,0,0.027777777777778,0.298245614035088,ReadingArea_rsl0-rcl100-esl29-rsm0-rcm2-esm100-rsr0-rcr2-esr29,exr/ReadingArea_rsl0-rcl100-esl29-rsm0-rcm2-esm100-rsr0-rcr2-esr29.exr,ReadingArea_rsl0-rcl100-esl29-rsm0-rcm2-esm100-rsr0-rcr2-esr29.npz,,,,,0,163,163,511,,right,red,2.94,1095.827122926712,1096.3057689666748,,3,,4,7,lightness,readingArea,realistic,75,2023-03-27_09h59.33.997,tripletExp_regina_11082022,2022.2.4,120.03205201584286,
12,8,3,0,0.027777777777778,3.10526315789474,0,0.25,1.0,0,0.444444444444444,0.298245614035088,ReadingArea_rsl0-rcl2-esl310-rsm0-rcm25-esm100-rsr0-rcr44-esr29,exr/ReadingArea_rsl0-rcl2-esl310-rsm0-rcm25-esm100-rsr0-rcr44-esr29.exr,ReadingArea_rsl0-rcl2-esl310-rsm0-rcm25-esm100-rsr0-rcr44-esr29.npz,,,,,0,164,164,386,,right,red,3.65,1101.5672838687897,1102.1565039157867,,3,,4,7,lightness,readingArea,realistic,75,2023-03-27_09h59.33.997,tripletExp_regina_11082022,2022.2.4,120.03205201584286,
1,4,7,0,0.111111111111111,0.298245614035088,0,0.694444444444444,0.298245614035088,0,0.111111111111111,1.0,ReadingArea_rsl0-rcl11-esl29-rsm0-rcm69-esm29-rsr0-rcr11-esr100,exr/ReadingArea_rsl0-rcl11-esl29-rsm0-rcm69-esm29-rsr0-rcr11-esr100.exr,ReadingArea_rsl0-rcl11-esl29-rsm0-rcm69-esm29-rsr0-rcr11-esr100.npz,,,,,0,165,165,522,,right,red,3.96,1107.3992409706116,1107.881644964218,,3,,4,7,lightness,readingArea,realistic,75,2023-03-27_09h59.33.997,tripletExp_regina_11082022,2022.2.4,120.03205201584286,
14,2,6,0,0.25,3.10526315789474,0,0.25,0.298245614035088,0,0.027777777777778,1.0,ReadingArea_rsl0-rcl25-esl310-rsm0-rcm25-esm29-rsr0-rcr2-esr100,exr/ReadingArea_rsl0-rcl25-esl310-rsm0-rcm25-esm29-rsr0-rcr2-esr100.exr,ReadingArea_rsl0-rcl25-esl310-rsm0-rcm25-esm29-rsr0-rcr2-esr100.npz,,,,,0,166,166,350,,right,red,3.29,1111.3649408817291,1111.8155510425568,,3,,4,7,lightness,readingArea,realistic,75,2023-03-27_09h59.33.997,tripletExp_regina_11082022,2022.2.4,120.03205201584286,
8,0,6,0,0.25,1.0,0,0.027777777777778,0.298245614035088,0,0.027777777777778,1.0,ReadingArea_rsl0-rcl25-esl100-rsm0-rcm2-esm29-rsr0-rcr2-esr100,exr/ReadingArea_rsl0-rcl25-esl100-rsm0-rcm2-esm29-rsr0-rcr2-esr100.exr,ReadingArea_rsl0-rcl25-esl100-rsm0-rcm2-esm29-rsr0-rcr2-esr100.npz,,,,,0,167,167,401,,right,red,2.62,1115.297772884369,1115.7666928768158,,3,,4,7,lightness,readingArea,realistic,75,2023-03-27_09h59.33.997,tripletExp_regina_11082022,2022.2.4,120.03205201584286,
2,11,14,0,0.25,0.298245614035088,0,1.0,1.0,0,0.25,3.10526315789474,ReadingArea_rsl0-rcl25-esl29-rsm0-rcm100-esm100-rsr0-rcr25-esr310,exr/ReadingArea_rsl0-rcl25-esl29-rsm0-rcm100-esm100-rsr0-rcr25-esr310.exr,ReadingArea_rsl0-rcl25-esl29-rsm0-rcm100-esm100-rsr0-rcr25-esr310.npz,,,,,0,168,168,534,,right,red,4.83,1121.0250709056854,1121.4877760410309,,3,,4,7,lightness,readingArea,realistic,75,2023-03-27_09h59.33.997,tripletExp_regina_11082022,2022.2.4,120.03205201584286,
2,8,11,0,0.25,0.298245614035088,0,0.25,1.0,0,1.0,1.0,ReadingArea_rsl0-rcl25-esl29-rsm0-rcm25-esm100-rsr0-rcr100-esr100,exr/ReadingArea_rsl0-rcl25-esl29-rsm0-rcm25-esm100-rsr0-rcr100-esr100.exr,ReadingArea_rsl0-rcl25-esl29-rsm0-rcm25-esm100-rsr0-rcr100-esr100.npz,,,,,0,169,169,225,,left,green,4.42,1126.7614278793335,1127.3441190719604,,3,,4,7,lightness,readingArea,realistic,75,2023-03-27_09h59.33.997,tripletExp_regina_11082022,2022.2.4,120.03205201584286,
12,6,9,0,0.027777777777778,3.10526315789474,0,0.027777777777778,1.0,0,0.444444444444444,1.0,ReadingArea_rsl0-rcl2-esl310-rsm0-rcm2-esm100-rsr0-rcr44-esr100,exr/ReadingArea_rsl0-rcl2-esl310-rsm0-rcm2-esm100-rsr0-rcr44-esr100.exr,ReadingArea_rsl0-rcl2-esl310-rsm0-rcm2-esm100-rsr0-rcr44-esr100.npz,,,,,0,170,170,177,,left,green,4.11,1132.5937039852142,1133.152214050293,,3,,4,7,lightness,readingArea,realistic,75,2023-03-27_09h59.33.997,tripletExp_regina_11082022,2022.2.4,120.03205201584286,
0,7,13,0,0.027777777777778,0.298245614035088,0,0.111111111111111,1.0,0,0.111111111111111,3.10526315789474,ReadingArea_rsl0-rcl2-esl29-rsm0-rcm11-esm100-rsr0-rcr11-esr310,exr/ReadingArea_rsl0-rcl2-esl29-rsm0-rcm11-esm100-rsr0-rcr11-esr310.exr,ReadingArea_rsl0-rcl2-esl29-rsm0-rcm11-esm100-rsr0-rcr11-esr310.npz,,,,,0,171,171,159,,right,red,4.13,1138.3893899917605,1138.861073970795,,3,,4,7,lightness,readingArea,realistic,75,2023-03-27_09h59.33.997,tripletExp_regina_11082022,2022.2.4,120.03205201584286,
1,12,6,0,0.111111111111111,0.298245614035088,0,0.027777777777778,3.10526315789474,0,0.027777777777778,1.0,ReadingArea_rsl0-rcl11-esl29-rsm0-rcm2-esm310-rsr0-rcr2-esr100,exr/ReadingArea_rsl0-rcl11-esl29-rsm0-rcm2-esm310-rsr0-rcr2-esr100.exr,ReadingArea_rsl0-rcl11-esl29-rsm0-rcm2-esm310-rsr0-rcr2-esr100.npz,,,,,0,172,172,277,,left,green,3.92,1144.081556081772,1144.7248139381409,,3,,4,7,lightness,readingArea,realistic,75,2023-03-27_09h59.33.997,tripletExp_regina_11082022,2022.2.4,120.03205201584286,
0,8,6,0,0.027777777777778,0.298245614035088,0,0.25,1.0,0,0.027777777777778,1.0,ReadingArea_rsl0-rcl2-esl29-rsm0-rcm25-esm100-rsr0-rcr2-esr100,exr/ReadingArea_rsl0-rcl2-esl29-rsm0-rcm25-esm100-rsr0-rcr2-esr100.exr,ReadingArea_rsl0-rcl2-esl29-rsm0-rcm25-esm100-rsr0-rcr2-esr100.npz,,,,,0,173,173,92,,right,red,3.83,1149.9462790489197,1150.4073748588562,,3,,4,7,lightness,readingArea,realistic,75,2023-03-27_09h59.33.997,tripletExp_regina_11082022,2022.2.4,120.03205201584286,
13,3,12,0,0.111111111111111,3.10526315789474,0,0.444444444444444,0.298245614035088,0,0.027777777777778,3.10526315789474,ReadingArea_rsl0-rcl11-esl310-rsm0-rcm44-esm29-rsr0-rcr2-esr310,exr/ReadingArea_rsl0-rcl11-esl310-rsm0-rcm44-esm29-rsr0-rcr2-esr310.exr,ReadingArea_rsl0-rcl11-esl310-rsm0-rcm44-esm29-rsr0-rcr2-esr310.npz,,,,,0,174,174,80,,right,red,4.49,1155.6300809383392,1156.162631034851,,3,,4,7,lightness,readingArea,realistic,75,2023-03-27_09h59.33.997,tripletExp_regina_11082022,2022.2.4,120.03205201584286,
7,8,11,0,0.111111111111111,1.0,0,0.25,1.0,0,1.0,1.0,ReadingArea_rsl0-rcl11-esl100-rsm0-rcm25-esm100-rsr0-rcr100-esr100,exr/ReadingArea_rsl0-rcl11-esl100-rsm0-rcm25-esm100-rsr0-rcr100-esr100.exr,ReadingArea_rsl0-rcl11-esl100-rsm0-rcm25-esm100-rsr0-rcr100-esr100.npz,,,,,0,175,175,363,,right,red,4.61,1161.364264011383,1161.8884449005127,,3,,4,7,lightness,readingArea,realistic,75,2023-03-27_09h59.33.997,tripletExp_regina_11082022,2022.2.4,120.03205201584286,
13,3,14,0,0.111111111111111,3.10526315789474,0,0.444444444444444,0.298245614035088,0,0.25,3.10526315789474,ReadingArea_rsl0-rcl11-esl310-rsm0-rcm44-esm29-rsr0-rcr25-esr310,exr/ReadingArea_rsl0-rcl11-esl310-rsm0-rcm44-esm29-rsr0-rcr25-esr310.exr,ReadingArea_rsl0-rcl11-esl310-rsm0-rcm44-esm29-rsr0-rcr25-esr310.npz,,,,,0,176,176,38,,left,green,3.83,1167.1277759075165,1167.6529049873352,,3,,4,7,lightness,readingArea,realistic,75,2023-03-27_09h59.33.997,tripletExp_regina_11082022,2022.2.4,120.03205201584286,
7,8,6,0,0.111111111111111,1.0,0,0.25,1.0,0,0.027777777777778,1.0,ReadingArea_rsl0-rcl11-esl100-rsm0-rcm25-esm100-rsr0-rcr2-esr100,exr/ReadingArea_rsl0-rcl11-esl100-rsm0-rcm25-esm100-rsr0-rcr2-esr100.exr,ReadingArea_rsl0-rcl11-esl100-rsm0-rcm25-esm100-rsr0-rcr2-esr100.npz,,,,,0,177,177,387,,left,green,2.43,1171.1194670200348,1171.5863530635834,,3,,4,7,lightness,readingArea,realistic,75,2023-03-27_09h59.33.997,tripletExp_regina_11082022,2022.2.4,120.03205201584286,
3,6,13,0,0.444444444444444,0.298245614035088,0,0.027777777777778,1.0,0,0.111111111111111,3.10526315789474,ReadingArea_rsl0-rcl44-esl29-rsm0-rcm2-esm100-rsr0-rcr11-esr310,exr/ReadingArea_rsl0-rcl44-esl29-rsm0-rcm2-esm100-rsr0-rcr11-esr310.exr,ReadingArea_rsl0-rcl44-esl29-rsm0-rcm2-esm100-rsr0-rcr11-esr310.npz,,,,,0,178,178,449,,left,green,4.28,1176.864326953888,,,3,,4,7,lightness,readingArea,realistic,75,2023-03-27_09h59.33.997,tripletExp_regina_11082022,2022.2.4,120.03205201584286,
12,9,11,0,0.027777777777778,3.10526315789474,0,0.444444444444444,1.0,0,1.0,1.0,ReadingArea_rsl0-rcl2-esl310-rsm0-rcm44-esm100-rsr0-rcr100-esr100,exr/ReadingArea_rsl0-rcl2-esl310-rsm0-rcm44-esm100-rsr0-rcr100-esr100.exr,ReadingArea_rsl0-rcl2-esl310-rsm0-rcm44-esm100-rsr0-rcr100-esr100.npz,,,,,0,179,179,18,,left,green,3.75,1182.5827140808103,1183.0457980632782,,3,,4,7,lightness,readingArea,realistic,75,2023-03-27_09h59.33.997,tripletExp_regina_11082022,2022.2.4,120.03205201584286,
10,11,13,0,0.694444444444444,1.0,0,1.0,1.0,0,0.111111111111111,3.10526315789474,ReadingArea_rsl0-rcl69-esl100-rsm0-rcm100-esm100-rsr0-rcr11-esr310,exr/ReadingArea_rsl0-rcl69-esl100-rsm0-rcm100-esm100-rsr0-rcr11-esr310.exr,ReadingArea_rsl0-rcl69-esl100-rsm0-rcm100-esm100-rsr0-rcr11-esr310.npz,,,,,0,180,180,79,,right,red,4.59,1188.2865550518036,1188.7681739330292,,3,,4,7,lightness,readingArea,realistic,75,2023-03-27_09h59.33.997,tripletExp_regina_11082022,2022.2.4,120.03205201584286,
3,1,6,0,0.444444444444444,0.298245614035088,0,0.111111111111111,0.298245614035088,0,0.027777777777778,1.0,ReadingArea_rsl0-rcl44-esl29-rsm0-rcm11-esm29-rsr0-rcr2-esr100,exr/ReadingArea_rsl0-rcl44-esl29-rsm0-rcm11-esm29-rsr0-rcr2-esr100.exr,ReadingArea_rsl0-rcl44-esl29-rsm0-rcm11-esm29-rsr0-rcr2-esr100.npz,,,,,0,181,181,464,,right,red,4.2,1194.0187330245972,1194.5037739276886,,3,,4,7,lightness,readingArea,realistic,75,2023-03-27_09h59.33.997,tripletExp_regina_11082022,2022.2.4,120.03205201584286,
4,12,5,0,0.694444444444444,0.298245614035088,0,0.027777777777778,3.10526315789474,0,1.0,0.298245614035088,ReadingArea_rsl0-rcl69-esl29-rsm0-rcm2-esm310-rsr0-rcr100-esr29,exr/ReadingArea_rsl0-rcl69-esl29-rsm0-rcm2-esm310-rsr0-rcr100-esr29.exr,ReadingArea_rsl0-rcl69-esl29-rsm0-rcm2-esm310-rsr0-rcr100-esr29.npz,,,,,0,182,182,296,,left,green,2.05,1197.9945750236511,1198.454048871994,,3,,4,7,lightness,readingArea,realistic,75,2023-03-27_09h59.33.997,tripletExp_regina_11082022,2022.2.4,120.03205201584286,
9,0,3,0,0.444444444444444,1.0,0,0.027777777777778,0.298245614035088,0,0.444444444444444,0.298245614035088,ReadingArea_rsl0-rcl44-esl100-rsm0-rcm2-esm29-rsr0-rcr44-esr29,exr/ReadingArea_rsl0-rcl44-esl100-rsm0-rcm2-esm29-rsr0-rcr44-esr29.exr,ReadingArea_rsl0-rcl44-esl100-rsm0-rcm2-esm29-rsr0-rcr44-esr29.npz,,,,,0,183,183,2,,right,red,3.98,1203.705626964569,1204.2684180736542,,3,,4,7,lightness,readingArea,realistic,75,2023-03-27_09h59.33.997,tripletExp_regina_11082022,2022.2.4,120.03205201584286,
6,11,8,0,0.027777777777778,1.0,0,1.0,1.0,0,0.25,1.0,ReadingArea_rsl0-rcl2-esl100-rsm0-rcm100-esm100-rsr0-rcr25-esr100,exr/ReadingArea_rsl0-rcl2-esl100-rsm0-rcm100-esm100-rsr0-rcr25-esr100.exr,ReadingArea_rsl0-rcl2-esl100-rsm0-rcm100-esm100-rsr0-rcr25-esr100.npz,,,,,0,184,184,176,,right,red,2.89,1207.7375619411469,1208.222606897354,,3,,4,7,lightness,readingArea,realistic,75,2023-03-27_09h59.33.997,tripletExp_regina_11082022,2022.2.4,120.03205201584286,
10,5,2,0,0.694444444444444,1.0,0,1.0,0.298245614035088,0,0.25,0.298245614035088,ReadingArea_rsl0-rcl69-esl100-rsm0-rcm100-esm29-rsr0-rcr25-esr29,exr/ReadingArea_rsl0-rcl69-esl100-rsm0-rcm100-esm29-rsr0-rcr25-esr29.exr,ReadingArea_rsl0-rcl69-esl100-rsm0-rcm100-esm29-rsr0-rcr25-esr29.npz,,,,,0,185,185,299,,right,red,4.83,1213.4658839702606,1213.9470670223236,,3,,4,7,lightness,readingArea,realistic,75,2023-03-27_09h59.33.997,tripletExp_regina_11082022,2022.2.4,120.03205201584286,
2,5,0,0,0.25,0.298245614035088,0,1.0,0.298245614035088,0,0.027777777777778,0.298245614035088,ReadingArea_rsl0-rcl25-esl29-rsm0-rcm100-esm29-rsr0-rcr2-esr29,exr/ReadingArea_rsl0-rcl25-esl29-rsm0-rcm100-esm29-rsr0-rcr2-esr29.exr,ReadingArea_rsl0-rcl25-esl29-rsm0-rcm100-esm29-rsr0-rcr2-esr29.npz,,,,,0,186,186,414,,left,green,2.91,1217.4309630393982,1217.8976409435272,,3,,4,7,lightness,readingArea,realistic,75,2023-03-27_09h59.33.997,tripletExp_regina_11082022,2022.2.4,120.03205201584286,
1,14,7,0,0.111111111111111,0.298245614035088,0,0.25,3.10526315789474,0,0.111111111111111,1.0,ReadingArea_rsl0-rcl11-esl29-rsm0-rcm25-esm310-rsr0-rcr11-esr100,exr/ReadingArea_rsl0-rcl11-esl29-rsm0-rcm25-esm310-rsr0-rcr11-esr100.exr,ReadingArea_rsl0-rcl11-esl29-rsm0-rcm25-esm310-rsr0-rcr11-esr100.npz,,,,,0,187,187,583,,right,red,2.27,1221.3837909698486,1221.8550889492035,,3,,4,7,lightness,readingArea,realistic,75,2023-03-27_09h59.33.997,tripletExp_regina_11082022,2022.2.4,120.03205201584286,
1,10,0,0,0.111111111111111,0.298245614035088,0,0.694444444444444,1.0,0,0.027777777777778,0.298245614035088,ReadingArea_rsl0-rcl11-esl29-rsm0-rcm69-esm100-rsr0-rcr2-esr29,exr/ReadingArea_rsl0-rcl11-esl29-rsm0-rcm69-esm100-rsr0-rcr2-esr29.exr,ReadingArea_rsl0-rcl11-esl29-rsm0-rcm69-esm100-rsr0-rcr2-esr29.npz,,,,,0,188,188,196,,left,green,2.73,1225.340611934662,1225.8207759857178,,3,,4,7,lightness,readingArea,realistic,75,2023-03-27_09h59.33.997,tripletExp_regina_11082022,2022.2.4,120.03205201584286,
13,1,4,0,0.111111111111111,3.10526315789474,0,0.111111111111111,0.298245614035088,0,0.694444444444444,0.298245614035088,ReadingArea_rsl0-rcl11-esl310-rsm0-rcm11-esm29-rsr0-rcr69-esr29,exr/ReadingArea_rsl0-rcl11-esl310-rsm0-rcm11-esm29-rsr0-rcr69-esr29.exr,ReadingArea_rsl0-rcl11-esl310-rsm0-rcm11-esm29-rsr0-rcr69-esr29.npz,,,,,0,189,189,396,,right,red,3.77,1231.05490899086,1231.5279228687286,,3,,4,7,lightness,readingArea,realistic,75,2023-03-27_09h59.33.997,tripletExp_regina_11082022,2022.2.4,120.03205201584286,
4,10,11,0,0.694444444444444,0.298245614035088,0,0.694444444444444,1.0,0,1.0,1.0,ReadingArea_rsl0-rcl69-esl29-rsm0-rcm69-esm100-rsr0-rcr100-esr100,exr/ReadingArea_rsl0-rcl69-esl29-rsm0-rcm69-esm100-rsr0-rcr100-esr100.exr,ReadingArea_rsl0-rcl69-esl29-rsm0-rcm69-esm100-rsr0-rcr100-esr100.npz,,,,,0,190,190,180,,right,red,4.21,1236.7799439430237,1237.3310549259186,,3,,4,7,lightness,readingArea,realistic,75,2023-03-27_09h59.33.997,tripletExp_regina_11082022,2022.2.4,120.03205201584286,
14,7,13,0,0.25,3.10526315789474,0,0.111111111111111,1.0,0,0.111111111111111,3.10526315789474,ReadingArea_rsl0-rcl25-esl310-rsm0-rcm11-esm100-rsr0-rcr11-esr310,exr/ReadingArea_rsl0-rcl25-esl310-rsm0-rcm11-esm100-rsr0-rcr11-esr310.exr,ReadingArea_rsl0-rcl25-esl310-rsm0-rcm11-esm100-rsr0-rcr11-esr310.npz,,,,,0,191,191,358,,right,red,3.23,1240.7940628528595,1241.2649228572843,,3,,4,7,lightness,readingArea,realistic,75,2023-03-27_09h59.33.997,tripletExp_regina_11082022,2022.2.4,120.03205201584286,
5,0,10,0,1.0,0.298245614035088,0,0.027777777777778,0.298245614035088,0,0.694444444444444,1.0,ReadingArea_rsl0-rcl100-esl29-rsm0-rcm2-esm29-rsr0-rcr69-esr100,exr/ReadingArea_rsl0-rcl100-esl29-rsm0-rcm2-esm29-rsr0-rcr69-esr100.exr,ReadingArea_rsl0-rcl100-esl29-rsm0-rcm2-esm29-rsr0-rcr69-esr100.npz,,,,,0,192,192,361,,left,green,2.25,1244.7339069843292,1245.2361619472504,,3,,4,7,lightness,readingArea,realistic,75,2023-03-27_09h59.33.997,tripletExp_regina_11082022,2022.2.4,120.03205201584286,
3,13,1,0,0.444444444444444,0.298245614035088,0,0.111111111111111,3.10526315789474,0,0.111111111111111,0.298245614035088,ReadingArea_rsl0-rcl44-esl29-rsm0-rcm11-esm310-rsr0-rcr11-esr29,exr/ReadingArea_rsl0-rcl44-esl29-rsm0-rcm11-esm310-rsr0-rcr11-esr29.exr,ReadingArea_rsl0-rcl44-esl29-rsm0-rcm11-esm310-rsr0-rcr11-esr29.npz,,,,,0,193,193,421,,left,green,2.78,1248.7025170326233,1249.1934459209442,,3,,4,7,lightness,readingArea,realistic,75,2023-03-27_09h59.33.997,tripletExp_regina_11082022,2022.2.4,120.03205201584286,
6,3,13,0,0.027777777777778,1.0,0,0.444444444444444,0.298245614035088,0,0.111111111111111,3.10526315789474,ReadingArea_rsl0-rcl2-esl100-rsm0-rcm44-esm29-rsr0-rcr11-esr310,exr/ReadingArea_rsl0-rcl2-esl100-rsm0-rcm44-esm29-rsr0-rcr11-esr310.exr,ReadingArea_rsl0-rcl2-esl100-rsm0-rcm44-esm29-rsr0-rcr11-esr310.npz,,,,,0,194,194,228,,right,red,4.19,1254.456866025925,1255.025799036026,,3,,4,7,lightness,readingArea,realistic,75,2023-03-27_09h59.33.997,tripletExp_regina_11082022,2022.2.4,120.03205201584286,
7,9,8,0,0.111111111111111,1.0,0,0.444444444444444,1.0,0,0.25,1.0,ReadingArea_rsl0-rcl11-esl100-rsm0-rcm44-esm100-rsr0-rcr25-esr100,exr/ReadingArea_rsl0-rcl11-esl100-rsm0-rcm44-esm100-rsr0-rcr25-esr100.exr,ReadingArea_rsl0-rcl11-esl100-rsm0-rcm44-esm100-rsr0-rcr25-esr100.npz,,,,,0,195,195,515,,right,red,3.1,1258.4911370277405,1258.9577360153198,,3,,4,7,lightness,readingArea,realistic,75,2023-03-27_09h59.33.997,tripletExp_regina_11082022,2022.2.4,120.03205201584286,
9,2,12,0,0.444444444444444,1.0,0,0.25,0.298245614035088,0,0.027777777777778,3.10526315789474,ReadingArea_rsl0-rcl44-esl100-rsm0-rcm25-esm29-rsr0-rcr2-esr310,exr/ReadingArea_rsl0-rcl44-esl100-rsm0-rcm25-esm29-rsr0-rcr2-esr310.exr,ReadingArea_rsl0-rcl44-esl100-rsm0-rcm25-esm29-rsr0-rcr2-esr310.npz,,,,,0,196,196,391,,right,red,2.67,1262.441456079483,1262.9115278720856,,3,,4,7,lightness,readingArea,realistic,75,2023-03-27_09h59.33.997,tripletExp_regina_11082022,2022.2.4,120.03205201584286,
2,1,8,0,0.25,0.298245614035088,0,0.111111111111111,0.298245614035088,0,0.25,1.0,ReadingArea_rsl0-rcl25-esl29-rsm0-rcm11-esm29-rsr0-rcr25-esr100,exr/ReadingArea_rsl0-rcl25-esl29-rsm0-rcm11-esm29-rsr0-rcr25-esr100.exr,ReadingArea_rsl0-rcl25-esl29-rsm0-rcm11-esm29-rsr0-rcr25-esr100.npz,,,,,0,197,197,125,,left,green,3.12,1266.3716468811035,1266.8472290039062,,3,,4,7,lightness,readingArea,realistic,75,2023-03-27_09h59.33.997,tripletExp_regina_11082022,2022.2.4,120.03205201584286,
5,2,14,0,1.0,0.298245614035088,0,0.25,0.298245614035088,0,0.25,3.10526315789474,ReadingArea_rsl0-rcl100-esl29-rsm0-rcm25-esm29-rsr0-rcr25-esr310,exr/ReadingArea_rsl0-rcl100-esl29-rsm0-rcm25-esm29-rsr0-rcr25-esr310.exr,ReadingArea_rsl0-rcl100-esl29-rsm0-rcm25-esm29-rsr0-rcr25-esr310.npz,,,,,0,198,198,462,,left,green,2.98,1270.3338260650637,1270.8171620368958,,3,,4,7,lightness,readingArea,realistic,75,2023-03-27_09h59.33.997,tripletExp_regina_11082022,2022.2.4,120.03205201584286,
6,4,2,0,0.027777777777778,1.0,0,0.694444444444444,0.298245614035088,0,0.25,0.298245614035088,ReadingArea_rsl0-rcl2-esl100-rsm0-rcm69-esm29-rsr0-rcr25-esr29,exr/ReadingArea_rsl0-rcl2-esl100-rsm0-rcm69-esm29-rsr0-rcr25-esr29.exr,ReadingArea_rsl0-rcl2-esl100-rsm0-rcm69-esm29-rsr0-rcr25-esr29.npz,,,,,0,199,199,134,,right,red,3.91,1276.0705769062042,1276.5525929927826,,3,,4,7,lightness,readingArea,realistic,75,2023-03-27_09h59.33.997,tripletExp_regina_11082022,2022.2.4,120.03205201584286,
3,7,8,0,0.444444444444444,0.298245614035088,0,0.111111111111111,1.0,0,0.25,1.0,ReadingArea_rsl0-rcl44-esl29-rsm0-rcm11-esm100-rsr0-rcr25-esr100,exr/ReadingArea_rsl0-rcl44-esl29-rsm0-rcm11-esm100-rsr0-rcr25-esr100.exr,ReadingArea_rsl0-rcl44-esl29-rsm0-rcm11-esm100-rsr0-rcr25-esr100.npz,,,,,0,200,200,246,,left,green,2.7,1280.0287289619446,1280.5061609745026,,3,,4,7,lightness,readingArea,realistic,75,2023-03-27_09h59.33.997,tripletExp_regina_11082022,2022.2.4,120.03205201584286,
10,11,12,0,0.694444444444444,1.0,0,1.0,1.0,0,0.027777777777778,3.10526315789474,ReadingArea_rsl0-rcl69-esl100-rsm0-rcm100-esm100-rsr0-rcr2-esr310,exr/ReadingArea_rsl0-rcl69-esl100-rsm0-rcm100-esm100-rsr0-rcr2-esr310.exr,ReadingArea_rsl0-rcl69-esl100-rsm0-rcm100-esm100-rsr0-rcr2-esr310.npz,,,,,0,201,201,533,,left,green,4.49,1285.7399308681488,,,3,,4,7,lightness,readingArea,realistic,75,2023-03-27_09h59.33.997,tripletExp_regina_11082022,2022.2.4,120.03205201584286,
13,0,4,0,0.111111111111111,3.10526315789474,0,0.027777777777778,0.298245614035088,0,0.694444444444444,0.298245614035088,ReadingArea_rsl0-rcl11-esl310-rsm0-rcm2-esm29-rsr0-rcr69-esr29,exr/ReadingArea_rsl0-rcl11-esl310-rsm0-rcm2-esm29-rsr0-rcr69-esr29.exr,ReadingArea_rsl0-rcl11-esl310-rsm0-rcm2-esm29-rsr0-rcr69-esr29.npz,,,,,0,202,202,270,,right,red,4.58,1291.4767489433289,1291.9752340316772,,3,,4,7,lightness,readingArea,realistic,75,2023-03-27_09h59.33.997,tripletExp_regina_11082022,2022.2.4,120.03205201584286,
