index_left,index_middle,index_right,reflectance_surround_left,reflectance_center_left,emission_spot_left,reflectance_surround_middle,reflectance_center_middle,emission_spot_middle,reflectance_surround_right,reflectance_center_right,emission_spot_right,ImageName,ImageExr,ImageNpy,trials_2.thisRepN,trials_2.thisTrialN,trials_2.thisN,trials_2.thisIndex,trials.thisRepN,trials.thisTrialN,trials.thisN,trials.thisIndex,sound_1.started,BB_Trial.resp,BB_Trial.color,BB_Trial.rt,text.started,text.stopped,sound_1.stopped,sound_2.started,block,sound_4.started,participant,session,L/B,scene,condition,nTrialsPerBlock,date,expName,psychopyVersion,frameRate,Unnamed: 43
11,6,14,0,1.0,1.0,0,0.027777777777778,1.0,0,0.25,3.10526315789474,ReadingArea_rsl0-rcl100-esl100-rsm0-rcm2-esm100-rsr0-rcr25-esr310,exr/ReadingArea_rsl0-rcl100-esl100-rsm0-rcm2-esm100-rsr0-rcr25-esr310.exr,ReadingArea_rsl0-rcl100-esl100-rsm0-rcm2-esm100-rsr0-rcr25-esr310.npz,,,,,0,0,0,305,1679.108564710617,left,green,1.57,1703.3182151317596,1673.8676011562347,1601.241380929947,1616.9444197177886,1,,6,1,lightness,readingArea,realistic,75,2023-03-22_15h06.57.545,tripletExp_regina_11082022,2022.2.4,120.27919727914566,
4,12,2,0,0.694444444444444,0.298245614035088,0,0.027777777777778,3.10526315789474,0,0.25,0.298245614035088,ReadingArea_rsl0-rcl69-esl29-rsm0-rcm2-esm310-rsr0-rcr25-esr29,exr/ReadingArea_rsl0-rcl69-esl29-rsm0-rcm2-esm310-rsr0-rcr25-esr29.exr,ReadingArea_rsl0-rcl69-esl29-rsm0-rcm2-esm310-rsr0-rcr25-esr29.npz,,,,,0,1,1,543,,right,red,1.46,1705.443176984787,,,,1,,6,1,lightness,readingArea,realistic,75,2023-03-22_15h06.57.545,tripletExp_regina_11082022,2022.2.4,120.27919727914566,
11,12,4,0,1.0,1.0,0,0.027777777777778,3.10526315789474,0,0.694444444444444,0.298245614035088,ReadingArea_rsl0-rcl100-esl100-rsm0-rcm2-esm310-rsr0-rcr69-esr29,exr/ReadingArea_rsl0-rcl100-esl100-rsm0-rcm2-esm310-rsr0-rcr69-esr29.exr,ReadingArea_rsl0-rcl100-esl100-rsm0-rcm2-esm310-rsr0-rcr69-esr29.npz,,,,,0,2,2,250,,right,red,1.18,1707.5517921447754,1707.9022631645205,,,1,,6,1,lightness,readingArea,realistic,75,2023-03-22_15h06.57.545,tripletExp_regina_11082022,2022.2.4,120.27919727914566,
13,10,9,0,0.111111111111111,3.10526315789474,0,0.694444444444444,1.0,0,0.444444444444444,1.0,ReadingArea_rsl0-rcl11-esl310-rsm0-rcm69-esm100-rsr0-rcr44-esr100,exr/ReadingArea_rsl0-rcl11-esl310-rsm0-rcm69-esm100-rsr0-rcr44-esr100.exr,ReadingArea_rsl0-rcl11-esl310-rsm0-rcm69-esm100-rsr0-rcr44-esr100.npz,,,,,0,3,3,330,,right,red,1.26,1709.5915350914,1709.935832977295,,,1,,6,1,lightness,readingArea,realistic,75,2023-03-22_15h06.57.545,tripletExp_regina_11082022,2022.2.4,120.27919727914566,
12,7,2,0,0.027777777777778,3.10526315789474,0,0.111111111111111,1.0,0,0.25,0.298245614035088,ReadingArea_rsl0-rcl2-esl310-rsm0-rcm11-esm100-rsr0-rcr25-esr29,exr/ReadingArea_rsl0-rcl2-esl310-rsm0-rcm11-esm100-rsr0-rcr25-esr29.exr,ReadingArea_rsl0-rcl2-esl310-rsm0-rcm11-esm100-rsr0-rcr25-esr29.npz,,,,,0,4,4,248,,left,green,1.66,1711.6493890285492,1711.9898660182953,,,1,,6,1,lightness,readingArea,realistic,75,2023-03-22_15h06.57.545,tripletExp_regina_11082022,2022.2.4,120.27919727914566,
7,4,2,0,0.111111111111111,1.0,0,0.694444444444444,0.298245614035088,0,0.25,0.298245614035088,ReadingArea_rsl0-rcl11-esl100-rsm0-rcm69-esm29-rsr0-rcr25-esr29,exr/ReadingArea_rsl0-rcl11-esl100-rsm0-rcm69-esm29-rsr0-rcr25-esr29.exr,ReadingArea_rsl0-rcl11-esl100-rsm0-rcm69-esm29-rsr0-rcr25-esr29.npz,,,,,0,5,5,146,,left,green,2.85,1715.4587171077728,1715.803512096405,,,1,,6,1,lightness,readingArea,realistic,75,2023-03-22_15h06.57.545,tripletExp_regina_11082022,2022.2.4,120.27919727914566,
12,11,13,0,0.027777777777778,3.10526315789474,0,1.0,1.0,0,0.111111111111111,3.10526315789474,ReadingArea_rsl0-rcl2-esl310-rsm0-rcm100-esm100-rsr0-rcr11-esr310,exr/ReadingArea_rsl0-rcl2-esl310-rsm0-rcm100-esm100-rsr0-rcr11-esr310.exr,ReadingArea_rsl0-rcl2-esl310-rsm0-rcm100-esm100-rsr0-rcr11-esr310.npz,,,,,0,6,6,151,,right,red,1.47,1717.500615119934,1717.8411231040957,,,1,,6,1,lightness,readingArea,realistic,75,2023-03-22_15h06.57.545,tripletExp_regina_11082022,2022.2.4,120.27919727914566,
12,0,2,0,0.027777777777778,3.10526315789474,0,0.027777777777778,0.298245614035088,0,0.25,0.298245614035088,ReadingArea_rsl0-rcl2-esl310-rsm0-rcm2-esm29-rsr0-rcr25-esr29,exr/ReadingArea_rsl0-rcl2-esl310-rsm0-rcm2-esm29-rsr0-rcr25-esr29.exr,ReadingArea_rsl0-rcl2-esl310-rsm0-rcm2-esm29-rsr0-rcr25-esr29.npz,,,,,0,7,7,77,,left,green,2.8,1721.3219540119171,1721.6672430038452,,,1,,6,1,lightness,readingArea,realistic,75,2023-03-22_15h06.57.545,tripletExp_regina_11082022,2022.2.4,120.27919727914566,
8,13,3,0,0.25,1.0,0,0.111111111111111,3.10526315789474,0,0.444444444444444,0.298245614035088,ReadingArea_rsl0-rcl25-esl100-rsm0-rcm11-esm310-rsr0-rcr44-esr29,exr/ReadingArea_rsl0-rcl25-esl100-rsm0-rcm11-esm310-rsr0-rcr44-esr29.exr,ReadingArea_rsl0-rcl25-esl100-rsm0-rcm11-esm310-rsr0-rcr44-esr29.npz,,,,,0,8,8,553,,left,green,2.58,1725.1779761314392,1725.571844100952,,,1,,6,1,lightness,readingArea,realistic,75,2023-03-22_15h06.57.545,tripletExp_regina_11082022,2022.2.4,120.27919727914566,
7,3,5,0,0.111111111111111,1.0,0,0.444444444444444,0.298245614035088,0,1.0,0.298245614035088,ReadingArea_rsl0-rcl11-esl100-rsm0-rcm44-esm29-rsr0-rcr100-esr29,exr/ReadingArea_rsl0-rcl11-esl100-rsm0-rcm44-esm29-rsr0-rcr100-esr29.exr,ReadingArea_rsl0-rcl11-esl100-rsm0-rcm44-esm29-rsr0-rcr100-esr29.npz,,,,,0,9,9,589,,left,green,1.18,1727.2859661579132,1727.6255440711975,,,1,,6,1,lightness,readingArea,realistic,75,2023-03-22_15h06.57.545,tripletExp_regina_11082022,2022.2.4,120.27919727914566,
6,10,9,0,0.027777777777778,1.0,0,0.694444444444444,1.0,0,0.444444444444444,1.0,ReadingArea_rsl0-rcl2-esl100-rsm0-rcm69-esm100-rsr0-rcr44-esr100,exr/ReadingArea_rsl0-rcl2-esl100-rsm0-rcm69-esm100-rsr0-rcr44-esr100.exr,ReadingArea_rsl0-rcl2-esl100-rsm0-rcm69-esm100-rsr0-rcr44-esr100.npz,,,,,0,10,10,148,,right,red,1.54,1729.3246641159058,1729.6678550243378,,,1,,6,1,lightness,readingArea,realistic,75,2023-03-22_15h06.57.545,tripletExp_regina_11082022,2022.2.4,120.27919727914566,
1,13,2,0,0.111111111111111,0.298245614035088,0,0.111111111111111,3.10526315789474,0,0.25,0.298245614035088,ReadingArea_rsl0-rcl11-esl29-rsm0-rcm11-esm310-rsr0-rcr25-esr29,exr/ReadingArea_rsl0-rcl11-esl29-rsm0-rcm11-esm310-rsr0-rcr25-esr29.exr,ReadingArea_rsl0-rcl11-esl29-rsm0-rcm11-esm310-rsr0-rcr25-esr29.npz,,,,,0,11,11,118,,right,red,1.5,1731.3555240631104,1731.7023220062256,,,1,,6,1,lightness,readingArea,realistic,75,2023-03-22_15h06.57.545,tripletExp_regina_11082022,2022.2.4,120.27919727914566,
0,7,13,0,0.027777777777778,0.298245614035088,0,0.111111111111111,1.0,0,0.111111111111111,3.10526315789474,ReadingArea_rsl0-rcl2-esl29-rsm0-rcm11-esm100-rsr0-rcr11-esr310,exr/ReadingArea_rsl0-rcl2-esl29-rsm0-rcm11-esm100-rsr0-rcr11-esr310.exr,ReadingArea_rsl0-rcl2-esl29-rsm0-rcm11-esm100-rsr0-rcr11-esr310.npz,,,,,0,12,12,159,,right,red,1.56,1733.3887300491333,1733.7343201637268,,,1,,6,1,lightness,readingArea,realistic,75,2023-03-22_15h06.57.545,tripletExp_regina_11082022,2022.2.4,120.27919727914566,
6,7,3,0,0.027777777777778,1.0,0,0.111111111111111,1.0,0,0.444444444444444,0.298245614035088,ReadingArea_rsl0-rcl2-esl100-rsm0-rcm11-esm100-rsr0-rcr44-esr29,exr/ReadingArea_rsl0-rcl2-esl100-rsm0-rcm11-esm100-rsr0-rcr44-esr29.exr,ReadingArea_rsl0-rcl2-esl100-rsm0-rcm11-esm100-rsr0-rcr44-esr29.npz,,,,,0,13,13,47,,right,red,2.32,1737.1861000061035,1737.5688290596008,,,1,,6,1,lightness,readingArea,realistic,75,2023-03-22_15h06.57.545,tripletExp_regina_11082022,2022.2.4,120.27919727914566,
6,0,1,0,0.027777777777778,1.0,0,0.027777777777778,0.298245614035088,0,0.111111111111111,0.298245614035088,ReadingArea_rsl0-rcl2-esl100-rsm0-rcm2-esm29-rsr0-rcr11-esr29,exr/ReadingArea_rsl0-rcl2-esl100-rsm0-rcm2-esm29-rsr0-rcr11-esr29.exr,ReadingArea_rsl0-rcl2-esl100-rsm0-rcm2-esm29-rsr0-rcr11-esr29.npz,,,,,0,14,14,302,,left,green,2.46,1741.0546720027924,1741.3984150886536,,,1,,6,1,lightness,readingArea,realistic,75,2023-03-22_15h06.57.545,tripletExp_regina_11082022,2022.2.4,120.27919727914566,
4,8,11,0,0.694444444444444,0.298245614035088,0,0.25,1.0,0,1.0,1.0,ReadingArea_rsl0-rcl69-esl29-rsm0-rcm25-esm100-rsr0-rcr100-esr100,exr/ReadingArea_rsl0-rcl69-esl29-rsm0-rcm25-esm100-rsr0-rcr100-esr100.exr,ReadingArea_rsl0-rcl69-esl29-rsm0-rcm25-esm100-rsr0-rcr100-esr100.npz,,,,,0,15,15,403,,left,green,0.96,1743.1162691116333,1743.462618112564,,,1,,6,1,lightness,readingArea,realistic,75,2023-03-22_15h06.57.545,tripletExp_regina_11082022,2022.2.4,120.27919727914566,
3,14,10,0,0.444444444444444,0.298245614035088,0,0.25,3.10526315789474,0,0.694444444444444,1.0,ReadingArea_rsl0-rcl44-esl29-rsm0-rcm25-esm310-rsr0-rcr69-esr100,exr/ReadingArea_rsl0-rcl44-esl29-rsm0-rcm25-esm310-rsr0-rcr69-esr100.exr,ReadingArea_rsl0-rcl44-esl29-rsm0-rcm25-esm310-rsr0-rcr69-esr100.npz,,,,,0,16,16,279,,right,red,1.03,1745.1635949611664,1745.5067110061646,,,1,,6,1,lightness,readingArea,realistic,75,2023-03-22_15h06.57.545,tripletExp_regina_11082022,2022.2.4,120.27919727914566,
0,4,9,0,0.027777777777778,0.298245614035088,0,0.694444444444444,0.298245614035088,0,0.444444444444444,1.0,ReadingArea_rsl0-rcl2-esl29-rsm0-rcm69-esm29-rsr0-rcr44-esr100,exr/ReadingArea_rsl0-rcl2-esl29-rsm0-rcm69-esm29-rsr0-rcr44-esr100.exr,ReadingArea_rsl0-rcl2-esl29-rsm0-rcm69-esm29-rsr0-rcr44-esr100.npz,,,,,0,17,17,21,,right,red,1.3,1747.2084510326383,1747.558011054993,,,1,,6,1,lightness,readingArea,realistic,75,2023-03-22_15h06.57.545,tripletExp_regina_11082022,2022.2.4,120.27919727914566,
13,10,3,0,0.111111111111111,3.10526315789474,0,0.694444444444444,1.0,0,0.444444444444444,0.298245614035088,ReadingArea_rsl0-rcl11-esl310-rsm0-rcm69-esm100-rsr0-rcr44-esr29,exr/ReadingArea_rsl0-rcl11-esl310-rsm0-rcm69-esm100-rsr0-rcr44-esr29.exr,ReadingArea_rsl0-rcl11-esl310-rsm0-rcm69-esm100-rsr0-rcr44-esr29.npz,,,,,0,18,18,224,,left,green,2.61,1751.008188009262,1751.357568025589,,,1,,6,1,lightness,readingArea,realistic,75,2023-03-22_15h06.57.545,tripletExp_regina_11082022,2022.2.4,120.27919727914566,
10,1,13,0,0.694444444444444,1.0,0,0.111111111111111,0.298245614035088,0,0.111111111111111,3.10526315789474,ReadingArea_rsl0-rcl69-esl100-rsm0-rcm11-esm29-rsr0-rcr11-esr310,exr/ReadingArea_rsl0-rcl69-esl100-rsm0-rcm11-esm29-rsr0-rcr11-esr310.exr,ReadingArea_rsl0-rcl69-esl100-rsm0-rcm11-esm29-rsr0-rcr11-esr310.npz,,,,,0,19,19,45,,right,red,1.45,1753.072270154953,1753.4140889644625,,,1,,6,1,lightness,readingArea,realistic,75,2023-03-22_15h06.57.545,tripletExp_regina_11082022,2022.2.4,120.27919727914566,
14,10,9,0,0.25,3.10526315789474,0,0.694444444444444,1.0,0,0.444444444444444,1.0,ReadingArea_rsl0-rcl25-esl310-rsm0-rcm69-esm100-rsr0-rcr44-esr100,exr/ReadingArea_rsl0-rcl25-esl310-rsm0-rcm69-esm100-rsr0-rcr44-esr100.exr,ReadingArea_rsl0-rcl25-esl310-rsm0-rcm69-esm100-rsr0-rcr44-esr100.npz,,,,,0,20,20,402,,left,green,2.42,1756.8934710025787,1757.2416570186615,,,1,,6,1,lightness,readingArea,realistic,75,2023-03-22_15h06.57.545,tripletExp_regina_11082022,2022.2.4,120.27919727914566,
14,1,13,0,0.25,3.10526315789474,0,0.111111111111111,0.298245614035088,0,0.111111111111111,3.10526315789474,ReadingArea_rsl0-rcl25-esl310-rsm0-rcm11-esm29-rsr0-rcr11-esr310,exr/ReadingArea_rsl0-rcl25-esl310-rsm0-rcm11-esm29-rsr0-rcr11-esr310.exr,ReadingArea_rsl0-rcl25-esl310-rsm0-rcm11-esm29-rsr0-rcr11-esr310.npz,,,,,0,21,21,265,,right,red,2.61,1760.7006220817566,,,,1,,6,1,lightness,readingArea,realistic,75,2023-03-22_15h06.57.545,tripletExp_regina_11082022,2022.2.4,120.27919727914566,
12,11,6,0,0.027777777777778,3.10526315789474,0,1.0,1.0,0,0.027777777777778,1.0,ReadingArea_rsl0-rcl2-esl310-rsm0-rcm100-esm100-rsr0-rcr2-esr100,exr/ReadingArea_rsl0-rcl2-esl310-rsm0-rcm100-esm100-rsr0-rcr2-esr100.exr,ReadingArea_rsl0-rcl2-esl310-rsm0-rcm100-esm100-rsr0-rcr2-esr100.npz,,,,,0,22,22,163,,left,green,1.38,1762.7632710933683,1763.108258008957,,,1,,6,1,lightness,readingArea,realistic,75,2023-03-22_15h06.57.545,tripletExp_regina_11082022,2022.2.4,120.27919727914566,
8,12,13,0,0.25,1.0,0,0.027777777777778,3.10526315789474,0,0.111111111111111,3.10526315789474,ReadingArea_rsl0-rcl25-esl100-rsm0-rcm2-esm310-rsr0-rcr11-esr310,exr/ReadingArea_rsl0-rcl25-esl100-rsm0-rcm2-esm310-rsr0-rcr11-esr310.exr,ReadingArea_rsl0-rcl25-esl100-rsm0-rcm2-esm310-rsr0-rcr11-esr310.npz,,,,,0,23,23,275,,left,green,1.24,1764.7971711158752,1765.1415691375732,,,1,,6,1,lightness,readingArea,realistic,75,2023-03-22_15h06.57.545,tripletExp_regina_11082022,2022.2.4,120.27919727914566,
1,12,6,0,0.111111111111111,0.298245614035088,0,0.027777777777778,3.10526315789474,0,0.027777777777778,1.0,ReadingArea_rsl0-rcl11-esl29-rsm0-rcm2-esm310-rsr0-rcr2-esr100,exr/ReadingArea_rsl0-rcl11-esl29-rsm0-rcm2-esm310-rsr0-rcr2-esr100.exr,ReadingArea_rsl0-rcl11-esl29-rsm0-rcm2-esm310-rsr0-rcr2-esr100.npz,,,,,0,24,24,277,,left,green,1.47,1766.8450710773468,1767.191493988037,,,1,,6,1,lightness,readingArea,realistic,75,2023-03-22_15h06.57.545,tripletExp_regina_11082022,2022.2.4,120.27919727914566,
5,2,7,0,1.0,0.298245614035088,0,0.25,0.298245614035088,0,0.111111111111111,1.0,ReadingArea_rsl0-rcl100-esl29-rsm0-rcm25-esm29-rsr0-rcr11-esr100,exr/ReadingArea_rsl0-rcl100-esl29-rsm0-rcm25-esm29-rsr0-rcr11-esr100.exr,ReadingArea_rsl0-rcl100-esl29-rsm0-rcm25-esm29-rsr0-rcr11-esr100.npz,,,,,0,25,25,179,,right,red,0.92,1768.9065690040588,1769.2490589618685,,,1,,6,1,lightness,readingArea,realistic,75,2023-03-22_15h06.57.545,tripletExp_regina_11082022,2022.2.4,120.27919727914566,
7,6,11,0,0.111111111111111,1.0,0,0.027777777777778,1.0,0,1.0,1.0,ReadingArea_rsl0-rcl11-esl100-rsm0-rcm2-esm100-rsr0-rcr100-esr100,exr/ReadingArea_rsl0-rcl11-esl100-rsm0-rcm2-esm100-rsr0-rcr100-esr100.exr,ReadingArea_rsl0-rcl11-esl100-rsm0-rcm2-esm100-rsr0-rcr100-esr100.npz,,,,,0,26,26,84,,left,green,1.28,1770.958039045334,1771.3014800548551,,,1,,6,1,lightness,readingArea,realistic,75,2023-03-22_15h06.57.545,tripletExp_regina_11082022,2022.2.4,120.27919727914566,
6,12,8,0,0.027777777777778,1.0,0,0.027777777777778,3.10526315789474,0,0.25,1.0,ReadingArea_rsl0-rcl2-esl100-rsm0-rcm2-esm310-rsr0-rcr25-esr100,exr/ReadingArea_rsl0-rcl2-esl100-rsm0-rcm2-esm310-rsr0-rcr25-esr100.exr,ReadingArea_rsl0-rcl2-esl100-rsm0-rcm2-esm310-rsr0-rcr25-esr100.npz,,,,,0,27,27,186,,right,red,4.52,1776.5295960903168,1776.8780200481417,,,1,,6,1,lightness,readingArea,realistic,75,2023-03-22_15h06.57.545,tripletExp_regina_11082022,2022.2.4,120.27919727914566,
2,14,8,0,0.25,0.298245614035088,0,0.25,3.10526315789474,0,0.25,1.0,ReadingArea_rsl0-rcl25-esl29-rsm0-rcm25-esm310-rsr0-rcr25-esr100,exr/ReadingArea_rsl0-rcl25-esl29-rsm0-rcm25-esm310-rsr0-rcr25-esr100.exr,ReadingArea_rsl0-rcl25-esl29-rsm0-rcm25-esm310-rsr0-rcr25-esr100.npz,,,,,0,28,28,255,,right,red,2.39,1780.3727750778198,1780.7201800346377,,,1,,6,1,lightness,readingArea,realistic,75,2023-03-22_15h06.57.545,tripletExp_regina_11082022,2022.2.4,120.27919727914566,
12,13,14,0,0.027777777777778,3.10526315789474,0,0.111111111111111,3.10526315789474,0,0.25,3.10526315789474,ReadingArea_rsl0-rcl2-esl310-rsm0-rcm11-esm310-rsr0-rcr25-esr310,exr/ReadingArea_rsl0-rcl2-esl310-rsm0-rcm11-esm310-rsr0-rcr25-esr310.exr,ReadingArea_rsl0-rcl2-esl310-rsm0-rcm11-esm310-rsr0-rcr25-esr310.npz,,,,,0,29,29,208,,left,green,4.62,1785.977332115173,1786.3236510753632,,,1,,6,1,lightness,readingArea,realistic,75,2023-03-22_15h06.57.545,tripletExp_regina_11082022,2022.2.4,120.27919727914566,
3,6,11,0,0.444444444444444,0.298245614035088,0,0.027777777777778,1.0,0,1.0,1.0,ReadingArea_rsl0-rcl44-esl29-rsm0-rcm2-esm100-rsr0-rcr100-esr100,exr/ReadingArea_rsl0-rcl44-esl29-rsm0-rcm2-esm100-rsr0-rcr100-esr100.exr,ReadingArea_rsl0-rcl44-esl29-rsm0-rcm2-esm100-rsr0-rcr100-esr100.npz,,,,,0,30,30,155,,left,green,3.06,1789.8256831169128,1790.172569990158,,,1,,6,1,lightness,readingArea,realistic,75,2023-03-22_15h06.57.545,tripletExp_regina_11082022,2022.2.4,120.27919727914566,
10,9,6,0,0.694444444444444,1.0,0,0.444444444444444,1.0,0,0.027777777777778,1.0,ReadingArea_rsl0-rcl69-esl100-rsm0-rcm44-esm100-rsr0-rcr2-esr100,exr/ReadingArea_rsl0-rcl69-esl100-rsm0-rcm44-esm100-rsr0-rcr2-esr100.exr,ReadingArea_rsl0-rcl69-esl100-rsm0-rcm44-esm100-rsr0-rcr2-esr100.npz,,,,,0,31,31,35,,left,green,2.51,1793.6581151485443,1794.0044679641724,,,1,,6,1,lightness,readingArea,realistic,75,2023-03-22_15h06.57.545,tripletExp_regina_11082022,2022.2.4,120.27919727914566,
4,10,6,0,0.694444444444444,0.298245614035088,0,0.694444444444444,1.0,0,0.027777777777778,1.0,ReadingArea_rsl0-rcl69-esl29-rsm0-rcm69-esm100-rsr0-rcr2-esr100,exr/ReadingArea_rsl0-rcl69-esl29-rsm0-rcm69-esm100-rsr0-rcr2-esr100.exr,ReadingArea_rsl0-rcl69-esl29-rsm0-rcm69-esm100-rsr0-rcr2-esr100.npz,,,,,0,32,32,468,,left,green,1.9,1797.4963309764862,1797.840434074402,,,1,,6,1,lightness,readingArea,realistic,75,2023-03-22_15h06.57.545,tripletExp_regina_11082022,2022.2.4,120.27919727914566,
2,11,7,0,0.25,0.298245614035088,0,1.0,1.0,0,0.111111111111111,1.0,ReadingArea_rsl0-rcl25-esl29-rsm0-rcm100-esm100-rsr0-rcr11-esr100,exr/ReadingArea_rsl0-rcl25-esl29-rsm0-rcm100-esm100-rsr0-rcr11-esr100.exr,ReadingArea_rsl0-rcl25-esl29-rsm0-rcm100-esm100-rsr0-rcr11-esr100.npz,,,,,0,33,33,576,,left,green,0.6,1799.554302930832,1799.8977110385897,,,1,,6,1,lightness,readingArea,realistic,75,2023-03-22_15h06.57.545,tripletExp_regina_11082022,2022.2.4,120.27919727914566,
1,7,8,0,0.111111111111111,0.298245614035088,0,0.111111111111111,1.0,0,0.25,1.0,ReadingArea_rsl0-rcl11-esl29-rsm0-rcm11-esm100-rsr0-rcr25-esr100,exr/ReadingArea_rsl0-rcl11-esl29-rsm0-rcm11-esm100-rsr0-rcr25-esr100.exr,ReadingArea_rsl0-rcl11-esl29-rsm0-rcm11-esm100-rsr0-rcr25-esr100.npz,,,,,0,34,34,260,,right,red,1.17,1801.6082689762115,1801.9565169811249,,,1,,6,1,lightness,readingArea,realistic,75,2023-03-22_15h06.57.545,tripletExp_regina_11082022,2022.2.4,120.27919727914566,
0,14,6,0,0.027777777777778,0.298245614035088,0,0.25,3.10526315789474,0,0.027777777777778,1.0,ReadingArea_rsl0-rcl2-esl29-rsm0-rcm25-esm310-rsr0-rcr2-esr100,exr/ReadingArea_rsl0-rcl2-esl29-rsm0-rcm25-esm310-rsr0-rcr2-esr100.exr,ReadingArea_rsl0-rcl2-esl29-rsm0-rcm25-esm310-rsr0-rcr2-esr100.npz,,,,,0,35,35,499,,right,red,2.58,1805.407576084137,,,,1,,6,1,lightness,readingArea,realistic,75,2023-03-22_15h06.57.545,tripletExp_regina_11082022,2022.2.4,120.27919727914566,
12,3,11,0,0.027777777777778,3.10526315789474,0,0.444444444444444,0.298245614035088,0,1.0,1.0,ReadingArea_rsl0-rcl2-esl310-rsm0-rcm44-esm29-rsr0-rcr100-esr100,exr/ReadingArea_rsl0-rcl2-esl310-rsm0-rcm44-esm29-rsr0-rcr100-esr100.exr,ReadingArea_rsl0-rcl2-esl310-rsm0-rcm44-esm29-rsr0-rcr100-esr100.npz,,,,,0,36,36,83,,left,green,2.28,1809.3174350261688,1809.6685800552368,,,1,,6,1,lightness,readingArea,realistic,75,2023-03-22_15h06.57.545,tripletExp_regina_11082022,2022.2.4,120.27919727914566,
5,0,10,0,1.0,0.298245614035088,0,0.027777777777778,0.298245614035088,0,0.694444444444444,1.0,ReadingArea_rsl0-rcl100-esl29-rsm0-rcm2-esm29-rsr0-rcr69-esr100,exr/ReadingArea_rsl0-rcl100-esl29-rsm0-rcm2-esm29-rsr0-rcr69-esr100.exr,ReadingArea_rsl0-rcl100-esl29-rsm0-rcm2-esm29-rsr0-rcr69-esr100.npz,,,,,0,37,37,361,,left,green,2.89,1813.1246049404144,1813.4873399734497,,,1,,6,1,lightness,readingArea,realistic,75,2023-03-22_15h06.57.545,tripletExp_regina_11082022,2022.2.4,120.27919727914566,
7,8,12,0,0.111111111111111,1.0,0,0.25,1.0,0,0.027777777777778,3.10526315789474,ReadingArea_rsl0-rcl11-esl100-rsm0-rcm25-esm100-rsr0-rcr2-esr310,exr/ReadingArea_rsl0-rcl11-esl100-rsm0-rcm25-esm100-rsr0-rcr2-esr310.exr,ReadingArea_rsl0-rcl11-esl100-rsm0-rcm25-esm100-rsr0-rcr2-esr310.npz,,,,,0,38,38,271,,left,green,2.52,1816.9782371521,1817.3274540901184,,,1,,6,1,lightness,readingArea,realistic,75,2023-03-22_15h06.57.545,tripletExp_regina_11082022,2022.2.4,120.27919727914566,
3,6,13,0,0.444444444444444,0.298245614035088,0,0.027777777777778,1.0,0,0.111111111111111,3.10526315789474,ReadingArea_rsl0-rcl44-esl29-rsm0-rcm2-esm100-rsr0-rcr11-esr310,exr/ReadingArea_rsl0-rcl44-esl29-rsm0-rcm2-esm100-rsr0-rcr11-esr310.exr,ReadingArea_rsl0-rcl44-esl29-rsm0-rcm2-esm100-rsr0-rcr11-esr310.npz,,,,,0,39,39,449,,left,green,2.45,1820.7978041172028,1821.148293018341,,,1,,6,1,lightness,readingArea,realistic,75,2023-03-22_15h06.57.545,tripletExp_regina_11082022,2022.2.4,120.27919727914566,
3,11,2,0,0.444444444444444,0.298245614035088,0,1.0,1.0,0,0.25,0.298245614035088,ReadingArea_rsl0-rcl44-esl29-rsm0-rcm100-esm100-rsr0-rcr25-esr29,exr/ReadingArea_rsl0-rcl44-esl29-rsm0-rcm100-esm100-rsr0-rcr25-esr29.exr,ReadingArea_rsl0-rcl44-esl29-rsm0-rcm100-esm100-rsr0-rcr25-esr29.npz,,,,,0,40,40,220,,left,green,2.96,1824.634240150452,1824.98986196518,,,1,,6,1,lightness,readingArea,realistic,75,2023-03-22_15h06.57.545,tripletExp_regina_11082022,2022.2.4,120.27919727914566,
9,7,2,0,0.444444444444444,1.0,0,0.111111111111111,1.0,0,0.25,0.298245614035088,ReadingArea_rsl0-rcl44-esl100-rsm0-rcm11-esm100-rsr0-rcr25-esr29,exr/ReadingArea_rsl0-rcl44-esl100-rsm0-rcm11-esm100-rsr0-rcr25-esr29.exr,ReadingArea_rsl0-rcl44-esl100-rsm0-rcm11-esm100-rsr0-rcr25-esr29.npz,,,,,0,41,41,428,,right,red,2.51,1828.4687521457672,1828.8146121501925,,,1,,6,1,lightness,readingArea,realistic,75,2023-03-22_15h06.57.545,tripletExp_regina_11082022,2022.2.4,120.27919727914566,
6,3,1,0,0.027777777777778,1.0,0,0.444444444444444,0.298245614035088,0,0.111111111111111,0.298245614035088,ReadingArea_rsl0-rcl2-esl100-rsm0-rcm44-esm29-rsr0-rcr11-esr29,exr/ReadingArea_rsl0-rcl2-esl100-rsm0-rcm44-esm29-rsr0-rcr11-esr29.exr,ReadingArea_rsl0-rcl2-esl100-rsm0-rcm44-esm29-rsr0-rcr11-esr29.npz,,,,,0,42,42,430,,right,red,2.55,1832.287754058838,1832.6363871097565,,,1,,6,1,lightness,readingArea,realistic,75,2023-03-22_15h06.57.545,tripletExp_regina_11082022,2022.2.4,120.27919727914566,
6,5,11,0,0.027777777777778,1.0,0,1.0,0.298245614035088,0,1.0,1.0,ReadingArea_rsl0-rcl2-esl100-rsm0-rcm100-esm29-rsr0-rcr100-esr100,exr/ReadingArea_rsl0-rcl2-esl100-rsm0-rcm100-esm29-rsr0-rcr100-esr100.exr,ReadingArea_rsl0-rcl2-esl100-rsm0-rcm100-esm29-rsr0-rcr100-esr100.npz,,,,,0,43,43,289,,right,red,4.22,1837.8671810626984,1838.215927124024,,,1,,6,1,lightness,readingArea,realistic,75,2023-03-22_15h06.57.545,tripletExp_regina_11082022,2022.2.4,120.27919727914566,
4,11,12,0,0.694444444444444,0.298245614035088,0,1.0,1.0,0,0.027777777777778,3.10526315789474,ReadingArea_rsl0-rcl69-esl29-rsm0-rcm100-esm100-rsr0-rcr2-esr310,exr/ReadingArea_rsl0-rcl69-esl29-rsm0-rcm100-esm100-rsr0-rcr2-esr310.exr,ReadingArea_rsl0-rcl69-esl29-rsm0-rcm100-esm100-rsr0-rcr2-esr310.npz,,,,,0,44,44,109,,left,green,4.33,1843.448652982712,1843.8023459911344,,,1,,6,1,lightness,readingArea,realistic,75,2023-03-22_15h06.57.545,tripletExp_regina_11082022,2022.2.4,120.27919727914566,
7,13,12,0,0.111111111111111,1.0,0,0.111111111111111,3.10526315789474,0,0.027777777777778,3.10526315789474,ReadingArea_rsl0-rcl11-esl100-rsm0-rcm11-esm310-rsr0-rcr2-esr310,exr/ReadingArea_rsl0-rcl11-esl100-rsm0-rcm11-esm310-rsr0-rcr2-esr310.exr,ReadingArea_rsl0-rcl11-esl100-rsm0-rcm11-esm310-rsr0-rcr2-esr310.npz,,,,,0,45,45,438,,left,green,3.07,1847.2499930858608,1847.6036739349363,,,1,,6,1,lightness,readingArea,realistic,75,2023-03-22_15h06.57.545,tripletExp_regina_11082022,2022.2.4,120.27919727914566,
0,9,11,0,0.027777777777778,0.298245614035088,0,0.444444444444444,1.0,0,1.0,1.0,ReadingArea_rsl0-rcl2-esl29-rsm0-rcm44-esm100-rsr0-rcr100-esr100,exr/ReadingArea_rsl0-rcl2-esl29-rsm0-rcm44-esm100-rsr0-rcr100-esr100.exr,ReadingArea_rsl0-rcl2-esl29-rsm0-rcm44-esm100-rsr0-rcr100-esr100.npz,,,,,0,46,46,448,,right,red,2.65,1851.052669048309,1851.3999910354607,,,1,,6,1,lightness,readingArea,realistic,75,2023-03-22_15h06.57.545,tripletExp_regina_11082022,2022.2.4,120.27919727914566,
8,3,9,0,0.25,1.0,0,0.444444444444444,0.298245614035088,0,0.444444444444444,1.0,ReadingArea_rsl0-rcl25-esl100-rsm0-rcm44-esm29-rsr0-rcr44-esr100,exr/ReadingArea_rsl0-rcl25-esl100-rsm0-rcm44-esm29-rsr0-rcr44-esr100.exr,ReadingArea_rsl0-rcl25-esl100-rsm0-rcm44-esm29-rsr0-rcr44-esr100.npz,,,,,0,47,47,15,,left,green,2.9,1854.869105100632,1855.21779704094,,,1,,6,1,lightness,readingArea,realistic,75,2023-03-22_15h06.57.545,tripletExp_regina_11082022,2022.2.4,120.27919727914566,
13,11,2,0,0.111111111111111,3.10526315789474,0,1.0,1.0,0,0.25,0.298245614035088,ReadingArea_rsl0-rcl11-esl310-rsm0-rcm100-esm100-rsr0-rcr25-esr29,exr/ReadingArea_rsl0-rcl11-esl310-rsm0-rcm100-esm100-rsr0-rcr25-esr29.exr,ReadingArea_rsl0-rcl11-esl310-rsm0-rcm100-esm100-rsr0-rcr25-esr29.npz,,,,,0,48,48,55,,left,green,2.72,1858.7072060108185,1859.0519170761108,,,1,,6,1,lightness,readingArea,realistic,75,2023-03-22_15h06.57.545,tripletExp_regina_11082022,2022.2.4,120.27919727914566,
7,5,11,0,0.111111111111111,1.0,0,1.0,0.298245614035088,0,1.0,1.0,ReadingArea_rsl0-rcl11-esl100-rsm0-rcm100-esm29-rsr0-rcr100-esr100,exr/ReadingArea_rsl0-rcl11-esl100-rsm0-rcm100-esm29-rsr0-rcr100-esr100.exr,ReadingArea_rsl0-rcl11-esl100-rsm0-rcm100-esm29-rsr0-rcr100-esr100.npz,,,,,0,49,49,10,,left,green,1.37,1860.7455921173096,1861.093358039856,,,1,,6,1,lightness,readingArea,realistic,75,2023-03-22_15h06.57.545,tripletExp_regina_11082022,2022.2.4,120.27919727914566,
10,13,6,0,0.694444444444444,1.0,0,0.111111111111111,3.10526315789474,0,0.027777777777778,1.0,ReadingArea_rsl0-rcl69-esl100-rsm0-rcm11-esm310-rsr0-rcr2-esr100,exr/ReadingArea_rsl0-rcl69-esl100-rsm0-rcm11-esm310-rsr0-rcr2-esr100.exr,ReadingArea_rsl0-rcl69-esl100-rsm0-rcm11-esm310-rsr0-rcr2-esr100.npz,,,,,0,50,50,351,,right,red,4.11,1866.3199000358584,1866.6698520183563,,,1,,6,1,lightness,readingArea,realistic,75,2023-03-22_15h06.57.545,tripletExp_regina_11082022,2022.2.4,120.27919727914566,
8,4,2,0,0.25,1.0,0,0.694444444444444,0.298245614035088,0,0.25,0.298245614035088,ReadingArea_rsl0-rcl25-esl100-rsm0-rcm69-esm29-rsr0-rcr25-esr29,exr/ReadingArea_rsl0-rcl25-esl100-rsm0-rcm69-esm29-rsr0-rcr25-esr29.exr,ReadingArea_rsl0-rcl25-esl100-rsm0-rcm69-esm29-rsr0-rcr25-esr29.npz,,,,,0,51,51,184,,left,green,2.47,1870.124720096588,1870.469800949097,,,1,,6,1,lightness,readingArea,realistic,75,2023-03-22_15h06.57.545,tripletExp_regina_11082022,2022.2.4,120.27919727914566,
4,2,0,0,0.694444444444444,0.298245614035088,0,0.25,0.298245614035088,0,0.027777777777778,0.298245614035088,ReadingArea_rsl0-rcl69-esl29-rsm0-rcm25-esm29-rsr0-rcr2-esr29,exr/ReadingArea_rsl0-rcl69-esl29-rsm0-rcm25-esm29-rsr0-rcr2-esr29.exr,ReadingArea_rsl0-rcl69-esl29-rsm0-rcm25-esm29-rsr0-rcr2-esr29.npz,,,,,0,52,52,71,,left,green,4.09,1875.6937129497528,,,,1,,6,1,lightness,readingArea,realistic,75,2023-03-22_15h06.57.545,tripletExp_regina_11082022,2022.2.4,120.27919727914566,
0,14,10,0,0.027777777777778,0.298245614035088,0,0.25,3.10526315789474,0,0.694444444444444,1.0,ReadingArea_rsl0-rcl2-esl29-rsm0-rcm25-esm310-rsr0-rcr69-esr100,exr/ReadingArea_rsl0-rcl2-esl29-rsm0-rcm25-esm310-rsr0-rcr69-esr100.exr,ReadingArea_rsl0-rcl2-esl29-rsm0-rcm25-esm310-rsr0-rcr69-esr100.npz,,,,,0,53,53,128,,right,red,1.3,1877.7621150016785,1878.2076880931847,,,1,,6,1,lightness,readingArea,realistic,75,2023-03-22_15h06.57.545,tripletExp_regina_11082022,2022.2.4,120.27919727914566,
14,0,5,0,0.25,3.10526315789474,0,0.027777777777778,0.298245614035088,0,1.0,0.298245614035088,ReadingArea_rsl0-rcl25-esl310-rsm0-rcm2-esm29-rsr0-rcr100-esr29,exr/ReadingArea_rsl0-rcl25-esl310-rsm0-rcm2-esm29-rsr0-rcr100-esr29.exr,ReadingArea_rsl0-rcl25-esl310-rsm0-rcm2-esm29-rsr0-rcr100-esr29.npz,,,,,0,54,54,418,,right,red,4.22,1883.405419111252,1883.761449098587,,,1,,6,1,lightness,readingArea,realistic,75,2023-03-22_15h06.57.545,tripletExp_regina_11082022,2022.2.4,120.27919727914566,
0,9,14,0,0.027777777777778,0.298245614035088,0,0.444444444444444,1.0,0,0.25,3.10526315789474,ReadingArea_rsl0-rcl2-esl29-rsm0-rcm44-esm100-rsr0-rcr25-esr310,exr/ReadingArea_rsl0-rcl2-esl29-rsm0-rcm44-esm100-rsr0-rcr25-esr310.exr,ReadingArea_rsl0-rcl2-esl29-rsm0-rcm44-esm100-rsr0-rcr25-esr310.npz,,,,,0,55,55,433,,right,red,2.39,1887.201936006546,1887.549987077713,,,1,,6,1,lightness,readingArea,realistic,75,2023-03-22_15h06.57.545,tripletExp_regina_11082022,2022.2.4,120.27919727914566,
5,13,7,0,1.0,0.298245614035088,0,0.111111111111111,3.10526315789474,0,0.111111111111111,1.0,ReadingArea_rsl0-rcl100-esl29-rsm0-rcm11-esm310-rsr0-rcr11-esr100,exr/ReadingArea_rsl0-rcl100-esl29-rsm0-rcm11-esm310-rsr0-rcr11-esr100.exr,ReadingArea_rsl0-rcl100-esl29-rsm0-rcm11-esm310-rsr0-rcr11-esr100.npz,,,,,0,56,56,189,,left,green,2.31,1891.000918149948,1891.3491430282595,,,1,,6,1,lightness,readingArea,realistic,75,2023-03-22_15h06.57.545,tripletExp_regina_11082022,2022.2.4,120.27919727914566,
6,4,2,0,0.027777777777778,1.0,0,0.694444444444444,0.298245614035088,0,0.25,0.298245614035088,ReadingArea_rsl0-rcl2-esl100-rsm0-rcm69-esm29-rsr0-rcr25-esr29,exr/ReadingArea_rsl0-rcl2-esl100-rsm0-rcm69-esm29-rsr0-rcr25-esr29.exr,ReadingArea_rsl0-rcl2-esl100-rsm0-rcm69-esm29-rsr0-rcr25-esr29.npz,,,,,0,57,57,134,,right,red,2.9,1894.820421934128,1895.166913032532,,,1,,6,1,lightness,readingArea,realistic,75,2023-03-22_15h06.57.545,tripletExp_regina_11082022,2022.2.4,120.27919727914566,
7,3,0,0,0.111111111111111,1.0,0,0.444444444444444,0.298245614035088,0,0.027777777777778,0.298245614035088,ReadingArea_rsl0-rcl11-esl100-rsm0-rcm44-esm29-rsr0-rcr2-esr29,exr/ReadingArea_rsl0-rcl11-esl100-rsm0-rcm44-esm29-rsr0-rcr2-esr29.exr,ReadingArea_rsl0-rcl11-esl100-rsm0-rcm44-esm29-rsr0-rcr2-esr29.npz,,,,,0,58,58,318,,left,green,2.45,1898.6072959899905,1898.957834005356,,,1,,6,1,lightness,readingArea,realistic,75,2023-03-22_15h06.57.545,tripletExp_regina_11082022,2022.2.4,120.27919727914566,
6,13,5,0,0.027777777777778,1.0,0,0.111111111111111,3.10526315789474,0,1.0,0.298245614035088,ReadingArea_rsl0-rcl2-esl100-rsm0-rcm11-esm310-rsr0-rcr100-esr29,exr/ReadingArea_rsl0-rcl2-esl100-rsm0-rcm11-esm310-rsr0-rcr100-esr29.exr,ReadingArea_rsl0-rcl2-esl100-rsm0-rcm11-esm310-rsr0-rcr100-esr29.npz,,,,,0,59,59,53,,right,red,1.27,1900.66831111908,1901.019634962082,,,1,,6,1,lightness,readingArea,realistic,75,2023-03-22_15h06.57.545,tripletExp_regina_11082022,2022.2.4,120.27919727914566,
8,1,9,0,0.25,1.0,0,0.111111111111111,0.298245614035088,0,0.444444444444444,1.0,ReadingArea_rsl0-rcl25-esl100-rsm0-rcm11-esm29-rsr0-rcr44-esr100,exr/ReadingArea_rsl0-rcl25-esl100-rsm0-rcm11-esm29-rsr0-rcr44-esr100.exr,ReadingArea_rsl0-rcl25-esl100-rsm0-rcm11-esm29-rsr0-rcr44-esr100.npz,,,,,0,60,60,432,,left,green,2.79,1904.5068509578705,,,,1,,6,1,lightness,readingArea,realistic,75,2023-03-22_15h06.57.545,tripletExp_regina_11082022,2022.2.4,120.27919727914566,
9,6,8,0,0.444444444444444,1.0,0,0.027777777777778,1.0,0,0.25,1.0,ReadingArea_rsl0-rcl44-esl100-rsm0-rcm2-esm100-rsr0-rcr25-esr100,exr/ReadingArea_rsl0-rcl44-esl100-rsm0-rcm2-esm100-rsr0-rcr25-esr100.exr,ReadingArea_rsl0-rcl44-esl100-rsm0-rcm2-esm100-rsr0-rcr25-esr100.npz,,,,,0,61,61,312,,right,red,2.68,1908.3179769515991,1908.6700401306152,,,1,,6,1,lightness,readingArea,realistic,75,2023-03-22_15h06.57.545,tripletExp_regina_11082022,2022.2.4,120.27919727914566,
2,5,3,0,0.25,0.298245614035088,0,1.0,0.298245614035088,0,0.444444444444444,0.298245614035088,ReadingArea_rsl0-rcl25-esl29-rsm0-rcm100-esm29-rsr0-rcr44-esr29,exr/ReadingArea_rsl0-rcl25-esl29-rsm0-rcm100-esm29-rsr0-rcr44-esr29.exr,ReadingArea_rsl0-rcl25-esl29-rsm0-rcm100-esm29-rsr0-rcr44-esr29.npz,,,,,0,62,62,135,,right,red,3.97,1913.8902361392973,1914.2373650074005,,,1,,6,1,lightness,readingArea,realistic,75,2023-03-22_15h06.57.545,tripletExp_regina_11082022,2022.2.4,120.27919727914566,
7,5,1,0,0.111111111111111,1.0,0,1.0,0.298245614035088,0,0.111111111111111,0.298245614035088,ReadingArea_rsl0-rcl11-esl100-rsm0-rcm100-esm29-rsr0-rcr11-esr29,exr/ReadingArea_rsl0-rcl11-esl100-rsm0-rcm100-esm29-rsr0-rcr11-esr29.exr,ReadingArea_rsl0-rcl11-esl100-rsm0-rcm100-esm29-rsr0-rcr11-esr29.npz,,,,,0,63,63,513,,left,green,2.58,1917.6978521347048,1918.0577330589288,,,1,,6,1,lightness,readingArea,realistic,75,2023-03-22_15h06.57.545,tripletExp_regina_11082022,2022.2.4,120.27919727914566,
2,0,13,0,0.25,0.298245614035088,0,0.027777777777778,0.298245614035088,0,0.111111111111111,3.10526315789474,ReadingArea_rsl0-rcl25-esl29-rsm0-rcm2-esm29-rsr0-rcr11-esr310,exr/ReadingArea_rsl0-rcl25-esl29-rsm0-rcm2-esm29-rsr0-rcr11-esr310.exr,ReadingArea_rsl0-rcl25-esl29-rsm0-rcm2-esm29-rsr0-rcr11-esr310.npz,,,,,0,64,64,50,,left,green,2.57,1921.535166978836,1921.8877351284027,,,1,,6,1,lightness,readingArea,realistic,75,2023-03-22_15h06.57.545,tripletExp_regina_11082022,2022.2.4,120.27919727914566,
7,12,3,0,0.111111111111111,1.0,0,0.027777777777778,3.10526315789474,0,0.444444444444444,0.298245614035088,ReadingArea_rsl0-rcl11-esl100-rsm0-rcm2-esm310-rsr0-rcr44-esr29,exr/ReadingArea_rsl0-rcl11-esl100-rsm0-rcm2-esm310-rsr0-rcr44-esr29.exr,ReadingArea_rsl0-rcl11-esl100-rsm0-rcm2-esm310-rsr0-rcr44-esr29.npz,,,,,0,65,65,584,,left,green,4.42,1927.1323261260984,1927.5154809951785,,,1,,6,1,lightness,readingArea,realistic,75,2023-03-22_15h06.57.545,tripletExp_regina_11082022,2022.2.4,120.27919727914566,
4,11,14,0,0.694444444444444,0.298245614035088,0,1.0,1.0,0,0.25,3.10526315789474,ReadingArea_rsl0-rcl69-esl29-rsm0-rcm100-esm100-rsr0-rcr25-esr310,exr/ReadingArea_rsl0-rcl69-esl29-rsm0-rcm100-esm100-rsr0-rcr25-esr310.exr,ReadingArea_rsl0-rcl69-esl29-rsm0-rcm100-esm100-rsr0-rcr25-esr310.npz,,,,,0,66,66,165,,right,red,2.21,1930.9903399944303,1931.3398151397705,,,1,,6,1,lightness,readingArea,realistic,75,2023-03-22_15h06.57.545,tripletExp_regina_11082022,2022.2.4,120.27919727914566,
2,8,7,0,0.25,0.298245614035088,0,0.25,1.0,0,0.111111111111111,1.0,ReadingArea_rsl0-rcl25-esl29-rsm0-rcm25-esm100-rsr0-rcr11-esr100,exr/ReadingArea_rsl0-rcl25-esl29-rsm0-rcm25-esm100-rsr0-rcr11-esr100.exr,ReadingArea_rsl0-rcl25-esl29-rsm0-rcm25-esm100-rsr0-rcr11-esr100.npz,,,,,0,67,67,393,,right,red,2.41,1934.788089990616,1935.1820230484009,,,1,,6,1,lightness,readingArea,realistic,75,2023-03-22_15h06.57.545,tripletExp_regina_11082022,2022.2.4,120.27919727914566,
13,7,11,0,0.111111111111111,3.10526315789474,0,0.111111111111111,1.0,0,1.0,1.0,ReadingArea_rsl0-rcl11-esl310-rsm0-rcm11-esm100-rsr0-rcr100-esr100,exr/ReadingArea_rsl0-rcl11-esl310-rsm0-rcm11-esm100-rsr0-rcr100-esr100.exr,ReadingArea_rsl0-rcl11-esl310-rsm0-rcm11-esm100-rsr0-rcr100-esr100.npz,,,,,0,68,68,121,,left,green,2.17,1938.659350156784,1939.0079820156093,,,1,,6,1,lightness,readingArea,realistic,75,2023-03-22_15h06.57.545,tripletExp_regina_11082022,2022.2.4,120.27919727914566,
3,9,13,0,0.444444444444444,0.298245614035088,0,0.444444444444444,1.0,0,0.111111111111111,3.10526315789474,ReadingArea_rsl0-rcl44-esl29-rsm0-rcm44-esm100-rsr0-rcr11-esr310,exr/ReadingArea_rsl0-rcl44-esl29-rsm0-rcm44-esm100-rsr0-rcr11-esr310.exr,ReadingArea_rsl0-rcl44-esl29-rsm0-rcm44-esm100-rsr0-rcr11-esr310.npz,,,,,0,69,69,341,,right,red,1.12,1940.7023060321808,1941.0491530895235,,,1,,6,1,lightness,readingArea,realistic,75,2023-03-22_15h06.57.545,tripletExp_regina_11082022,2022.2.4,120.27919727914566,
6,5,13,0,0.027777777777778,1.0,0,1.0,0.298245614035088,0,0.111111111111111,3.10526315789474,ReadingArea_rsl0-rcl2-esl100-rsm0-rcm100-esm29-rsr0-rcr11-esr310,exr/ReadingArea_rsl0-rcl2-esl100-rsm0-rcm100-esm29-rsr0-rcr11-esr310.exr,ReadingArea_rsl0-rcl2-esl100-rsm0-rcm100-esm29-rsr0-rcr11-esr310.npz,,,,,0,70,70,450,,right,red,1.07,1942.7407369613647,1943.0918719768524,,,1,,6,1,lightness,readingArea,realistic,75,2023-03-22_15h06.57.545,tripletExp_regina_11082022,2022.2.4,120.27919727914566,
3,7,9,0,0.444444444444444,0.298245614035088,0,0.111111111111111,1.0,0,0.444444444444444,1.0,ReadingArea_rsl0-rcl44-esl29-rsm0-rcm11-esm100-rsr0-rcr44-esr100,exr/ReadingArea_rsl0-rcl44-esl29-rsm0-rcm11-esm100-rsr0-rcr44-esr100.exr,ReadingArea_rsl0-rcl44-esl29-rsm0-rcm11-esm100-rsr0-rcr44-esr100.npz,,,,,0,71,71,382,,left,green,0.95,1944.7795860767365,,,,1,,6,1,lightness,readingArea,realistic,75,2023-03-22_15h06.57.545,tripletExp_regina_11082022,2022.2.4,120.27919727914566,
11,5,4,0,1.0,1.0,0,1.0,0.298245614035088,0,0.694444444444444,0.298245614035088,ReadingArea_rsl0-rcl100-esl100-rsm0-rcm100-esm29-rsr0-rcr69-esr29,exr/ReadingArea_rsl0-rcl100-esl100-rsm0-rcm100-esm29-rsr0-rcr69-esr29.exr,ReadingArea_rsl0-rcl100-esl100-rsm0-rcm100-esm29-rsr0-rcr69-esr29.npz,,,,,0,72,72,564,,right,red,0.96,1946.8494420051568,1947.199723958969,,,1,,6,1,lightness,readingArea,realistic,75,2023-03-22_15h06.57.545,tripletExp_regina_11082022,2022.2.4,120.27919727914566,
10,5,4,0,0.694444444444444,1.0,0,1.0,0.298245614035088,0,0.694444444444444,0.298245614035088,ReadingArea_rsl0-rcl69-esl100-rsm0-rcm100-esm29-rsr0-rcr69-esr29,exr/ReadingArea_rsl0-rcl69-esl100-rsm0-rcm100-esm29-rsr0-rcr69-esr29.exr,ReadingArea_rsl0-rcl69-esl100-rsm0-rcm100-esm29-rsr0-rcr69-esr29.npz,,,,,0,73,73,455,,right,red,1.03,1948.8965780735016,,,,1,,6,1,lightness,readingArea,realistic,75,2023-03-22_15h06.57.545,tripletExp_regina_11082022,2022.2.4,120.27919727914566,
13,2,9,0,0.111111111111111,3.10526315789474,0,0.25,0.298245614035088,0,0.444444444444444,1.0,ReadingArea_rsl0-rcl11-esl310-rsm0-rcm25-esm29-rsr0-rcr44-esr100,exr/ReadingArea_rsl0-rcl11-esl310-rsm0-rcm25-esm29-rsr0-rcr44-esr100.exr,ReadingArea_rsl0-rcl11-esl310-rsm0-rcm25-esm29-rsr0-rcr44-esr100.npz,,,,,0,74,74,457,,left,green,2.53,1952.695620059967,1952.8962750434875,,,1,,6,1,lightness,readingArea,realistic,75,2023-03-22_15h06.57.545,tripletExp_regina_11082022,2022.2.4,120.27919727914566,
1,10,0,0,0.111111111111111,0.298245614035088,0,0.694444444444444,1.0,0,0.027777777777778,0.298245614035088,ReadingArea_rsl0-rcl11-esl29-rsm0-rcm69-esm100-rsr0-rcr2-esr29,exr/ReadingArea_rsl0-rcl11-esl29-rsm0-rcm69-esm100-rsr0-rcr2-esr29.exr,ReadingArea_rsl0-rcl11-esl29-rsm0-rcm69-esm100-rsr0-rcr2-esr29.npz,,,,,0,75,75,196,,left,green,1.5,1968.923295974732,1969.273108959198,,,2,,6,1,lightness,readingArea,realistic,75,2023-03-22_15h06.57.545,tripletExp_regina_11082022,2022.2.4,120.27919727914566,
5,10,0,0,1.0,0.298245614035088,0,0.694444444444444,1.0,0,0.027777777777778,0.298245614035088,ReadingArea_rsl0-rcl100-esl29-rsm0-rcm69-esm100-rsr0-rcr2-esr29,exr/ReadingArea_rsl0-rcl100-esl29-rsm0-rcm69-esm100-rsr0-rcr2-esr29.exr,ReadingArea_rsl0-rcl100-esl29-rsm0-rcm69-esm100-rsr0-rcr2-esr29.npz,,,,,0,76,76,293,,left,green,0.86,1970.972533941269,1971.330027103424,,,2,,6,1,lightness,readingArea,realistic,75,2023-03-22_15h06.57.545,tripletExp_regina_11082022,2022.2.4,120.27919727914566,
13,10,7,0,0.111111111111111,3.10526315789474,0,0.694444444444444,1.0,0,0.111111111111111,1.0,ReadingArea_rsl0-rcl11-esl310-rsm0-rcm69-esm100-rsr0-rcr11-esr100,exr/ReadingArea_rsl0-rcl11-esl310-rsm0-rcm69-esm100-rsr0-rcr11-esr100.exr,ReadingArea_rsl0-rcl11-esl310-rsm0-rcm69-esm100-rsr0-rcr11-esr100.npz,,,,,0,77,77,385,,left,green,0.92,1973.0257909297943,,,,2,,6,1,lightness,readingArea,realistic,75,2023-03-22_15h06.57.545,tripletExp_regina_11082022,2022.2.4,120.27919727914566,
1,14,6,0,0.111111111111111,0.298245614035088,0,0.25,3.10526315789474,0,0.027777777777778,1.0,ReadingArea_rsl0-rcl11-esl29-rsm0-rcm25-esm310-rsr0-rcr2-esr100,exr/ReadingArea_rsl0-rcl11-esl29-rsm0-rcm25-esm310-rsr0-rcr2-esr100.exr,ReadingArea_rsl0-rcl11-esl29-rsm0-rcm25-esm310-rsr0-rcr2-esr100.npz,,,,,0,78,78,475,,left,green,2.76,1976.8257520198824,1977.1735150814056,,,2,,6,1,lightness,readingArea,realistic,75,2023-03-22_15h06.57.545,tripletExp_regina_11082022,2022.2.4,120.27919727914566,
8,14,3,0,0.25,1.0,0,0.25,3.10526315789474,0,0.444444444444444,0.298245614035088,ReadingArea_rsl0-rcl25-esl100-rsm0-rcm25-esm310-rsr0-rcr44-esr29,exr/ReadingArea_rsl0-rcl25-esl100-rsm0-rcm25-esm310-rsr0-rcr44-esr29.exr,ReadingArea_rsl0-rcl25-esl100-rsm0-rcm25-esm310-rsr0-rcr44-esr29.npz,,,,,0,79,79,503,,left,green,1.41,1978.883427143097,1979.2298381328585,,,2,,6,1,lightness,readingArea,realistic,75,2023-03-22_15h06.57.545,tripletExp_regina_11082022,2022.2.4,120.27919727914566,
13,11,8,0,0.111111111111111,3.10526315789474,0,1.0,1.0,0,0.25,1.0,ReadingArea_rsl0-rcl11-esl310-rsm0-rcm100-esm100-rsr0-rcr25-esr100,exr/ReadingArea_rsl0-rcl11-esl310-rsm0-rcm100-esm100-rsr0-rcr25-esr100.exr,ReadingArea_rsl0-rcl11-esl310-rsm0-rcm100-esm100-rsr0-rcr25-esr100.npz,,,,,0,80,80,410,,left,green,2.26,1982.6923789978027,1983.0502519607544,,,2,,6,1,lightness,readingArea,realistic,75,2023-03-22_15h06.57.545,tripletExp_regina_11082022,2022.2.4,120.27919727914566,
6,11,8,0,0.027777777777778,1.0,0,1.0,1.0,0,0.25,1.0,ReadingArea_rsl0-rcl2-esl100-rsm0-rcm100-esm100-rsr0-rcr25-esr100,exr/ReadingArea_rsl0-rcl2-esl100-rsm0-rcm100-esm100-rsr0-rcr25-esr100.exr,ReadingArea_rsl0-rcl2-esl100-rsm0-rcm100-esm100-rsr0-rcr25-esr100.npz,,,,,0,81,81,176,,right,red,1.2,1984.7516651153564,1985.0988430976868,,,2,,6,1,lightness,readingArea,realistic,75,2023-03-22_15h06.57.545,tripletExp_regina_11082022,2022.2.4,120.27919727914566,
2,6,12,0,0.25,0.298245614035088,0,0.027777777777778,1.0,0,0.027777777777778,3.10526315789474,ReadingArea_rsl0-rcl25-esl29-rsm0-rcm2-esm100-rsr0-rcr2-esr310,exr/ReadingArea_rsl0-rcl25-esl29-rsm0-rcm2-esm100-rsr0-rcr2-esr310.exr,ReadingArea_rsl0-rcl25-esl29-rsm0-rcm2-esm100-rsr0-rcr2-esr310.npz,,,,,0,82,82,97,,right,red,2.65,1988.5922980308533,1988.941316127777,,,2,,6,1,lightness,readingArea,realistic,75,2023-03-22_15h06.57.545,tripletExp_regina_11082022,2022.2.4,120.27919727914566,
12,6,14,0,0.027777777777778,3.10526315789474,0,0.027777777777778,1.0,0,0.25,3.10526315789474,ReadingArea_rsl0-rcl2-esl310-rsm0-rcm2-esm100-rsr0-rcr25-esr310,exr/ReadingArea_rsl0-rcl2-esl310-rsm0-rcm2-esm100-rsr0-rcr25-esr310.exr,ReadingArea_rsl0-rcl2-esl310-rsm0-rcm2-esm100-rsr0-rcr25-esr310.npz,,,,,0,83,83,218,,left,green,1.05,1990.6412870883944,1990.99026799202,,,2,,6,1,lightness,readingArea,realistic,75,2023-03-22_15h06.57.545,tripletExp_regina_11082022,2022.2.4,120.27919727914566,
1,12,0,0,0.111111111111111,0.298245614035088,0,0.027777777777778,3.10526315789474,0,0.027777777777778,0.298245614035088,ReadingArea_rsl0-rcl11-esl29-rsm0-rcm2-esm310-rsr0-rcr2-esr29,exr/ReadingArea_rsl0-rcl11-esl29-rsm0-rcm2-esm310-rsr0-rcr2-esr29.exr,ReadingArea_rsl0-rcl11-esl29-rsm0-rcm2-esm310-rsr0-rcr2-esr29.npz,,,,,0,84,84,113,,left,green,1.16,1992.6800191402435,1993.0480329990387,,,2,,6,1,lightness,readingArea,realistic,75,2023-03-22_15h06.57.545,tripletExp_regina_11082022,2022.2.4,120.27919727914566,
2,5,14,0,0.25,0.298245614035088,0,1.0,0.298245614035088,0,0.25,3.10526315789474,ReadingArea_rsl0-rcl25-esl29-rsm0-rcm100-esm29-rsr0-rcr25-esr310,exr/ReadingArea_rsl0-rcl25-esl29-rsm0-rcm100-esm29-rsr0-rcr25-esr310.exr,ReadingArea_rsl0-rcl25-esl29-rsm0-rcm100-esm29-rsr0-rcr25-esr310.npz,,,,,0,85,85,390,,left,green,1.45,1994.745414018631,1995.092672109604,,,2,,6,1,lightness,readingArea,realistic,75,2023-03-22_15h06.57.545,tripletExp_regina_11082022,2022.2.4,120.27919727914566,
12,13,7,0,0.027777777777778,3.10526315789474,0,0.111111111111111,3.10526315789474,0,0.111111111111111,1.0,ReadingArea_rsl0-rcl2-esl310-rsm0-rcm11-esm310-rsr0-rcr11-esr100,exr/ReadingArea_rsl0-rcl2-esl310-rsm0-rcm11-esm310-rsr0-rcr11-esr100.exr,ReadingArea_rsl0-rcl2-esl310-rsm0-rcm11-esm310-rsr0-rcr11-esr100.npz,,,,,0,86,86,408,,right,red,3.0,1998.582525968552,1998.9381330013275,,,2,,6,1,lightness,readingArea,realistic,75,2023-03-22_15h06.57.545,tripletExp_regina_11082022,2022.2.4,120.27919727914566,
6,12,3,0,0.027777777777778,1.0,0,0.027777777777778,3.10526315789474,0,0.444444444444444,0.298245614035088,ReadingArea_rsl0-rcl2-esl100-rsm0-rcm2-esm310-rsr0-rcr44-esr29,exr/ReadingArea_rsl0-rcl2-esl100-rsm0-rcm2-esm310-rsr0-rcr44-esr29.exr,ReadingArea_rsl0-rcl2-esl100-rsm0-rcm2-esm310-rsr0-rcr44-esr29.npz,,,,,0,87,87,284,,right,red,1.12,2000.654180049896,2001.002815961837,,,2,,6,1,lightness,readingArea,realistic,75,2023-03-22_15h06.57.545,tripletExp_regina_11082022,2022.2.4,120.27919727914566,
9,12,11,0,0.444444444444444,1.0,0,0.027777777777778,3.10526315789474,0,1.0,1.0,ReadingArea_rsl0-rcl44-esl100-rsm0-rcm2-esm310-rsr0-rcr100-esr100,exr/ReadingArea_rsl0-rcl44-esl100-rsm0-rcm2-esm310-rsr0-rcr100-esr100.exr,ReadingArea_rsl0-rcl44-esl100-rsm0-rcm2-esm310-rsr0-rcr100-esr100.npz,,,,,0,88,88,144,,left,green,2.92,2004.4849700927728,2004.836491107941,,,2,,6,1,lightness,readingArea,realistic,75,2023-03-22_15h06.57.545,tripletExp_regina_11082022,2022.2.4,120.27919727914566,
13,6,10,0,0.111111111111111,3.10526315789474,0,0.027777777777778,1.0,0,0.694444444444444,1.0,ReadingArea_rsl0-rcl11-esl310-rsm0-rcm2-esm100-rsr0-rcr69-esr100,exr/ReadingArea_rsl0-rcl11-esl310-rsm0-rcm2-esm100-rsr0-rcr69-esr100.exr,ReadingArea_rsl0-rcl11-esl310-rsm0-rcm2-esm100-rsr0-rcr69-esr100.npz,,,,,0,89,89,593,,left,green,1.0,2006.5244410038,2006.877633094788,,,2,,6,1,lightness,readingArea,realistic,75,2023-03-22_15h06.57.545,tripletExp_regina_11082022,2022.2.4,120.27919727914566,
2,1,3,0,0.25,0.298245614035088,0,0.111111111111111,0.298245614035088,0,0.444444444444444,0.298245614035088,ReadingArea_rsl0-rcl25-esl29-rsm0-rcm11-esm29-rsr0-rcr44-esr29,exr/ReadingArea_rsl0-rcl25-esl29-rsm0-rcm11-esm29-rsr0-rcr44-esr29.exr,ReadingArea_rsl0-rcl25-esl29-rsm0-rcm11-esm29-rsr0-rcr44-esr29.npz,,,,,0,90,90,85,,left,green,1.26,2008.5887100696564,2008.9354979991915,,,2,,6,1,lightness,readingArea,realistic,75,2023-03-22_15h06.57.545,tripletExp_regina_11082022,2022.2.4,120.27919727914566,
3,4,0,0,0.444444444444444,0.298245614035088,0,0.694444444444444,0.298245614035088,0,0.027777777777778,0.298245614035088,ReadingArea_rsl0-rcl44-esl29-rsm0-rcm69-esm29-rsr0-rcr2-esr29,exr/ReadingArea_rsl0-rcl44-esl29-rsm0-rcm69-esm29-rsr0-rcr2-esr29.exr,ReadingArea_rsl0-rcl44-esl29-rsm0-rcm69-esm29-rsr0-rcr2-esr29.npz,,,,,0,91,91,130,,left,green,0.98,2010.6257309913635,2010.979551076889,,,2,,6,1,lightness,readingArea,realistic,75,2023-03-22_15h06.57.545,tripletExp_regina_11082022,2022.2.4,120.27919727914566,
9,0,8,0,0.444444444444444,1.0,0,0.027777777777778,0.298245614035088,0,0.25,1.0,ReadingArea_rsl0-rcl44-esl100-rsm0-rcm2-esm29-rsr0-rcr25-esr100,exr/ReadingArea_rsl0-rcl44-esl100-rsm0-rcm2-esm29-rsr0-rcr25-esr100.exr,ReadingArea_rsl0-rcl44-esl100-rsm0-rcm2-esm29-rsr0-rcr25-esr100.npz,,,,,0,92,92,27,,right,red,1.58,2012.6693141460416,2013.023388147354,,,2,,6,1,lightness,readingArea,realistic,75,2023-03-22_15h06.57.545,tripletExp_regina_11082022,2022.2.4,120.27919727914566,
2,8,3,0,0.25,0.298245614035088,0,0.25,1.0,0,0.444444444444444,0.298245614035088,ReadingArea_rsl0-rcl25-esl29-rsm0-rcm25-esm100-rsr0-rcr44-esr29,exr/ReadingArea_rsl0-rcl25-esl29-rsm0-rcm25-esm100-rsr0-rcr44-esr29.exr,ReadingArea_rsl0-rcl25-esl29-rsm0-rcm25-esm100-rsr0-rcr44-esr29.npz,,,,,0,93,93,568,,right,red,2.76,2016.480494976044,2016.8312430381773,,,2,,6,1,lightness,readingArea,realistic,75,2023-03-22_15h06.57.545,tripletExp_regina_11082022,2022.2.4,120.27919727914566,
11,10,0,0,1.0,1.0,0,0.694444444444444,1.0,0,0.027777777777778,0.298245614035088,ReadingArea_rsl0-rcl100-esl100-rsm0-rcm69-esm100-rsr0-rcr2-esr29,exr/ReadingArea_rsl0-rcl100-esl100-rsm0-rcm69-esm100-rsr0-rcr2-esr29.exr,ReadingArea_rsl0-rcl100-esl100-rsm0-rcm69-esm100-rsr0-rcr2-esr29.npz,,,,,0,94,94,549,,left,green,1.12,2018.5366921424863,2018.889286994934,,,2,,6,1,lightness,readingArea,realistic,75,2023-03-22_15h06.57.545,tripletExp_regina_11082022,2022.2.4,120.27919727914566,
10,12,9,0,0.694444444444444,1.0,0,0.027777777777778,3.10526315789474,0,0.444444444444444,1.0,ReadingArea_rsl0-rcl69-esl100-rsm0-rcm2-esm310-rsr0-rcr44-esr100,exr/ReadingArea_rsl0-rcl69-esl100-rsm0-rcm2-esm310-rsr0-rcr44-esr100.exr,ReadingArea_rsl0-rcl69-esl100-rsm0-rcm2-esm310-rsr0-rcr44-esr100.npz,,,,,0,95,95,405,,right,red,2.74,2022.3718631267548,2022.7264831066127,,,2,,6,1,lightness,readingArea,realistic,75,2023-03-22_15h06.57.545,tripletExp_regina_11082022,2022.2.4,120.27919727914566,
13,0,8,0,0.111111111111111,3.10526315789474,0,0.027777777777778,0.298245614035088,0,0.25,1.0,ReadingArea_rsl0-rcl11-esl310-rsm0-rcm2-esm29-rsr0-rcr25-esr100,exr/ReadingArea_rsl0-rcl11-esl310-rsm0-rcm2-esm29-rsr0-rcr25-esr100.exr,ReadingArea_rsl0-rcl11-esl310-rsm0-rcm2-esm29-rsr0-rcr25-esr100.npz,,,,,0,96,96,249,,right,red,2.59,2026.210420131684,2026.565170049668,,,2,,6,1,lightness,readingArea,realistic,75,2023-03-22_15h06.57.545,tripletExp_regina_11082022,2022.2.4,120.27919727914566,
10,3,6,0,0.694444444444444,1.0,0,0.444444444444444,0.298245614035088,0,0.027777777777778,1.0,ReadingArea_rsl0-rcl69-esl100-rsm0-rcm44-esm29-rsr0-rcr2-esr100,exr/ReadingArea_rsl0-rcl69-esl100-rsm0-rcm44-esm29-rsr0-rcr2-esr100.exr,ReadingArea_rsl0-rcl69-esl100-rsm0-rcm44-esm29-rsr0-rcr2-esr100.npz,,,,,0,97,97,261,,right,red,2.36,2030.0248301029203,2030.374617099762,,,2,,6,1,lightness,readingArea,realistic,75,2023-03-22_15h06.57.545,tripletExp_regina_11082022,2022.2.4,120.27919727914566,
14,13,0,0,0.25,3.10526315789474,0,0.111111111111111,3.10526315789474,0,0.027777777777778,0.298245614035088,ReadingArea_rsl0-rcl25-esl310-rsm0-rcm11-esm310-rsr0-rcr2-esr29,exr/ReadingArea_rsl0-rcl25-esl310-rsm0-rcm11-esm310-rsr0-rcr2-esr29.exr,ReadingArea_rsl0-rcl25-esl310-rsm0-rcm11-esm310-rsr0-rcr2-esr29.npz,,,,,0,98,98,417,,left,green,2.49,2033.837165117264,2034.1915349960327,,,2,,6,1,lightness,readingArea,realistic,75,2023-03-22_15h06.57.545,tripletExp_regina_11082022,2022.2.4,120.27919727914566,
0,5,2,0,0.027777777777778,0.298245614035088,0,1.0,0.298245614035088,0,0.25,0.298245614035088,ReadingArea_rsl0-rcl2-esl29-rsm0-rcm100-esm29-rsr0-rcr25-esr29,exr/ReadingArea_rsl0-rcl2-esl29-rsm0-rcm100-esm29-rsr0-rcr25-esr29.exr,ReadingArea_rsl0-rcl2-esl29-rsm0-rcm100-esm29-rsr0-rcr25-esr29.npz,,,,,0,99,99,25,,right,red,1.2,2035.8868880271912,2036.245483160019,,,2,,6,1,lightness,readingArea,realistic,75,2023-03-22_15h06.57.545,tripletExp_regina_11082022,2022.2.4,120.27919727914566,
13,0,9,0,0.111111111111111,3.10526315789474,0,0.027777777777778,0.298245614035088,0,0.444444444444444,1.0,ReadingArea_rsl0-rcl11-esl310-rsm0-rcm2-esm29-rsr0-rcr44-esr100,exr/ReadingArea_rsl0-rcl11-esl310-rsm0-rcm2-esm29-rsr0-rcr44-esr100.exr,ReadingArea_rsl0-rcl11-esl310-rsm0-rcm2-esm29-rsr0-rcr44-esr100.npz,,,,,0,100,100,373,,left,green,4.59,2041.4714319705963,2041.8284239768984,,,2,,6,1,lightness,readingArea,realistic,75,2023-03-22_15h06.57.545,tripletExp_regina_11082022,2022.2.4,120.27919727914566,
11,2,4,0,1.0,1.0,0,0.25,0.298245614035088,0,0.694444444444444,0.298245614035088,ReadingArea_rsl0-rcl100-esl100-rsm0-rcm25-esm29-rsr0-rcr69-esr29,exr/ReadingArea_rsl0-rcl100-esl100-rsm0-rcm25-esm29-rsr0-rcr69-esr29.exr,ReadingArea_rsl0-rcl100-esl100-rsm0-rcm25-esm29-rsr0-rcr69-esr29.npz,,,,,0,101,101,359,,right,red,2.32,2045.3185839653013,2045.6681220531464,,,2,,6,1,lightness,readingArea,realistic,75,2023-03-22_15h06.57.545,tripletExp_regina_11082022,2022.2.4,120.27919727914566,
10,0,3,0,0.694444444444444,1.0,0,0.027777777777778,0.298245614035088,0,0.444444444444444,0.298245614035088,ReadingArea_rsl0-rcl69-esl100-rsm0-rcm2-esm29-rsr0-rcr44-esr29,exr/ReadingArea_rsl0-rcl69-esl100-rsm0-rcm2-esm29-rsr0-rcr44-esr29.exr,ReadingArea_rsl0-rcl69-esl100-rsm0-rcm2-esm29-rsr0-rcr44-esr29.npz,,,,,0,102,102,87,,right,red,2.6,2049.123335123062,2049.4787640571594,,,2,,6,1,lightness,readingArea,realistic,75,2023-03-22_15h06.57.545,tripletExp_regina_11082022,2022.2.4,120.27919727914566,
10,11,4,0,0.694444444444444,1.0,0,1.0,1.0,0,0.694444444444444,0.298245614035088,ReadingArea_rsl0-rcl69-esl100-rsm0-rcm100-esm100-rsr0-rcr69-esr29,exr/ReadingArea_rsl0-rcl69-esl100-rsm0-rcm100-esm100-rsr0-rcr69-esr29.exr,ReadingArea_rsl0-rcl69-esl100-rsm0-rcm100-esm100-rsr0-rcr69-esr29.npz,,,,,0,103,103,239,,left,green,2.59,2052.948187112808,2053.308058977127,,,2,,6,1,lightness,readingArea,realistic,75,2023-03-22_15h06.57.545,tripletExp_regina_11082022,2022.2.4,120.27919727914566,
2,3,9,0,0.25,0.298245614035088,0,0.444444444444444,0.298245614035088,0,0.444444444444444,1.0,ReadingArea_rsl0-rcl25-esl29-rsm0-rcm44-esm29-rsr0-rcr44-esr100,exr/ReadingArea_rsl0-rcl25-esl29-rsm0-rcm44-esm29-rsr0-rcr44-esr100.exr,ReadingArea_rsl0-rcl25-esl29-rsm0-rcm44-esm29-rsr0-rcr44-esr100.npz,,,,,0,104,104,190,,left,green,0.83,2055.0300970077515,,,,2,,6,1,lightness,readingArea,realistic,75,2023-03-22_15h06.57.545,tripletExp_regina_11082022,2022.2.4,120.27919727914566,
6,12,0,0,0.027777777777778,1.0,0,0.027777777777778,3.10526315789474,0,0.027777777777778,0.298245614035088,ReadingArea_rsl0-rcl2-esl100-rsm0-rcm2-esm310-rsr0-rcr2-esr29,exr/ReadingArea_rsl0-rcl2-esl100-rsm0-rcm2-esm310-rsr0-rcr2-esr29.exr,ReadingArea_rsl0-rcl2-esl100-rsm0-rcm2-esm310-rsr0-rcr2-esr29.npz,,,,,0,105,105,23,,left,green,1.16,2057.0966889858246,2057.4454231262207,,,2,,6,1,lightness,readingArea,realistic,75,2023-03-22_15h06.57.545,tripletExp_regina_11082022,2022.2.4,120.27919727914566,
14,13,2,0,0.25,3.10526315789474,0,0.111111111111111,3.10526315789474,0,0.25,0.298245614035088,ReadingArea_rsl0-rcl25-esl310-rsm0-rcm11-esm310-rsr0-rcr25-esr29,exr/ReadingArea_rsl0-rcl25-esl310-rsm0-rcm11-esm310-rsr0-rcr25-esr29.exr,ReadingArea_rsl0-rcl25-esl310-rsm0-rcm11-esm310-rsr0-rcr25-esr29.npz,,,,,0,106,106,377,,left,green,0.84,2059.1524040699005,2059.604499101639,,,2,,6,1,lightness,readingArea,realistic,75,2023-03-22_15h06.57.545,tripletExp_regina_11082022,2022.2.4,120.27919727914566,
10,11,12,0,0.694444444444444,1.0,0,1.0,1.0,0,0.027777777777778,3.10526315789474,ReadingArea_rsl0-rcl69-esl100-rsm0-rcm100-esm100-rsr0-rcr2-esr310,exr/ReadingArea_rsl0-rcl69-esl100-rsm0-rcm100-esm100-rsr0-rcr2-esr310.exr,ReadingArea_rsl0-rcl69-esl100-rsm0-rcm100-esm100-rsr0-rcr2-esr310.npz,,,,,0,107,107,533,,left,green,0.85,2061.326108932495,2061.678521156311,,,2,,6,1,lightness,readingArea,realistic,75,2023-03-22_15h06.57.545,tripletExp_regina_11082022,2022.2.4,120.27919727914566,
11,8,0,0,1.0,1.0,0,0.25,1.0,0,0.027777777777778,0.298245614035088,ReadingArea_rsl0-rcl100-esl100-rsm0-rcm25-esm100-rsr0-rcr2-esr29,exr/ReadingArea_rsl0-rcl100-esl100-rsm0-rcm25-esm100-rsr0-rcr2-esr29.exr,ReadingArea_rsl0-rcl100-esl100-rsm0-rcm25-esm100-rsr0-rcr2-esr29.npz,,,,,0,108,108,81,,left,green,0.67,2063.396191120148,2063.747627019882,,,2,,6,1,lightness,readingArea,realistic,75,2023-03-22_15h06.57.545,tripletExp_regina_11082022,2022.2.4,120.27919727914566,
8,1,3,0,0.25,1.0,0,0.111111111111111,0.298245614035088,0,0.444444444444444,0.298245614035088,ReadingArea_rsl0-rcl25-esl100-rsm0-rcm11-esm29-rsr0-rcr44-esr29,exr/ReadingArea_rsl0-rcl25-esl100-rsm0-rcm11-esm29-rsr0-rcr44-esr29.exr,ReadingArea_rsl0-rcl25-esl100-rsm0-rcm11-esm29-rsr0-rcr44-esr29.npz,,,,,0,109,109,490,,right,red,2.49,2067.21404504776,2067.566018104553,,,2,,6,1,lightness,readingArea,realistic,75,2023-03-22_15h06.57.545,tripletExp_regina_11082022,2022.2.4,120.27919727914566,
0,2,1,0,0.027777777777778,0.298245614035088,0,0.25,0.298245614035088,0,0.111111111111111,0.298245614035088,ReadingArea_rsl0-rcl2-esl29-rsm0-rcm25-esm29-rsr0-rcr11-esr29,exr/ReadingArea_rsl0-rcl2-esl29-rsm0-rcm25-esm29-rsr0-rcr11-esr29.exr,ReadingArea_rsl0-rcl2-esl29-rsm0-rcm25-esm29-rsr0-rcr11-esr29.npz,,,,,0,110,110,527,,right,red,1.05,2069.258146047592,,,,2,,6,1,lightness,readingArea,realistic,75,2023-03-22_15h06.57.545,tripletExp_regina_11082022,2022.2.4,120.27919727914566,
7,3,12,0,0.111111111111111,1.0,0,0.444444444444444,0.298245614035088,0,0.027777777777778,3.10526315789474,ReadingArea_rsl0-rcl11-esl100-rsm0-rcm44-esm29-rsr0-rcr2-esr310,exr/ReadingArea_rsl0-rcl11-esl100-rsm0-rcm44-esm29-rsr0-rcr2-esr310.exr,ReadingArea_rsl0-rcl11-esl100-rsm0-rcm44-esm29-rsr0-rcr2-esr310.npz,,,,,0,111,111,443,,right,red,2.83,2073.079482078552,2073.4330570697784,,,2,,6,1,lightness,readingArea,realistic,75,2023-03-22_15h06.57.545,tripletExp_regina_11082022,2022.2.4,120.27919727914566,
2,3,4,0,0.25,0.298245614035088,0,0.444444444444444,0.298245614035088,0,0.694444444444444,0.298245614035088,ReadingArea_rsl0-rcl25-esl29-rsm0-rcm44-esm29-rsr0-rcr69-esr29,exr/ReadingArea_rsl0-rcl25-esl29-rsm0-rcm44-esm29-rsr0-rcr69-esr29.exr,ReadingArea_rsl0-rcl25-esl29-rsm0-rcm44-esm29-rsr0-rcr69-esr29.npz,,,,,0,112,112,61,,right,red,1.15,2075.149840116501,,,,2,,6,1,lightness,readingArea,realistic,75,2023-03-22_15h06.57.545,tripletExp_regina_11082022,2022.2.4,120.27919727914566,
9,6,14,0,0.444444444444444,1.0,0,0.027777777777778,1.0,0,0.25,3.10526315789474,ReadingArea_rsl0-rcl44-esl100-rsm0-rcm2-esm100-rsr0-rcr25-esr310,exr/ReadingArea_rsl0-rcl44-esl100-rsm0-rcm2-esm100-rsr0-rcr25-esr310.exr,ReadingArea_rsl0-rcl44-esl100-rsm0-rcm2-esm100-rsr0-rcr25-esr310.npz,,,,,0,113,113,213,,left,green,2.67,2078.9928481578827,2079.3500390052795,,,2,,6,1,lightness,readingArea,realistic,75,2023-03-22_15h06.57.545,tripletExp_regina_11082022,2022.2.4,120.27919727914566,
14,9,12,0,0.25,3.10526315789474,0,0.444444444444444,1.0,0,0.027777777777778,3.10526315789474,ReadingArea_rsl0-rcl25-esl310-rsm0-rcm44-esm100-rsr0-rcr2-esr310,exr/ReadingArea_rsl0-rcl25-esl310-rsm0-rcm44-esm100-rsr0-rcr2-esr310.exr,ReadingArea_rsl0-rcl25-esl310-rsm0-rcm44-esm100-rsr0-rcr2-esr310.npz,,,,,0,114,114,378,,left,green,3.3,2082.8155369758606,2083.1685400009155,,,2,,6,1,lightness,readingArea,realistic,75,2023-03-22_15h06.57.545,tripletExp_regina_11082022,2022.2.4,120.27919727914566,
11,14,2,0,1.0,1.0,0,0.25,3.10526315789474,0,0.25,0.298245614035088,ReadingArea_rsl0-rcl100-esl100-rsm0-rcm25-esm310-rsr0-rcr25-esr29,exr/ReadingArea_rsl0-rcl100-esl100-rsm0-rcm25-esm310-rsr0-rcr25-esr29.exr,ReadingArea_rsl0-rcl100-esl100-rsm0-rcm25-esm310-rsr0-rcr25-esr29.npz,,,,,0,115,115,419,,left,green,0.87,2084.8635280132294,2085.302917957306,,,2,,6,1,lightness,readingArea,realistic,75,2023-03-22_15h06.57.545,tripletExp_regina_11082022,2022.2.4,120.27919727914566,
7,2,6,0,0.111111111111111,1.0,0,0.25,0.298245614035088,0,0.027777777777778,1.0,ReadingArea_rsl0-rcl11-esl100-rsm0-rcm25-esm29-rsr0-rcr2-esr100,exr/ReadingArea_rsl0-rcl11-esl100-rsm0-rcm25-esm29-rsr0-rcr2-esr100.exr,ReadingArea_rsl0-rcl11-esl100-rsm0-rcm25-esm29-rsr0-rcr2-esr100.npz,,,,,0,116,116,506,,left,green,0.73,2086.9897639751434,2087.358938932419,,,2,,6,1,lightness,readingArea,realistic,75,2023-03-22_15h06.57.545,tripletExp_regina_11082022,2022.2.4,120.27919727914566,
14,12,0,0,0.25,3.10526315789474,0,0.027777777777778,3.10526315789474,0,0.027777777777778,0.298245614035088,ReadingArea_rsl0-rcl25-esl310-rsm0-rcm2-esm310-rsr0-rcr2-esr29,exr/ReadingArea_rsl0-rcl25-esl310-rsm0-rcm2-esm310-rsr0-rcr2-esr29.exr,ReadingArea_rsl0-rcl25-esl310-rsm0-rcm2-esm310-rsr0-rcr2-esr29.npz,,,,,0,117,117,409,,right,red,1.1,2089.052719116211,2089.4091761112213,,,2,,6,1,lightness,readingArea,realistic,75,2023-03-22_15h06.57.545,tripletExp_regina_11082022,2022.2.4,120.27919727914566,
8,13,2,0,0.25,1.0,0,0.111111111111111,3.10526315789474,0,0.25,0.298245614035088,ReadingArea_rsl0-rcl25-esl100-rsm0-rcm11-esm310-rsr0-rcr25-esr29,exr/ReadingArea_rsl0-rcl25-esl100-rsm0-rcm11-esm310-rsr0-rcr25-esr29.exr,ReadingArea_rsl0-rcl25-esl100-rsm0-rcm11-esm310-rsr0-rcr25-esr29.npz,,,,,0,118,118,376,,left,green,2.09,2092.901137113571,2093.255475997925,,,2,,6,1,lightness,readingArea,realistic,75,2023-03-22_15h06.57.545,tripletExp_regina_11082022,2022.2.4,120.27919727914566,
2,13,3,0,0.25,0.298245614035088,0,0.111111111111111,3.10526315789474,0,0.444444444444444,0.298245614035088,ReadingArea_rsl0-rcl25-esl29-rsm0-rcm11-esm310-rsr0-rcr44-esr29,exr/ReadingArea_rsl0-rcl25-esl29-rsm0-rcm11-esm310-rsr0-rcr44-esr29.exr,ReadingArea_rsl0-rcl25-esl29-rsm0-rcm11-esm310-rsr0-rcr44-esr29.npz,,,,,0,119,119,473,,right,red,2.16,2096.717225074768,2097.07941198349,,,2,,6,1,lightness,readingArea,realistic,75,2023-03-22_15h06.57.545,tripletExp_regina_11082022,2022.2.4,120.27919727914566,
4,3,10,0,0.694444444444444,0.298245614035088,0,0.444444444444444,0.298245614035088,0,0.694444444444444,1.0,ReadingArea_rsl0-rcl69-esl29-rsm0-rcm44-esm29-rsr0-rcr69-esr100,exr/ReadingArea_rsl0-rcl69-esl29-rsm0-rcm44-esm29-rsr0-rcr69-esr100.exr,ReadingArea_rsl0-rcl69-esl29-rsm0-rcm44-esm29-rsr0-rcr69-esr100.npz,,,,,0,120,120,371,,left,green,1.34,2098.7710061073303,,,,2,,6,1,lightness,readingArea,realistic,75,2023-03-22_15h06.57.545,tripletExp_regina_11082022,2022.2.4,120.27919727914566,
9,4,14,0,0.444444444444444,1.0,0,0.694444444444444,0.298245614035088,0,0.25,3.10526315789474,ReadingArea_rsl0-rcl44-esl100-rsm0-rcm69-esm29-rsr0-rcr25-esr310,exr/ReadingArea_rsl0-rcl44-esl100-rsm0-rcm69-esm29-rsr0-rcr25-esr310.exr,ReadingArea_rsl0-rcl44-esl100-rsm0-rcm69-esm29-rsr0-rcr25-esr310.npz,,,,,0,121,121,104,,left,green,1.6,2100.8180730342865,2101.1749551296234,,,2,,6,1,lightness,readingArea,realistic,75,2023-03-22_15h06.57.545,tripletExp_regina_11082022,2022.2.4,120.27919727914566,
10,0,11,0,0.694444444444444,1.0,0,0.027777777777778,0.298245614035088,0,1.0,1.0,ReadingArea_rsl0-rcl69-esl100-rsm0-rcm2-esm29-rsr0-rcr100-esr100,exr/ReadingArea_rsl0-rcl69-esl100-rsm0-rcm2-esm29-rsr0-rcr100-esr100.exr,ReadingArea_rsl0-rcl69-esl100-rsm0-rcm2-esm29-rsr0-rcr100-esr100.npz,,,,,0,122,122,573,,left,green,1.26,2102.870957136154,,,,2,,6,1,lightness,readingArea,realistic,75,2023-03-22_15h06.57.545,tripletExp_regina_11082022,2022.2.4,120.27919727914566,
10,11,0,0,0.694444444444444,1.0,0,1.0,1.0,0,0.027777777777778,0.298245614035088,ReadingArea_rsl0-rcl69-esl100-rsm0-rcm100-esm100-rsr0-rcr2-esr29,exr/ReadingArea_rsl0-rcl69-esl100-rsm0-rcm100-esm100-rsr0-rcr2-esr29.exr,ReadingArea_rsl0-rcl69-esl100-rsm0-rcm100-esm100-rsr0-rcr2-esr29.npz,,,,,0,123,123,58,,left,green,0.96,2104.9360361099243,2105.2916910648346,,,2,,6,1,lightness,readingArea,realistic,75,2023-03-22_15h06.57.545,tripletExp_regina_11082022,2022.2.4,120.27919727914566,
5,13,6,0,1.0,0.298245614035088,0,0.111111111111111,3.10526315789474,0,0.027777777777778,1.0,ReadingArea_rsl0-rcl100-esl29-rsm0-rcm11-esm310-rsr0-rcr2-esr100,exr/ReadingArea_rsl0-rcl100-esl29-rsm0-rcm11-esm310-rsr0-rcr2-esr100.exr,ReadingArea_rsl0-rcl100-esl29-rsm0-rcm11-esm310-rsr0-rcr2-esr100.npz,,,,,0,124,124,263,,left,green,0.79,2106.9778990745544,2107.333248138428,,,2,,6,1,lightness,readingArea,realistic,75,2023-03-22_15h06.57.545,tripletExp_regina_11082022,2022.2.4,120.27919727914566,
5,3,4,0,1.0,0.298245614035088,0,0.444444444444444,0.298245614035088,0,0.694444444444444,0.298245614035088,ReadingArea_rsl0-rcl100-esl29-rsm0-rcm44-esm29-rsr0-rcr69-esr29,exr/ReadingArea_rsl0-rcl100-esl29-rsm0-rcm44-esm29-rsr0-rcr69-esr29.exr,ReadingArea_rsl0-rcl100-esl29-rsm0-rcm44-esm29-rsr0-rcr69-esr29.npz,,,,,0,125,125,201,,right,red,2.24,2110.8098950386047,2111.164245128632,,,2,,6,1,lightness,readingArea,realistic,75,2023-03-22_15h06.57.545,tripletExp_regina_11082022,2022.2.4,120.27919727914566,
2,8,11,0,0.25,0.298245614035088,0,0.25,1.0,0,1.0,1.0,ReadingArea_rsl0-rcl25-esl29-rsm0-rcm25-esm100-rsr0-rcr100-esr100,exr/ReadingArea_rsl0-rcl25-esl29-rsm0-rcm25-esm100-rsr0-rcr100-esr100.exr,ReadingArea_rsl0-rcl25-esl29-rsm0-rcm25-esm100-rsr0-rcr100-esr100.npz,,,,,0,126,126,225,,left,green,2.31,2114.620952129364,2114.9732871055603,,,2,,6,1,lightness,readingArea,realistic,75,2023-03-22_15h06.57.545,tripletExp_regina_11082022,2022.2.4,120.27919727914566,
1,13,14,0,0.111111111111111,0.298245614035088,0,0.111111111111111,3.10526315789474,0,0.25,3.10526315789474,ReadingArea_rsl0-rcl11-esl29-rsm0-rcm11-esm310-rsr0-rcr25-esr310,exr/ReadingArea_rsl0-rcl11-esl29-rsm0-rcm11-esm310-rsr0-rcr25-esr310.exr,ReadingArea_rsl0-rcl11-esl29-rsm0-rcm11-esm310-rsr0-rcr25-esr310.npz,,,,,0,127,127,183,,right,red,2.88,2118.4512469768524,2118.80988407135,,,2,,6,1,lightness,readingArea,realistic,75,2023-03-22_15h06.57.545,tripletExp_regina_11082022,2022.2.4,120.27919727914566,
9,13,5,0,0.444444444444444,1.0,0,0.111111111111111,3.10526315789474,0,1.0,0.298245614035088,ReadingArea_rsl0-rcl44-esl100-rsm0-rcm11-esm310-rsr0-rcr100-esr29,exr/ReadingArea_rsl0-rcl44-esl100-rsm0-rcm11-esm310-rsr0-rcr100-esr29.exr,ReadingArea_rsl0-rcl44-esl100-rsm0-rcm11-esm310-rsr0-rcr100-esr29.npz,,,,,0,128,128,349,,right,red,2.39,2122.2875730991364,2122.643242120743,,,2,,6,1,lightness,readingArea,realistic,75,2023-03-22_15h06.57.545,tripletExp_regina_11082022,2022.2.4,120.27919727914566,
14,5,11,0,0.25,3.10526315789474,0,1.0,0.298245614035088,0,1.0,1.0,ReadingArea_rsl0-rcl25-esl310-rsm0-rcm100-esm29-rsr0-rcr100-esr100,exr/ReadingArea_rsl0-rcl25-esl310-rsm0-rcm100-esm29-rsr0-rcr100-esr100.exr,ReadingArea_rsl0-rcl25-esl310-rsm0-rcm100-esm29-rsr0-rcr100-esr100.npz,,,,,0,129,129,161,,left,green,3.0,2126.0990159511566,2126.453714132309,,,2,,6,1,lightness,readingArea,realistic,75,2023-03-22_15h06.57.545,tripletExp_regina_11082022,2022.2.4,120.27919727914566,
7,12,1,0,0.111111111111111,1.0,0,0.027777777777778,3.10526315789474,0,0.111111111111111,0.298245614035088,ReadingArea_rsl0-rcl11-esl100-rsm0-rcm2-esm310-rsr0-rcr11-esr29,exr/ReadingArea_rsl0-rcl11-esl100-rsm0-rcm2-esm310-rsr0-rcr11-esr29.exr,ReadingArea_rsl0-rcl11-esl100-rsm0-rcm2-esm310-rsr0-rcr11-esr29.npz,,,,,0,130,130,20,,left,green,2.53,2129.9295420646667,2130.287104129792,,,2,,6,1,lightness,readingArea,realistic,75,2023-03-22_15h06.57.545,tripletExp_regina_11082022,2022.2.4,120.27919727914566,
12,8,6,0,0.027777777777778,3.10526315789474,0,0.25,1.0,0,0.027777777777778,1.0,ReadingArea_rsl0-rcl2-esl310-rsm0-rcm25-esm100-rsr0-rcr2-esr100,exr/ReadingArea_rsl0-rcl2-esl310-rsm0-rcm25-esm100-rsr0-rcr2-esr100.exr,ReadingArea_rsl0-rcl2-esl310-rsm0-rcm25-esm100-rsr0-rcr2-esr100.npz,,,,,0,131,131,281,,left,green,2.44,2133.7864780426025,2134.159718036652,,,2,,6,1,lightness,readingArea,realistic,75,2023-03-22_15h06.57.545,tripletExp_regina_11082022,2022.2.4,120.27919727914566,
0,8,12,0,0.027777777777778,0.298245614035088,0,0.25,1.0,0,0.027777777777778,3.10526315789474,ReadingArea_rsl0-rcl2-esl29-rsm0-rcm25-esm100-rsr0-rcr2-esr310,exr/ReadingArea_rsl0-rcl2-esl29-rsm0-rcm25-esm100-rsr0-rcr2-esr310.exr,ReadingArea_rsl0-rcl2-esl29-rsm0-rcm25-esm100-rsr0-rcr2-esr310.npz,,,,,0,132,132,314,,right,red,0.91,2135.876718997956,2136.235152959824,,,2,,6,1,lightness,readingArea,realistic,75,2023-03-22_15h06.57.545,tripletExp_regina_11082022,2022.2.4,120.27919727914566,
11,7,8,0,1.0,1.0,0,0.111111111111111,1.0,0,0.25,1.0,ReadingArea_rsl0-rcl100-esl100-rsm0-rcm11-esm100-rsr0-rcr25-esr100,exr/ReadingArea_rsl0-rcl100-esl100-rsm0-rcm11-esm100-rsr0-rcr25-esr100.exr,ReadingArea_rsl0-rcl100-esl100-rsm0-rcm11-esm100-rsr0-rcr25-esr100.npz,,,,,0,133,133,37,,right,red,0.8,2137.924394130707,2138.2785971164703,,,2,,6,1,lightness,readingArea,realistic,75,2023-03-22_15h06.57.545,tripletExp_regina_11082022,2022.2.4,120.27919727914566,
0,10,12,0,0.027777777777778,0.298245614035088,0,0.694444444444444,1.0,0,0.027777777777778,3.10526315789474,ReadingArea_rsl0-rcl2-esl29-rsm0-rcm69-esm100-rsr0-rcr2-esr310,exr/ReadingArea_rsl0-rcl2-esl29-rsm0-rcm69-esm100-rsr0-rcr2-esr310.exr,ReadingArea_rsl0-rcl2-esl29-rsm0-rcm69-esm100-rsr0-rcr2-esr310.npz,,,,,0,134,134,531,,right,red,1.12,2139.97084403038,2140.331395149231,,,2,,6,1,lightness,readingArea,realistic,75,2023-03-22_15h06.57.545,tripletExp_regina_11082022,2022.2.4,120.27919727914566,
0,4,7,0,0.027777777777778,0.298245614035088,0,0.694444444444444,0.298245614035088,0,0.111111111111111,1.0,ReadingArea_rsl0-rcl2-esl29-rsm0-rcm69-esm29-rsr0-rcr11-esr100,exr/ReadingArea_rsl0-rcl2-esl29-rsm0-rcm69-esm29-rsr0-rcr11-esr100.exr,ReadingArea_rsl0-rcl2-esl29-rsm0-rcm69-esm29-rsr0-rcr11-esr100.npz,,,,,0,135,135,200,,right,red,1.03,2142.023694992065,2142.382179021836,,,2,,6,1,lightness,readingArea,realistic,75,2023-03-22_15h06.57.545,tripletExp_regina_11082022,2022.2.4,120.27919727914566,
1,14,5,0,0.111111111111111,0.298245614035088,0,0.25,3.10526315789474,0,1.0,0.298245614035088,ReadingArea_rsl0-rcl11-esl29-rsm0-rcm25-esm310-rsr0-rcr100-esr29,exr/ReadingArea_rsl0-rcl11-esl29-rsm0-rcm25-esm310-rsr0-rcr100-esr29.exr,ReadingArea_rsl0-rcl11-esl29-rsm0-rcm25-esm310-rsr0-rcr100-esr29.npz,,,,,0,136,136,509,,right,red,0.86,2144.074319124222,2144.4290120601654,,,2,,6,1,lightness,readingArea,realistic,75,2023-03-22_15h06.57.545,tripletExp_regina_11082022,2022.2.4,120.27919727914566,
6,4,13,0,0.027777777777778,1.0,0,0.694444444444444,0.298245614035088,0,0.111111111111111,3.10526315789474,ReadingArea_rsl0-rcl2-esl100-rsm0-rcm69-esm29-rsr0-rcr11-esr310,exr/ReadingArea_rsl0-rcl2-esl100-rsm0-rcm69-esm29-rsr0-rcr11-esr310.exr,ReadingArea_rsl0-rcl2-esl100-rsm0-rcm69-esm29-rsr0-rcr11-esr310.npz,,,,,0,137,137,202,,right,red,0.73,2146.121390104294,2146.589559078217,,,2,,6,1,lightness,readingArea,realistic,75,2023-03-22_15h06.57.545,tripletExp_regina_11082022,2022.2.4,120.27919727914566,
1,12,10,0,0.111111111111111,0.298245614035088,0,0.027777777777778,3.10526315789474,0,0.694444444444444,1.0,ReadingArea_rsl0-rcl11-esl29-rsm0-rcm2-esm310-rsr0-rcr69-esr100,exr/ReadingArea_rsl0-rcl11-esl29-rsm0-rcm2-esm310-rsr0-rcr69-esr100.exr,ReadingArea_rsl0-rcl11-esl29-rsm0-rcm2-esm310-rsr0-rcr69-esr100.npz,,,,,0,138,138,567,,left,green,1.47,2148.2820110321045,2148.642425060272,,,2,,6,1,lightness,readingArea,realistic,75,2023-03-22_15h06.57.545,tripletExp_regina_11082022,2022.2.4,120.27919727914566,
11,0,6,0,1.0,1.0,0,0.027777777777778,0.298245614035088,0,0.027777777777778,1.0,ReadingArea_rsl0-rcl100-esl100-rsm0-rcm2-esm29-rsr0-rcr2-esr100,exr/ReadingArea_rsl0-rcl100-esl100-rsm0-rcm2-esm29-rsr0-rcr2-esr100.exr,ReadingArea_rsl0-rcl100-esl100-rsm0-rcm2-esm29-rsr0-rcr2-esr100.npz,,,,,0,139,139,586,,right,red,0.84,2150.3338561058044,2150.6897020339966,,,2,,6,1,lightness,readingArea,realistic,75,2023-03-22_15h06.57.545,tripletExp_regina_11082022,2022.2.4,120.27919727914566,
4,12,6,0,0.694444444444444,0.298245614035088,0,0.027777777777778,3.10526315789474,0,0.027777777777778,1.0,ReadingArea_rsl0-rcl69-esl29-rsm0-rcm2-esm310-rsr0-rcr2-esr100,exr/ReadingArea_rsl0-rcl69-esl29-rsm0-rcm2-esm310-rsr0-rcr2-esr100.exr,ReadingArea_rsl0-rcl69-esl29-rsm0-rcm2-esm310-rsr0-rcr2-esr100.npz,,,,,0,140,140,99,,right,red,4.6,2155.945574998856,2156.2989780902863,,,2,,6,1,lightness,readingArea,realistic,75,2023-03-22_15h06.57.545,tripletExp_regina_11082022,2022.2.4,120.27919727914566,
13,6,4,0,0.111111111111111,3.10526315789474,0,0.027777777777778,1.0,0,0.694444444444444,0.298245614035088,ReadingArea_rsl0-rcl11-esl310-rsm0-rcm2-esm100-rsr0-rcr69-esr29,exr/ReadingArea_rsl0-rcl11-esl310-rsm0-rcm2-esm100-rsr0-rcr69-esr29.exr,ReadingArea_rsl0-rcl11-esl310-rsm0-rcm2-esm100-rsr0-rcr69-esr29.npz,,,,,0,141,141,328,,right,red,3.57,2161.536718130112,2161.894176006317,,,2,,6,1,lightness,readingArea,realistic,75,2023-03-22_15h06.57.545,tripletExp_regina_11082022,2022.2.4,120.27919727914566,
1,5,8,0,0.111111111111111,0.298245614035088,0,1.0,0.298245614035088,0,0.25,1.0,ReadingArea_rsl0-rcl11-esl29-rsm0-rcm100-esm29-rsr0-rcr25-esr100,exr/ReadingArea_rsl0-rcl11-esl29-rsm0-rcm100-esm29-rsr0-rcr25-esr100.exr,ReadingArea_rsl0-rcl11-esl29-rsm0-rcm100-esm29-rsr0-rcr25-esr100.npz,,,,,0,142,142,238,,right,red,0.94,2163.5960590839386,2163.9512231349945,,,2,,6,1,lightness,readingArea,realistic,75,2023-03-22_15h06.57.545,tripletExp_regina_11082022,2022.2.4,120.27919727914566,
13,8,5,0,0.111111111111111,3.10526315789474,0,0.25,1.0,0,1.0,0.298245614035088,ReadingArea_rsl0-rcl11-esl310-rsm0-rcm25-esm100-rsr0-rcr100-esr29,exr/ReadingArea_rsl0-rcl11-esl310-rsm0-rcm25-esm100-rsr0-rcr100-esr29.exr,ReadingArea_rsl0-rcl11-esl310-rsm0-rcm25-esm100-rsr0-rcr100-esr29.npz,,,,,0,143,143,209,,left,green,2.81,2167.401273965836,2167.7590701580048,,,2,,6,1,lightness,readingArea,realistic,75,2023-03-22_15h06.57.545,tripletExp_regina_11082022,2022.2.4,120.27919727914566,
9,11,5,0,0.444444444444444,1.0,0,1.0,1.0,0,1.0,0.298245614035088,ReadingArea_rsl0-rcl44-esl100-rsm0-rcm100-esm100-rsr0-rcr100-esr29,exr/ReadingArea_rsl0-rcl44-esl100-rsm0-rcm100-esm100-rsr0-rcr100-esr29.exr,ReadingArea_rsl0-rcl44-esl100-rsm0-rcm100-esm100-rsr0-rcr100-esr29.npz,,,,,0,144,144,142,,left,green,2.53,2171.2213430404663,2171.577404022217,,,2,,6,1,lightness,readingArea,realistic,75,2023-03-22_15h06.57.545,tripletExp_regina_11082022,2022.2.4,120.27919727914566,
12,6,9,0,0.027777777777778,3.10526315789474,0,0.027777777777778,1.0,0,0.444444444444444,1.0,ReadingArea_rsl0-rcl2-esl310-rsm0-rcm2-esm100-rsr0-rcr44-esr100,exr/ReadingArea_rsl0-rcl2-esl310-rsm0-rcm2-esm100-rsr0-rcr44-esr100.exr,ReadingArea_rsl0-rcl2-esl310-rsm0-rcm2-esm100-rsr0-rcr44-esr100.npz,,,,,0,145,145,177,,left,green,0.95,2173.272032022476,2173.626201152801,,,2,,6,1,lightness,readingArea,realistic,75,2023-03-22_15h06.57.545,tripletExp_regina_11082022,2022.2.4,120.27919727914566,
6,13,8,0,0.027777777777778,1.0,0,0.111111111111111,3.10526315789474,0,0.25,1.0,ReadingArea_rsl0-rcl2-esl100-rsm0-rcm11-esm310-rsr0-rcr25-esr100,exr/ReadingArea_rsl0-rcl2-esl100-rsm0-rcm11-esm310-rsr0-rcr25-esr100.exr,ReadingArea_rsl0-rcl2-esl100-rsm0-rcm11-esm310-rsr0-rcr25-esr100.npz,,,,,0,146,146,535,,right,red,1.08,2175.3501579761505,2175.728754043579,,,2,,6,1,lightness,readingArea,realistic,75,2023-03-22_15h06.57.545,tripletExp_regina_11082022,2022.2.4,120.27919727914566,
2,9,10,0,0.25,0.298245614035088,0,0.444444444444444,1.0,0,0.694444444444444,1.0,ReadingArea_rsl0-rcl25-esl29-rsm0-rcm44-esm100-rsr0-rcr69-esr100,exr/ReadingArea_rsl0-rcl25-esl29-rsm0-rcm44-esm100-rsr0-rcr69-esr100.exr,ReadingArea_rsl0-rcl25-esl29-rsm0-rcm44-esm100-rsr0-rcr69-esr100.npz,,,,,0,147,147,117,,right,red,2.53,2179.1944501399994,2179.554060935974,,,2,,6,1,lightness,readingArea,realistic,75,2023-03-22_15h06.57.545,tripletExp_regina_11082022,2022.2.4,120.27919727914566,
2,9,12,0,0.25,0.298245614035088,0,0.444444444444444,1.0,0,0.027777777777778,3.10526315789474,ReadingArea_rsl0-rcl25-esl29-rsm0-rcm44-esm100-rsr0-rcr2-esr310,exr/ReadingArea_rsl0-rcl25-esl29-rsm0-rcm44-esm100-rsr0-rcr2-esr310.exr,ReadingArea_rsl0-rcl25-esl29-rsm0-rcm44-esm100-rsr0-rcr2-esr310.npz,,,,,0,148,148,354,,right,red,1.35,2181.2626321315765,2181.619809150696,,,2,,6,1,lightness,readingArea,realistic,75,2023-03-22_15h06.57.545,tripletExp_regina_11082022,2022.2.4,120.27919727914566,
2,1,10,0,0.25,0.298245614035088,0,0.111111111111111,0.298245614035088,0,0.694444444444444,1.0,ReadingArea_rsl0-rcl25-esl29-rsm0-rcm11-esm29-rsr0-rcr69-esr100,exr/ReadingArea_rsl0-rcl25-esl29-rsm0-rcm11-esm29-rsr0-rcr69-esr100.exr,ReadingArea_rsl0-rcl25-esl29-rsm0-rcm11-esm29-rsr0-rcr69-esr100.npz,,,,,0,149,149,585,,left,green,1.23,2183.344139099121,2183.549036979676,,,2,,6,1,lightness,readingArea,realistic,75,2023-03-22_15h06.57.545,tripletExp_regina_11082022,2022.2.4,120.27919727914566,
10,7,2,0,0.694444444444444,1.0,0,0.111111111111111,1.0,0,0.25,0.298245614035088,ReadingArea_rsl0-rcl69-esl100-rsm0-rcm11-esm100-rsr0-rcr25-esr29,exr/ReadingArea_rsl0-rcl69-esl100-rsm0-rcm11-esm100-rsr0-rcr25-esr29.exr,ReadingArea_rsl0-rcl69-esl100-rsm0-rcm11-esm100-rsr0-rcr25-esr29.npz,,,,,0,150,150,523,,right,red,0.73,2190.632959127426,2191.086953163147,,,3,,6,1,lightness,readingArea,realistic,75,2023-03-22_15h06.57.545,tripletExp_regina_11082022,2022.2.4,120.27919727914566,
8,3,12,0,0.25,1.0,0,0.444444444444444,0.298245614035088,0,0.027777777777778,3.10526315789474,ReadingArea_rsl0-rcl25-esl100-rsm0-rcm44-esm29-rsr0-rcr2-esr310,exr/ReadingArea_rsl0-rcl25-esl100-rsm0-rcm44-esm29-rsr0-rcr2-esr310.exr,ReadingArea_rsl0-rcl25-esl100-rsm0-rcm44-esm29-rsr0-rcr2-esr310.npz,,,,,0,151,151,22,,left,green,2.51,2194.5385580062866,2194.898782014847,,,3,,6,1,lightness,readingArea,realistic,75,2023-03-22_15h06.57.545,tripletExp_regina_11082022,2022.2.4,120.27919727914566,
6,4,10,0,0.027777777777778,1.0,0,0.694444444444444,0.298245614035088,0,0.694444444444444,1.0,ReadingArea_rsl0-rcl2-esl100-rsm0-rcm69-esm29-rsr0-rcr69-esr100,exr/ReadingArea_rsl0-rcl2-esl100-rsm0-rcm69-esm29-rsr0-rcr69-esr100.exr,ReadingArea_rsl0-rcl2-esl100-rsm0-rcm69-esm29-rsr0-rcr69-esr100.npz,,,,,0,152,152,554,,left,green,4.68,2200.1119680404663,,,,3,,6,1,lightness,readingArea,realistic,75,2023-03-22_15h06.57.545,tripletExp_regina_11082022,2022.2.4,120.27919727914566,
13,1,7,0,0.111111111111111,3.10526315789474,0,0.111111111111111,0.298245614035088,0,0.111111111111111,1.0,ReadingArea_rsl0-rcl11-esl310-rsm0-rcm11-esm29-rsr0-rcr11-esr100,exr/ReadingArea_rsl0-rcl11-esl310-rsm0-rcm11-esm29-rsr0-rcr11-esr100.exr,ReadingArea_rsl0-rcl11-esl310-rsm0-rcm11-esm29-rsr0-rcr11-esr100.npz,,,,,0,153,153,206,,right,red,3.22,2203.946433067322,2204.309184074402,,,3,,6,1,lightness,readingArea,realistic,75,2023-03-22_15h06.57.545,tripletExp_regina_11082022,2022.2.4,120.27919727914566,
10,7,3,0,0.694444444444444,1.0,0,0.111111111111111,1.0,0,0.444444444444444,0.298245614035088,ReadingArea_rsl0-rcl69-esl100-rsm0-rcm11-esm100-rsr0-rcr44-esr29,exr/ReadingArea_rsl0-rcl69-esl100-rsm0-rcm11-esm100-rsr0-rcr44-esr29.exr,ReadingArea_rsl0-rcl69-esl100-rsm0-rcm11-esm100-rsr0-rcr44-esr29.npz,,,,,0,154,154,582,,right,red,1.26,2206.0081651210785,2206.366821050644,,,3,,6,1,lightness,readingArea,realistic,75,2023-03-22_15h06.57.545,tripletExp_regina_11082022,2022.2.4,120.27919727914566,
14,2,1,0,0.25,3.10526315789474,0,0.25,0.298245614035088,0,0.111111111111111,0.298245614035088,ReadingArea_rsl0-rcl25-esl310-rsm0-rcm25-esm29-rsr0-rcr11-esr29,exr/ReadingArea_rsl0-rcl25-esl310-rsm0-rcm25-esm29-rsr0-rcr11-esr29.exr,ReadingArea_rsl0-rcl25-esl310-rsm0-rcm25-esm29-rsr0-rcr11-esr29.npz,,,,,0,155,155,321,,right,red,0.94,2208.075914144516,2208.4320981502533,,,3,,6,1,lightness,readingArea,realistic,75,2023-03-22_15h06.57.545,tripletExp_regina_11082022,2022.2.4,120.27919727914566,
8,0,6,0,0.25,1.0,0,0.027777777777778,0.298245614035088,0,0.027777777777778,1.0,ReadingArea_rsl0-rcl25-esl100-rsm0-rcm2-esm29-rsr0-rcr2-esr100,exr/ReadingArea_rsl0-rcl25-esl100-rsm0-rcm2-esm29-rsr0-rcr2-esr100.exr,ReadingArea_rsl0-rcl25-esl100-rsm0-rcm2-esm29-rsr0-rcr2-esr100.npz,,,,,0,156,156,401,,right,red,0.87,2210.152652978897,2210.5076761245728,,,3,,6,1,lightness,readingArea,realistic,75,2023-03-22_15h06.57.545,tripletExp_regina_11082022,2022.2.4,120.27919727914566,
11,0,12,0,1.0,1.0,0,0.027777777777778,0.298245614035088,0,0.027777777777778,3.10526315789474,ReadingArea_rsl0-rcl100-esl100-rsm0-rcm2-esm29-rsr0-rcr2-esr310,exr/ReadingArea_rsl0-rcl100-esl100-rsm0-rcm2-esm29-rsr0-rcr2-esr310.exr,ReadingArea_rsl0-rcl100-esl100-rsm0-rcm2-esm29-rsr0-rcr2-esr310.npz,,,,,0,157,157,166,,right,red,1.01,2212.2134821414948,,,,3,,6,1,lightness,readingArea,realistic,75,2023-03-22_15h06.57.545,tripletExp_regina_11082022,2022.2.4,120.27919727914566,
14,8,1,0,0.25,3.10526315789474,0,0.25,1.0,0,0.111111111111111,0.298245614035088,ReadingArea_rsl0-rcl25-esl310-rsm0-rcm25-esm100-rsr0-rcr11-esr29,exr/ReadingArea_rsl0-rcl25-esl310-rsm0-rcm25-esm100-rsr0-rcr11-esr29.exr,ReadingArea_rsl0-rcl25-esl310-rsm0-rcm25-esm100-rsr0-rcr11-esr29.npz,,,,,0,158,158,141,,right,red,1.48,2214.290122032165,2214.651138067245,,,3,,6,1,lightness,readingArea,realistic,75,2023-03-22_15h06.57.545,tripletExp_regina_11082022,2022.2.4,120.27919727914566,
5,11,14,0,1.0,0.298245614035088,0,1.0,1.0,0,0.25,3.10526315789474,ReadingArea_rsl0-rcl100-esl29-rsm0-rcm100-esm100-rsr0-rcr25-esr310,exr/ReadingArea_rsl0-rcl100-esl29-rsm0-rcm100-esm100-rsr0-rcr25-esr310.exr,ReadingArea_rsl0-rcl100-esl29-rsm0-rcm100-esm100-rsr0-rcr25-esr310.npz,,,,,0,159,159,258,,right,red,1.71,2216.343892097473,2216.701821088791,,,3,,6,1,lightness,readingArea,realistic,75,2023-03-22_15h06.57.545,tripletExp_regina_11082022,2022.2.4,120.27919727914566,
5,4,1,0,1.0,0.298245614035088,0,0.694444444444444,0.298245614035088,0,0.111111111111111,0.298245614035088,ReadingArea_rsl0-rcl100-esl29-rsm0-rcm69-esm29-rsr0-rcr11-esr29,exr/ReadingArea_rsl0-rcl100-esl29-rsm0-rcm69-esm29-rsr0-rcr11-esr29.exr,ReadingArea_rsl0-rcl100-esl29-rsm0-rcm69-esm29-rsr0-rcr11-esr29.npz,,,,,0,160,160,560,,left,green,1.08,2218.418143987656,2218.7810809612274,,,3,,6,1,lightness,readingArea,realistic,75,2023-03-22_15h06.57.545,tripletExp_regina_11082022,2022.2.4,120.27919727914566,
5,1,13,0,1.0,0.298245614035088,0,0.111111111111111,0.298245614035088,0,0.111111111111111,3.10526315789474,ReadingArea_rsl0-rcl100-esl29-rsm0-rcm11-esm29-rsr0-rcr11-esr310,exr/ReadingArea_rsl0-rcl100-esl29-rsm0-rcm11-esm29-rsr0-rcr11-esr310.exr,ReadingArea_rsl0-rcl100-esl29-rsm0-rcm11-esm29-rsr0-rcr11-esr310.npz,,,,,0,161,161,594,,right,red,3.32,2222.248307943344,,,,3,,6,1,lightness,readingArea,realistic,75,2023-03-22_15h06.57.545,tripletExp_regina_11082022,2022.2.4,120.27919727914566,
14,7,8,0,0.25,3.10526315789474,0,0.111111111111111,1.0,0,0.25,1.0,ReadingArea_rsl0-rcl25-esl310-rsm0-rcm11-esm100-rsr0-rcr25-esr100,exr/ReadingArea_rsl0-rcl25-esl310-rsm0-rcm11-esm100-rsr0-rcr25-esr100.exr,ReadingArea_rsl0-rcl25-esl310-rsm0-rcm11-esm100-rsr0-rcr25-esr100.npz,,,,,0,162,162,326,,right,red,2.23,2226.0633821487427,2226.424493074417,,,3,,6,1,lightness,readingArea,realistic,75,2023-03-22_15h06.57.545,tripletExp_regina_11082022,2022.2.4,120.27919727914566,
14,2,0,0,0.25,3.10526315789474,0,0.25,0.298245614035088,0,0.027777777777778,0.298245614035088,ReadingArea_rsl0-rcl25-esl310-rsm0-rcm25-esm29-rsr0-rcr2-esr29,exr/ReadingArea_rsl0-rcl25-esl310-rsm0-rcm25-esm29-rsr0-rcr2-esr29.exr,ReadingArea_rsl0-rcl25-esl310-rsm0-rcm25-esm29-rsr0-rcr2-esr29.npz,,,,,0,163,163,460,,right,red,0.92,2228.1346311569214,2228.501312971115,,,3,,6,1,lightness,readingArea,realistic,75,2023-03-22_15h06.57.545,tripletExp_regina_11082022,2022.2.4,120.27919727914566,
4,5,1,0,0.694444444444444,0.298245614035088,0,1.0,0.298245614035088,0,0.111111111111111,0.298245614035088,ReadingArea_rsl0-rcl69-esl29-rsm0-rcm100-esm29-rsr0-rcr11-esr29,exr/ReadingArea_rsl0-rcl69-esl29-rsm0-rcm100-esm29-rsr0-rcr11-esr29.exr,ReadingArea_rsl0-rcl69-esl29-rsm0-rcm100-esm29-rsr0-rcr11-esr29.npz,,,,,0,164,164,240,,left,green,2.35,2231.9749870300293,,,,3,,6,1,lightness,readingArea,realistic,75,2023-03-22_15h06.57.545,tripletExp_regina_11082022,2022.2.4,120.27919727914566,
12,5,4,0,0.027777777777778,3.10526315789474,0,1.0,0.298245614035088,0,0.694444444444444,0.298245614035088,ReadingArea_rsl0-rcl2-esl310-rsm0-rcm100-esm29-rsr0-rcr69-esr29,exr/ReadingArea_rsl0-rcl2-esl310-rsm0-rcm100-esm29-rsr0-rcr69-esr29.exr,ReadingArea_rsl0-rcl2-esl310-rsm0-rcm100-esm29-rsr0-rcr69-esr29.npz,,,,,0,165,165,566,,right,red,0.83,2234.029554128647,2234.389388084412,,,3,,6,1,lightness,readingArea,realistic,75,2023-03-22_15h06.57.545,tripletExp_regina_11082022,2022.2.4,120.27919727914566,
7,14,3,0,0.111111111111111,1.0,0,0.25,3.10526315789474,0,0.444444444444444,0.298245614035088,ReadingArea_rsl0-rcl11-esl100-rsm0-rcm25-esm310-rsr0-rcr44-esr29,exr/ReadingArea_rsl0-rcl11-esl100-rsm0-rcm25-esm310-rsr0-rcr44-esr29.exr,ReadingArea_rsl0-rcl11-esl100-rsm0-rcm25-esm310-rsr0-rcr44-esr29.npz,,,,,0,166,166,103,,right,red,1.44,2236.084918022156,2236.44747710228,,,3,,6,1,lightness,readingArea,realistic,75,2023-03-22_15h06.57.545,tripletExp_regina_11082022,2022.2.4,120.27919727914566,
2,1,13,0,0.25,0.298245614035088,0,0.111111111111111,0.298245614035088,0,0.111111111111111,3.10526315789474,ReadingArea_rsl0-rcl25-esl29-rsm0-rcm11-esm29-rsr0-rcr11-esr310,exr/ReadingArea_rsl0-rcl25-esl29-rsm0-rcm11-esm29-rsr0-rcr11-esr310.exr,ReadingArea_rsl0-rcl25-esl29-rsm0-rcm11-esm29-rsr0-rcr11-esr310.npz,,,,,0,167,167,290,,left,green,1.23,2238.1485381126404,2238.5035569667816,,,3,,6,1,lightness,readingArea,realistic,75,2023-03-22_15h06.57.545,tripletExp_regina_11082022,2022.2.4,120.27919727914566,
14,0,6,0,0.25,3.10526315789474,0,0.027777777777778,0.298245614035088,0,0.027777777777778,1.0,ReadingArea_rsl0-rcl25-esl310-rsm0-rcm2-esm29-rsr0-rcr2-esr100,exr/ReadingArea_rsl0-rcl25-esl310-rsm0-rcm2-esm29-rsr0-rcr2-esr100.exr,ReadingArea_rsl0-rcl25-esl310-rsm0-rcm2-esm29-rsr0-rcr2-esr100.npz,,,,,0,168,168,496,,right,red,0.8,2240.2165360450745,2240.572858095169,,,3,,6,1,lightness,readingArea,realistic,75,2023-03-22_15h06.57.545,tripletExp_regina_11082022,2022.2.4,120.27919727914566,
3,2,11,0,0.444444444444444,0.298245614035088,0,0.25,0.298245614035088,0,1.0,1.0,ReadingArea_rsl0-rcl44-esl29-rsm0-rcm25-esm29-rsr0-rcr100-esr100,exr/ReadingArea_rsl0-rcl44-esl29-rsm0-rcm25-esm29-rsr0-rcr100-esr100.exr,ReadingArea_rsl0-rcl44-esl29-rsm0-rcm25-esm29-rsr0-rcr100-esr100.npz,,,,,0,169,169,257,,left,green,0.95,2242.293236017227,,,,3,,6,1,lightness,readingArea,realistic,75,2023-03-22_15h06.57.545,tripletExp_regina_11082022,2022.2.4,120.27919727914566,
7,1,9,0,0.111111111111111,1.0,0,0.111111111111111,0.298245614035088,0,0.444444444444444,1.0,ReadingArea_rsl0-rcl11-esl100-rsm0-rcm11-esm29-rsr0-rcr44-esr100,exr/ReadingArea_rsl0-rcl11-esl100-rsm0-rcm11-esm29-rsr0-rcr44-esr100.exr,ReadingArea_rsl0-rcl11-esl100-rsm0-rcm11-esm29-rsr0-rcr44-esr100.npz,,,,,0,170,170,89,,left,green,0.82,2244.361253023148,2244.722160100937,,,3,,6,1,lightness,readingArea,realistic,75,2023-03-22_15h06.57.545,tripletExp_regina_11082022,2022.2.4,120.27919727914566,
1,5,14,0,0.111111111111111,0.298245614035088,0,1.0,0.298245614035088,0,0.25,3.10526315789474,ReadingArea_rsl0-rcl11-esl29-rsm0-rcm100-esm29-rsr0-rcr25-esr310,exr/ReadingArea_rsl0-rcl11-esl29-rsm0-rcm100-esm29-rsr0-rcr25-esr310.exr,ReadingArea_rsl0-rcl11-esl29-rsm0-rcm100-esm29-rsr0-rcr25-esr310.npz,,,,,0,171,171,191,,right,red,1.53,2246.4087171554565,2246.762206077576,,,3,,6,1,lightness,readingArea,realistic,75,2023-03-22_15h06.57.545,tripletExp_regina_11082022,2022.2.4,120.27919727914566,
0,10,14,0,0.027777777777778,0.298245614035088,0,0.694444444444444,1.0,0,0.25,3.10526315789474,ReadingArea_rsl0-rcl2-esl29-rsm0-rcm69-esm100-rsr0-rcr25-esr310,exr/ReadingArea_rsl0-rcl2-esl29-rsm0-rcm69-esm100-rsr0-rcr25-esr310.exr,ReadingArea_rsl0-rcl2-esl29-rsm0-rcm69-esm100-rsr0-rcr25-esr310.npz,,,,,0,172,172,31,,right,red,1.6,2248.4820189476013,2248.8424999713898,,,3,,6,1,lightness,readingArea,realistic,75,2023-03-22_15h06.57.545,tripletExp_regina_11082022,2022.2.4,120.27919727914566,
7,2,0,0,0.111111111111111,1.0,0,0.25,0.298245614035088,0,0.027777777777778,0.298245614035088,ReadingArea_rsl0-rcl11-esl100-rsm0-rcm25-esm29-rsr0-rcr2-esr29,exr/ReadingArea_rsl0-rcl11-esl100-rsm0-rcm25-esm29-rsr0-rcr2-esr29.exr,ReadingArea_rsl0-rcl11-esl100-rsm0-rcm25-esm29-rsr0-rcr2-esr29.npz,,,,,0,173,173,520,,left,green,1.5,2250.544355154037,,,,3,,6,1,lightness,readingArea,realistic,75,2023-03-22_15h06.57.545,tripletExp_regina_11082022,2022.2.4,120.27919727914566,
13,0,10,0,0.111111111111111,3.10526315789474,0,0.027777777777778,0.298245614035088,0,0.694444444444444,1.0,ReadingArea_rsl0-rcl11-esl310-rsm0-rcm2-esm29-rsr0-rcr69-esr100,exr/ReadingArea_rsl0-rcl11-esl310-rsm0-rcm2-esm29-rsr0-rcr69-esr100.exr,ReadingArea_rsl0-rcl11-esl310-rsm0-rcm2-esm29-rsr0-rcr69-esr100.npz,,,,,0,174,174,505,,left,green,2.75,2254.372173070908,2254.7360470294952,,,3,,6,1,lightness,readingArea,realistic,75,2023-03-22_15h06.57.545,tripletExp_regina_11082022,2022.2.4,120.27919727914566,
11,7,13,0,1.0,1.0,0,0.111111111111111,1.0,0,0.111111111111111,3.10526315789474,ReadingArea_rsl0-rcl100-esl100-rsm0-rcm11-esm100-rsr0-rcr11-esr310,exr/ReadingArea_rsl0-rcl100-esl100-rsm0-rcm11-esm100-rsr0-rcr11-esr310.exr,ReadingArea_rsl0-rcl100-esl100-rsm0-rcm11-esm100-rsr0-rcr11-esr310.npz,,,,,0,175,175,431,,right,red,2.63,2258.215430021286,2258.5771939754486,,,3,,6,1,lightness,readingArea,realistic,75,2023-03-22_15h06.57.545,tripletExp_regina_11082022,2022.2.4,120.27919727914566,
10,5,2,0,0.694444444444444,1.0,0,1.0,0.298245614035088,0,0.25,0.298245614035088,ReadingArea_rsl0-rcl69-esl100-rsm0-rcm100-esm29-rsr0-rcr25-esr29,exr/ReadingArea_rsl0-rcl69-esl100-rsm0-rcm100-esm29-rsr0-rcr25-esr29.exr,ReadingArea_rsl0-rcl69-esl100-rsm0-rcm100-esm29-rsr0-rcr25-esr29.npz,,,,,0,176,176,299,,left,green,1.28,2260.275362968445,2260.638100147248,,,3,,6,1,lightness,readingArea,realistic,75,2023-03-22_15h06.57.545,tripletExp_regina_11082022,2022.2.4,120.27919727914566,
2,5,0,0,0.25,0.298245614035088,0,1.0,0.298245614035088,0,0.027777777777778,0.298245614035088,ReadingArea_rsl0-rcl25-esl29-rsm0-rcm100-esm29-rsr0-rcr2-esr29,exr/ReadingArea_rsl0-rcl25-esl29-rsm0-rcm100-esm29-rsr0-rcr2-esr29.exr,ReadingArea_rsl0-rcl25-esl29-rsm0-rcm100-esm29-rsr0-rcr2-esr29.npz,,,,,0,177,177,414,,left,green,2.7,2264.11081814766,2264.4714679718018,,,3,,6,1,lightness,readingArea,realistic,75,2023-03-22_15h06.57.545,tripletExp_regina_11082022,2022.2.4,120.27919727914566,
4,8,0,0,0.694444444444444,0.298245614035088,0,0.25,1.0,0,0.027777777777778,0.298245614035088,ReadingArea_rsl0-rcl69-esl29-rsm0-rcm25-esm100-rsr0-rcr2-esr29,exr/ReadingArea_rsl0-rcl69-esl29-rsm0-rcm25-esm100-rsr0-rcr2-esr29.exr,ReadingArea_rsl0-rcl69-esl29-rsm0-rcm25-esm100-rsr0-rcr2-esr29.npz,,,,,0,178,178,137,,left,green,0.86,2266.1594099998474,2266.520627975464,,,3,,6,1,lightness,readingArea,realistic,75,2023-03-22_15h06.57.545,tripletExp_regina_11082022,2022.2.4,120.27919727914566,
8,4,1,0,0.25,1.0,0,0.694444444444444,0.298245614035088,0,0.111111111111111,0.298245614035088,ReadingArea_rsl0-rcl25-esl100-rsm0-rcm69-esm29-rsr0-rcr11-esr29,exr/ReadingArea_rsl0-rcl25-esl100-rsm0-rcm69-esm29-rsr0-rcr11-esr29.exr,ReadingArea_rsl0-rcl25-esl100-rsm0-rcm69-esm29-rsr0-rcr11-esr29.npz,,,,,0,179,179,286,,left,green,0.96,2268.214020013809,,,,3,,6,1,lightness,readingArea,realistic,75,2023-03-22_15h06.57.545,tripletExp_regina_11082022,2022.2.4,120.27919727914566,
14,12,9,0,0.25,3.10526315789474,0,0.027777777777778,3.10526315789474,0,0.444444444444444,1.0,ReadingArea_rsl0-rcl25-esl310-rsm0-rcm2-esm310-rsr0-rcr44-esr100,exr/ReadingArea_rsl0-rcl25-esl310-rsm0-rcm2-esm310-rsr0-rcr44-esr100.exr,ReadingArea_rsl0-rcl25-esl310-rsm0-rcm2-esm310-rsr0-rcr44-esr100.npz,,,,,0,180,180,40,,right,red,2.85,2272.0417189598083,2272.4094820022583,,,3,,6,1,lightness,readingArea,realistic,75,2023-03-22_15h06.57.545,tripletExp_regina_11082022,2022.2.4,120.27919727914566,
14,9,0,0,0.25,3.10526315789474,0,0.444444444444444,1.0,0,0.027777777777778,0.298245614035088,ReadingArea_rsl0-rcl25-esl310-rsm0-rcm44-esm100-rsr0-rcr2-esr29,exr/ReadingArea_rsl0-rcl25-esl310-rsm0-rcm44-esm100-rsr0-rcr2-esr29.exr,ReadingArea_rsl0-rcl25-esl310-rsm0-rcm44-esm100-rsr0-rcr2-esr29.npz,,,,,0,181,181,313,,left,green,1.12,2274.105216026306,2274.559981107712,,,3,,6,1,lightness,readingArea,realistic,75,2023-03-22_15h06.57.545,tripletExp_regina_11082022,2022.2.4,120.27919727914566,
9,0,3,0,0.444444444444444,1.0,0,0.027777777777778,0.298245614035088,0,0.444444444444444,0.298245614035088,ReadingArea_rsl0-rcl44-esl100-rsm0-rcm2-esm29-rsr0-rcr44-esr29,exr/ReadingArea_rsl0-rcl44-esl100-rsm0-rcm2-esm29-rsr0-rcr44-esr29.exr,ReadingArea_rsl0-rcl44-esl100-rsm0-rcm2-esm29-rsr0-rcr44-esr29.npz,,,,,0,182,182,2,,right,red,2.62,2278.062070131302,2278.4224259853363,,,3,,6,1,lightness,readingArea,realistic,75,2023-03-22_15h06.57.545,tripletExp_regina_11082022,2022.2.4,120.27919727914566,
0,1,6,0,0.027777777777778,0.298245614035088,0,0.111111111111111,0.298245614035088,0,0.027777777777778,1.0,ReadingArea_rsl0-rcl2-esl29-rsm0-rcm11-esm29-rsr0-rcr2-esr100,exr/ReadingArea_rsl0-rcl2-esl29-rsm0-rcm11-esm29-rsr0-rcr2-esr100.exr,ReadingArea_rsl0-rcl2-esl29-rsm0-rcm11-esm29-rsr0-rcr2-esr100.npz,,,,,0,183,183,375,,right,red,2.6,2281.903109073639,2282.261966943741,,,3,,6,1,lightness,readingArea,realistic,75,2023-03-22_15h06.57.545,tripletExp_regina_11082022,2022.2.4,120.27919727914566,
0,1,7,0,0.027777777777778,0.298245614035088,0,0.111111111111111,0.298245614035088,0,0.111111111111111,1.0,ReadingArea_rsl0-rcl2-esl29-rsm0-rcm11-esm29-rsr0-rcr11-esr100,exr/ReadingArea_rsl0-rcl2-esl29-rsm0-rcm11-esm29-rsr0-rcr11-esr100.exr,ReadingArea_rsl0-rcl2-esl29-rsm0-rcm11-esm29-rsr0-rcr11-esr100.npz,,,,,0,184,184,243,,left,green,3.04,2285.719908952713,2286.08491897583,,,3,,6,1,lightness,readingArea,realistic,75,2023-03-22_15h06.57.545,tripletExp_regina_11082022,2022.2.4,120.27919727914566,
14,0,9,0,0.25,3.10526315789474,0,0.027777777777778,0.298245614035088,0,0.444444444444444,1.0,ReadingArea_rsl0-rcl25-esl310-rsm0-rcm2-esm29-rsr0-rcr44-esr100,exr/ReadingArea_rsl0-rcl25-esl310-rsm0-rcm2-esm29-rsr0-rcr44-esr100.exr,ReadingArea_rsl0-rcl25-esl310-rsm0-rcm2-esm29-rsr0-rcr44-esr100.npz,,,,,0,185,185,90,,right,red,2.73,2289.5897171497345,2289.95214509964,,,3,,6,1,lightness,readingArea,realistic,75,2023-03-22_15h06.57.545,tripletExp_regina_11082022,2022.2.4,120.27919727914566,
0,8,14,0,0.027777777777778,0.298245614035088,0,0.25,1.0,0,0.25,3.10526315789474,ReadingArea_rsl0-rcl2-esl29-rsm0-rcm25-esm100-rsr0-rcr25-esr310,exr/ReadingArea_rsl0-rcl2-esl29-rsm0-rcm25-esm100-rsr0-rcr25-esr310.exr,ReadingArea_rsl0-rcl2-esl29-rsm0-rcm25-esm100-rsr0-rcr25-esr310.npz,,,,,0,186,186,114,,right,red,4.21,2295.1801941394806,2295.57430100441,,,3,,6,1,lightness,readingArea,realistic,75,2023-03-22_15h06.57.545,tripletExp_regina_11082022,2022.2.4,120.27919727914566,
5,2,8,0,1.0,0.298245614035088,0,0.25,0.298245614035088,0,0.25,1.0,ReadingArea_rsl0-rcl100-esl29-rsm0-rcm25-esm29-rsr0-rcr25-esr100,exr/ReadingArea_rsl0-rcl100-esl29-rsm0-rcm25-esm29-rsr0-rcr25-esr100.exr,ReadingArea_rsl0-rcl100-esl29-rsm0-rcm25-esm29-rsr0-rcr25-esr100.npz,,,,,0,187,187,538,,right,red,2.79,2299.0663981437683,2299.4337191581726,,,3,,6,1,lightness,readingArea,realistic,75,2023-03-22_15h06.57.545,tripletExp_regina_11082022,2022.2.4,120.27919727914566,
1,13,11,0,0.111111111111111,0.298245614035088,0,0.111111111111111,3.10526315789474,0,1.0,1.0,ReadingArea_rsl0-rcl11-esl29-rsm0-rcm11-esm310-rsr0-rcr100-esr100,exr/ReadingArea_rsl0-rcl11-esl29-rsm0-rcm11-esm310-rsr0-rcr100-esr100.exr,ReadingArea_rsl0-rcl11-esl29-rsm0-rcm11-esm310-rsr0-rcr100-esr100.npz,,,,,0,188,188,333,,right,red,2.54,2302.89482998848,2303.2611310482025,,,3,,6,1,lightness,readingArea,realistic,75,2023-03-22_15h06.57.545,tripletExp_regina_11082022,2022.2.4,120.27919727914566,
1,3,12,0,0.111111111111111,0.298245614035088,0,0.444444444444444,0.298245614035088,0,0.027777777777778,3.10526315789474,ReadingArea_rsl0-rcl11-esl29-rsm0-rcm44-esm29-rsr0-rcr2-esr310,exr/ReadingArea_rsl0-rcl11-esl29-rsm0-rcm44-esm29-rsr0-rcr2-esr310.exr,ReadingArea_rsl0-rcl11-esl29-rsm0-rcm44-esm29-rsr0-rcr2-esr310.npz,,,,,0,189,189,323,,right,red,2.75,2306.7548019886017,2307.121530056,,,3,,6,1,lightness,readingArea,realistic,75,2023-03-22_15h06.57.545,tripletExp_regina_11082022,2022.2.4,120.27919727914566,
10,13,1,0,0.694444444444444,1.0,0,0.111111111111111,3.10526315789474,0,0.111111111111111,0.298245614035088,ReadingArea_rsl0-rcl69-esl100-rsm0-rcm11-esm310-rsr0-rcr11-esr29,exr/ReadingArea_rsl0-rcl69-esl100-rsm0-rcm11-esm310-rsr0-rcr11-esr29.exr,ReadingArea_rsl0-rcl69-esl100-rsm0-rcm11-esm310-rsr0-rcr11-esr29.npz,,,,,0,190,190,149,,left,green,2.7,2310.5652301311493,2310.935604095459,,,3,,6,1,lightness,readingArea,realistic,75,2023-03-22_15h06.57.545,tripletExp_regina_11082022,2022.2.4,120.27919727914566,
14,6,2,0,0.25,3.10526315789474,0,0.027777777777778,1.0,0,0.25,0.298245614035088,ReadingArea_rsl0-rcl25-esl310-rsm0-rcm2-esm100-rsr0-rcr25-esr29,exr/ReadingArea_rsl0-rcl25-esl310-rsm0-rcm2-esm100-rsr0-rcr25-esr29.exr,ReadingArea_rsl0-rcl25-esl310-rsm0-rcm2-esm100-rsr0-rcr25-esr29.npz,,,,,0,191,191,272,,right,red,2.45,2314.4137420654297,2314.778660058975,,,3,,6,1,lightness,readingArea,realistic,75,2023-03-22_15h06.57.545,tripletExp_regina_11082022,2022.2.4,120.27919727914566,
13,1,3,0,0.111111111111111,3.10526315789474,0,0.111111111111111,0.298245614035088,0,0.444444444444444,0.298245614035088,ReadingArea_rsl0-rcl11-esl310-rsm0-rcm11-esm29-rsr0-rcr44-esr29,exr/ReadingArea_rsl0-rcl11-esl310-rsm0-rcm11-esm29-rsr0-rcr44-esr29.exr,ReadingArea_rsl0-rcl11-esl310-rsm0-rcm11-esm29-rsr0-rcr44-esr29.npz,,,,,0,192,192,588,,right,red,2.59,2318.221574068069,,,,3,,6,1,lightness,readingArea,realistic,75,2023-03-22_15h06.57.545,tripletExp_regina_11082022,2022.2.4,120.27919727914566,
5,0,11,0,1.0,0.298245614035088,0,0.027777777777778,0.298245614035088,0,1.0,1.0,ReadingArea_rsl0-rcl100-esl29-rsm0-rcm2-esm29-rsr0-rcr100-esr100,exr/ReadingArea_rsl0-rcl100-esl29-rsm0-rcm2-esm29-rsr0-rcr100-esr100.exr,ReadingArea_rsl0-rcl100-esl29-rsm0-rcm2-esm29-rsr0-rcr100-esr100.npz,,,,,0,193,193,547,,left,green,2.41,2322.0618629455566,2322.4248690605164,,,3,,6,1,lightness,readingArea,realistic,75,2023-03-22_15h06.57.545,tripletExp_regina_11082022,2022.2.4,120.27919727914566,
9,12,6,0,0.444444444444444,1.0,0,0.027777777777778,3.10526315789474,0,0.027777777777778,1.0,ReadingArea_rsl0-rcl44-esl100-rsm0-rcm2-esm310-rsr0-rcr2-esr100,exr/ReadingArea_rsl0-rcl44-esl100-rsm0-rcm2-esm310-rsr0-rcr2-esr100.exr,ReadingArea_rsl0-rcl44-esl100-rsm0-rcm2-esm310-rsr0-rcr2-esr100.npz,,,,,0,194,194,5,,right,red,2.59,2325.8939299583435,2326.2613220214844,,,3,,6,1,lightness,readingArea,realistic,75,2023-03-22_15h06.57.545,tripletExp_regina_11082022,2022.2.4,120.27919727914566,
3,10,9,0,0.444444444444444,0.298245614035088,0,0.694444444444444,1.0,0,0.444444444444444,1.0,ReadingArea_rsl0-rcl44-esl29-rsm0-rcm69-esm100-rsr0-rcr44-esr100,exr/ReadingArea_rsl0-rcl44-esl29-rsm0-rcm69-esm100-rsr0-rcr44-esr100.exr,ReadingArea_rsl0-rcl44-esl29-rsm0-rcm69-esm100-rsr0-rcr44-esr100.npz,,,,,0,195,195,222,,right,red,3.9,2331.48347902298,2331.851998090744,,,3,,6,1,lightness,readingArea,realistic,75,2023-03-22_15h06.57.545,tripletExp_regina_11082022,2022.2.4,120.27919727914566,
1,5,13,0,0.111111111111111,0.298245614035088,0,1.0,0.298245614035088,0,0.111111111111111,3.10526315789474,ReadingArea_rsl0-rcl11-esl29-rsm0-rcm100-esm29-rsr0-rcr11-esr310,exr/ReadingArea_rsl0-rcl11-esl29-rsm0-rcm100-esm29-rsr0-rcr11-esr310.exr,ReadingArea_rsl0-rcl11-esl29-rsm0-rcm100-esm29-rsr0-rcr11-esr310.npz,,,,,0,196,196,598,,right,red,2.44,2335.3158950805664,,,,3,,6,1,lightness,readingArea,realistic,75,2023-03-22_15h06.57.545,tripletExp_regina_11082022,2022.2.4,120.27919727914566,
12,9,2,0,0.027777777777778,3.10526315789474,0,0.444444444444444,1.0,0,0.25,0.298245614035088,ReadingArea_rsl0-rcl2-esl310-rsm0-rcm44-esm100-rsr0-rcr25-esr29,exr/ReadingArea_rsl0-rcl2-esl310-rsm0-rcm44-esm100-rsr0-rcr25-esr29.exr,ReadingArea_rsl0-rcl2-esl310-rsm0-rcm44-esm100-rsr0-rcr25-esr29.npz,,,,,0,197,197,226,,right,red,2.96,2339.158528089524,,,,3,,6,1,lightness,readingArea,realistic,75,2023-03-22_15h06.57.545,tripletExp_regina_11082022,2022.2.4,120.27919727914566,
3,14,12,0,0.444444444444444,0.298245614035088,0,0.25,3.10526315789474,0,0.027777777777778,3.10526315789474,ReadingArea_rsl0-rcl44-esl29-rsm0-rcm25-esm310-rsr0-rcr2-esr310,exr/ReadingArea_rsl0-rcl44-esl29-rsm0-rcm25-esm310-rsr0-rcr2-esr310.exr,ReadingArea_rsl0-rcl44-esl29-rsm0-rcm25-esm310-rsr0-rcr2-esr310.npz,,,,,0,198,198,336,,left,green,2.29,2343.0168199539185,2343.3776199817657,,,3,,6,1,lightness,readingArea,realistic,75,2023-03-22_15h06.57.545,tripletExp_regina_11082022,2022.2.4,120.27919727914566,
10,12,11,0,0.694444444444444,1.0,0,0.027777777777778,3.10526315789474,0,1.0,1.0,ReadingArea_rsl0-rcl69-esl100-rsm0-rcm2-esm310-rsr0-rcr100-esr100,exr/ReadingArea_rsl0-rcl69-esl100-rsm0-rcm2-esm310-rsr0-rcr100-esr100.exr,ReadingArea_rsl0-rcl69-esl100-rsm0-rcm2-esm310-rsr0-rcr100-esr100.npz,,,,,0,199,199,317,,left,green,3.09,2346.835655927658,2347.204081058502,,,3,,6,1,lightness,readingArea,realistic,75,2023-03-22_15h06.57.545,tripletExp_regina_11082022,2022.2.4,120.27919727914566,
6,1,10,0,0.027777777777778,1.0,0,0.111111111111111,0.298245614035088,0,0.694444444444444,1.0,ReadingArea_rsl0-rcl2-esl100-rsm0-rcm11-esm29-rsr0-rcr69-esr100,exr/ReadingArea_rsl0-rcl2-esl100-rsm0-rcm11-esm29-rsr0-rcr69-esr100.exr,ReadingArea_rsl0-rcl2-esl100-rsm0-rcm11-esm29-rsr0-rcr69-esr100.npz,,,,,0,200,200,561,,left,green,2.13,2350.668205022812,,,,3,,6,1,lightness,readingArea,realistic,75,2023-03-22_15h06.57.545,tripletExp_regina_11082022,2022.2.4,120.27919727914566,
12,8,3,0,0.027777777777778,3.10526315789474,0,0.25,1.0,0,0.444444444444444,0.298245614035088,ReadingArea_rsl0-rcl2-esl310-rsm0-rcm25-esm100-rsr0-rcr44-esr29,exr/ReadingArea_rsl0-rcl2-esl310-rsm0-rcm25-esm100-rsr0-rcr44-esr29.exr,ReadingArea_rsl0-rcl2-esl310-rsm0-rcm25-esm100-rsr0-rcr44-esr29.npz,,,,,0,201,201,386,,right,red,2.56,2354.5238139629364,2354.887294054032,,,3,,6,1,lightness,readingArea,realistic,75,2023-03-22_15h06.57.545,tripletExp_regina_11082022,2022.2.4,120.27919727914566,
9,11,3,0,0.444444444444444,1.0,0,1.0,1.0,0,0.444444444444444,0.298245614035088,ReadingArea_rsl0-rcl44-esl100-rsm0-rcm100-esm100-rsr0-rcr44-esr29,exr/ReadingArea_rsl0-rcl44-esl100-rsm0-rcm100-esm100-rsr0-rcr44-esr29.exr,ReadingArea_rsl0-rcl44-esl100-rsm0-rcm100-esm100-rsr0-rcr44-esr29.npz,,,,,0,202,202,348,,left,green,1.24,2356.5891721248627,2356.952815055847,,,3,,6,1,lightness,readingArea,realistic,75,2023-03-22_15h06.57.545,tripletExp_regina_11082022,2022.2.4,120.27919727914566,
