index_left,index_middle,index_right,reflectance_surround_left,reflectance_center_left,emission_spot_left,reflectance_surround_middle,reflectance_center_middle,emission_spot_middle,reflectance_surround_right,reflectance_center_right,emission_spot_right,ImageName,ImageExr,ImageNpy,trials_2.thisRepN,trials_2.thisTrialN,trials_2.thisN,trials_2.thisIndex,trials.thisRepN,trials.thisTrialN,trials.thisN,trials.thisIndex,sound_1.started,BB_Trial.resp,BB_Trial.color,BB_Trial.rt,text.started,text.stopped,block,sound_4.started,participant,session,L/B,scene,condition,nTrialsPerBlock,date,expName,psychopyVersion,frameRate,Unnamed: 41
1,5,8,2,0.111111111111111,0.298245614035088,2,1.0,0.298245614035088,2,0.25,1.0,ReadingArea_rsl2-rcl11-esl29-rsm2-rcm100-esm29-rsr2-rcr25-esr100,exr/ReadingArea_rsl2-rcl11-esl29-rsm2-rcm100-esm29-rsr2-rcr25-esr100.exr,ReadingArea_rsl2-rcl11-esl29-rsm2-rcm100-esm29-rsr2-rcr25-esr100.npz,,,,,0,0,0,238,692.9939140796662,right,red,2.09,708.8286809921265,693.9830591678619,1,,4,10,brightness,readingArea,realistic,75,2023-03-30_10h26.40.988,tripletExp_regina_11082022,2022.2.4,120.92628471261186,
10,7,11,2,0.694444444444444,1.0,2,0.111111111111111,1.0,2,1.0,1.0,ReadingArea_rsl2-rcl69-esl100-rsm2-rcm11-esm100-rsr2-rcr100-esr100,exr/ReadingArea_rsl2-rcl69-esl100-rsm2-rcm11-esm100-rsr2-rcr100-esr100.exr,ReadingArea_rsl2-rcl69-esl100-rsm2-rcm11-esm100-rsr2-rcr100-esr100.npz,,,,,0,1,1,542,,left,green,2.09,712.8072550296783,713.3645219802856,1,,4,10,brightness,readingArea,realistic,75,2023-03-30_10h26.40.988,tripletExp_regina_11082022,2022.2.4,120.92628471261186,
10,3,14,2,0.694444444444444,1.0,2,0.444444444444444,0.298245614035088,2,0.25,3.10526315789474,ReadingArea_rsl2-rcl69-esl100-rsm2-rcm44-esm29-rsr2-rcr25-esr310,exr/ReadingArea_rsl2-rcl69-esl100-rsm2-rcm44-esm29-rsr2-rcr25-esr310.exr,ReadingArea_rsl2-rcl69-esl100-rsm2-rcm44-esm29-rsr2-rcr25-esr310.npz,,,,,0,2,2,597,,left,green,2.45,716.8307800292969,717.3980560302734,1,,4,10,brightness,readingArea,realistic,75,2023-03-30_10h26.40.988,tripletExp_regina_11082022,2022.2.4,120.92628471261186,
9,13,5,2,0.444444444444444,1.0,2,0.111111111111111,3.10526315789474,2,1.0,0.298245614035088,ReadingArea_rsl2-rcl44-esl100-rsm2-rcm11-esm310-rsr2-rcr100-esr29,exr/ReadingArea_rsl2-rcl44-esl100-rsm2-rcm11-esm310-rsr2-rcr100-esr29.exr,ReadingArea_rsl2-rcl44-esl100-rsm2-rcm11-esm310-rsr2-rcr100-esr29.npz,,,,,0,3,3,349,,right,red,4.26,722.6492969989777,723.1153931617737,1,,4,10,brightness,readingArea,realistic,75,2023-03-30_10h26.40.988,tripletExp_regina_11082022,2022.2.4,120.92628471261186,
3,5,7,2,0.444444444444444,0.298245614035088,2,1.0,0.298245614035088,2,0.111111111111111,1.0,ReadingArea_rsl2-rcl44-esl29-rsm2-rcm100-esm29-rsr2-rcr11-esr100,exr/ReadingArea_rsl2-rcl44-esl29-rsm2-rcm100-esm29-rsr2-rcr11-esr100.exr,ReadingArea_rsl2-rcl44-esl29-rsm2-rcm100-esm29-rsr2-rcr11-esr100.npz,,,,,0,4,4,474,,left,green,4.13,728.3761351108551,728.95339012146,1,,4,10,brightness,readingArea,realistic,75,2023-03-30_10h26.40.988,tripletExp_regina_11082022,2022.2.4,120.92628471261186,
10,7,3,2,0.694444444444444,1.0,2,0.111111111111111,1.0,2,0.444444444444444,0.298245614035088,ReadingArea_rsl2-rcl69-esl100-rsm2-rcm11-esm100-rsr2-rcr44-esr29,exr/ReadingArea_rsl2-rcl69-esl100-rsm2-rcm11-esm100-rsr2-rcr44-esr29.exr,ReadingArea_rsl2-rcl69-esl100-rsm2-rcm11-esm100-rsr2-rcr44-esr29.npz,,,,,0,5,5,582,,right,red,2.22,732.4481379985809,,1,,4,10,brightness,readingArea,realistic,75,2023-03-30_10h26.40.988,tripletExp_regina_11082022,2022.2.4,120.92628471261186,
10,1,6,2,0.694444444444444,1.0,2,0.111111111111111,0.298245614035088,2,0.027777777777778,1.0,ReadingArea_rsl2-rcl69-esl100-rsm2-rcm11-esm29-rsr2-rcr2-esr100,exr/ReadingArea_rsl2-rcl69-esl100-rsm2-rcm11-esm29-rsr2-rcr2-esr100.exr,ReadingArea_rsl2-rcl69-esl100-rsm2-rcm11-esm29-rsr2-rcr2-esr100.npz,,,,,0,6,6,160,,right,red,1.33,734.6317510604858,,1,,4,10,brightness,readingArea,realistic,75,2023-03-30_10h26.40.988,tripletExp_regina_11082022,2022.2.4,120.92628471261186,
14,8,5,2,0.25,3.10526315789474,2,0.25,1.0,2,1.0,0.298245614035088,ReadingArea_rsl2-rcl25-esl310-rsm2-rcm25-esm100-rsr2-rcr100-esr29,exr/ReadingArea_rsl2-rcl25-esl310-rsm2-rcm25-esm100-rsr2-rcr100-esr29.exr,ReadingArea_rsl2-rcl25-esl310-rsm2-rcm25-esm100-rsr2-rcr100-esr29.npz,,,,,0,7,7,28,,right,red,2.4,738.6011171340942,739.0669581890106,1,,4,10,brightness,readingArea,realistic,75,2023-03-30_10h26.40.988,tripletExp_regina_11082022,2022.2.4,120.92628471261186,
0,5,12,2,0.027777777777778,0.298245614035088,2,1.0,0.298245614035088,2,0.027777777777778,3.10526315789474,ReadingArea_rsl2-rcl2-esl29-rsm2-rcm100-esm29-rsr2-rcr2-esr310,exr/ReadingArea_rsl2-rcl2-esl29-rsm2-rcm100-esm29-rsr2-rcr2-esr310.exr,ReadingArea_rsl2-rcl2-esl29-rsm2-rcm100-esm29-rsr2-rcr2-esr310.npz,,,,,0,8,8,366,,right,red,3.85,744.320680141449,744.7812511920929,1,,4,10,brightness,readingArea,realistic,75,2023-03-30_10h26.40.988,tripletExp_regina_11082022,2022.2.4,120.92628471261186,
11,6,8,2,1.0,1.0,2,0.027777777777778,1.0,2,0.25,1.0,ReadingArea_rsl2-rcl100-esl100-rsm2-rcm2-esm100-rsr2-rcr25-esr100,exr/ReadingArea_rsl2-rcl100-esl100-rsm2-rcm2-esm100-rsr2-rcr25-esr100.exr,ReadingArea_rsl2-rcl100-esl100-rsm2-rcm2-esm100-rsr2-rcr25-esr100.npz,,,,,0,9,9,599,,right,red,2.31,748.2464292049408,748.7191631793976,1,,4,10,brightness,readingArea,realistic,75,2023-03-30_10h26.40.988,tripletExp_regina_11082022,2022.2.4,120.92628471261186,
2,3,13,2,0.25,0.298245614035088,2,0.444444444444444,0.298245614035088,2,0.111111111111111,3.10526315789474,ReadingArea_rsl2-rcl25-esl29-rsm2-rcm44-esm29-rsr2-rcr11-esr310,exr/ReadingArea_rsl2-rcl25-esl29-rsm2-rcm44-esm29-rsr2-rcr11-esr310.exr,ReadingArea_rsl2-rcl25-esl29-rsm2-rcm44-esm29-rsr2-rcr11-esr310.npz,,,,,0,10,10,498,,right,red,4.72,753.9434490203857,754.3609590530396,1,,4,10,brightness,readingArea,realistic,75,2023-03-30_10h26.40.988,tripletExp_regina_11082022,2022.2.4,120.92628471261186,
4,8,0,2,0.694444444444444,0.298245614035088,2,0.25,1.0,2,0.027777777777778,0.298245614035088,ReadingArea_rsl2-rcl69-esl29-rsm2-rcm25-esm100-rsr2-rcr2-esr29,exr/ReadingArea_rsl2-rcl69-esl29-rsm2-rcm25-esm100-rsr2-rcr2-esr29.exr,ReadingArea_rsl2-rcl69-esl29-rsm2-rcm25-esm100-rsr2-rcr2-esr29.npz,,,,,0,11,11,137,,left,green,1.66,756.0545661449432,756.5228910446167,1,,4,10,brightness,readingArea,realistic,75,2023-03-30_10h26.40.988,tripletExp_regina_11082022,2022.2.4,120.92628471261186,
0,8,6,2,0.027777777777778,0.298245614035088,2,0.25,1.0,2,0.027777777777778,1.0,ReadingArea_rsl2-rcl2-esl29-rsm2-rcm25-esm100-rsr2-rcr2-esr100,exr/ReadingArea_rsl2-rcl2-esl29-rsm2-rcm25-esm100-rsr2-rcr2-esr100.exr,ReadingArea_rsl2-rcl2-esl29-rsm2-rcm25-esm100-rsr2-rcr2-esr100.npz,,,,,0,12,12,92,,right,red,2.18,760.012225151062,760.7377650737762,1,,4,10,brightness,readingArea,realistic,75,2023-03-30_10h26.40.988,tripletExp_regina_11082022,2022.2.4,120.92628471261186,
12,11,13,2,0.027777777777778,3.10526315789474,2,1.0,1.0,2,0.111111111111111,3.10526315789474,ReadingArea_rsl2-rcl2-esl310-rsm2-rcm100-esm100-rsr2-rcr11-esr310,exr/ReadingArea_rsl2-rcl2-esl310-rsm2-rcm100-esm100-rsr2-rcr11-esr310.exr,ReadingArea_rsl2-rcl2-esl310-rsm2-rcm100-esm100-rsr2-rcr11-esr310.npz,,,,,0,13,13,151,,right,red,2.48,764.2053520679474,764.664971113205,1,,4,10,brightness,readingArea,realistic,75,2023-03-30_10h26.40.988,tripletExp_regina_11082022,2022.2.4,120.92628471261186,
7,0,3,2,0.111111111111111,1.0,2,0.027777777777778,0.298245614035088,2,0.444444444444444,0.298245614035088,ReadingArea_rsl2-rcl11-esl100-rsm2-rcm2-esm29-rsr2-rcr44-esr29,exr/ReadingArea_rsl2-rcl11-esl100-rsm2-rcm2-esm29-rsr2-rcr44-esr29.exr,ReadingArea_rsl2-rcl11-esl100-rsm2-rcm2-esm29-rsr2-rcr44-esr29.npz,,,,,0,14,14,237,,right,red,4.37,769.8946120738983,770.3608100414276,1,,4,10,brightness,readingArea,realistic,75,2023-03-30_10h26.40.988,tripletExp_regina_11082022,2022.2.4,120.92628471261186,
14,10,9,2,0.25,3.10526315789474,2,0.694444444444444,1.0,2,0.444444444444444,1.0,ReadingArea_rsl2-rcl25-esl310-rsm2-rcm69-esm100-rsr2-rcr44-esr100,exr/ReadingArea_rsl2-rcl25-esl310-rsm2-rcm69-esm100-rsr2-rcr44-esr100.exr,ReadingArea_rsl2-rcl25-esl310-rsm2-rcm69-esm100-rsr2-rcr44-esr100.npz,,,,,0,15,15,402,,right,red,2.59,773.8407921791077,774.4084951877594,1,,4,10,brightness,readingArea,realistic,75,2023-03-30_10h26.40.988,tripletExp_regina_11082022,2022.2.4,120.92628471261186,
8,1,6,2,0.25,1.0,2,0.111111111111111,0.298245614035088,2,0.027777777777778,1.0,ReadingArea_rsl2-rcl25-esl100-rsm2-rcm11-esm29-rsr2-rcr2-esr100,exr/ReadingArea_rsl2-rcl25-esl100-rsm2-rcm11-esm29-rsr2-rcr2-esr100.exr,ReadingArea_rsl2-rcl25-esl100-rsm2-rcm11-esm29-rsr2-rcr2-esr100.npz,,,,,0,16,16,62,,right,red,2.54,777.8860290050507,778.3633830547333,1,,4,10,brightness,readingArea,realistic,75,2023-03-30_10h26.40.988,tripletExp_regina_11082022,2022.2.4,120.92628471261186,
1,13,7,2,0.111111111111111,0.298245614035088,2,0.111111111111111,3.10526315789474,2,0.111111111111111,1.0,ReadingArea_rsl2-rcl11-esl29-rsm2-rcm11-esm310-rsr2-rcr11-esr100,exr/ReadingArea_rsl2-rcl11-esl29-rsm2-rcm11-esm310-rsr2-rcr11-esr100.exr,ReadingArea_rsl2-rcl11-esl29-rsm2-rcm11-esm310-rsr2-rcr11-esr100.npz,,,,,0,17,17,158,,right,red,3.77,783.6167039871216,784.0973060131073,1,,4,10,brightness,readingArea,realistic,75,2023-03-30_10h26.40.988,tripletExp_regina_11082022,2022.2.4,120.92628471261186,
12,9,11,2,0.027777777777778,3.10526315789474,2,0.444444444444444,1.0,2,1.0,1.0,ReadingArea_rsl2-rcl2-esl310-rsm2-rcm44-esm100-rsr2-rcr100-esr100,exr/ReadingArea_rsl2-rcl2-esl310-rsm2-rcm44-esm100-rsr2-rcr100-esr100.exr,ReadingArea_rsl2-rcl2-esl310-rsm2-rcm44-esm100-rsr2-rcr100-esr100.npz,,,,,0,18,18,18,,right,red,2.79,787.5435631275177,788.0405821800232,1,,4,10,brightness,readingArea,realistic,75,2023-03-30_10h26.40.988,tripletExp_regina_11082022,2022.2.4,120.92628471261186,
1,5,13,2,0.111111111111111,0.298245614035088,2,1.0,0.298245614035088,2,0.111111111111111,3.10526315789474,ReadingArea_rsl2-rcl11-esl29-rsm2-rcm100-esm29-rsr2-rcr11-esr310,exr/ReadingArea_rsl2-rcl11-esl29-rsm2-rcm100-esm29-rsr2-rcr11-esr310.exr,ReadingArea_rsl2-rcl11-esl29-rsm2-rcm100-esm29-rsr2-rcr11-esr310.npz,,,,,0,19,19,598,,right,red,3.21,791.4945001602173,791.9535241127014,1,,4,10,brightness,readingArea,realistic,75,2023-03-30_10h26.40.988,tripletExp_regina_11082022,2022.2.4,120.92628471261186,
14,0,9,2,0.25,3.10526315789474,2,0.027777777777778,0.298245614035088,2,0.444444444444444,1.0,ReadingArea_rsl2-rcl25-esl310-rsm2-rcm2-esm29-rsr2-rcr44-esr100,exr/ReadingArea_rsl2-rcl25-esl310-rsm2-rcm2-esm29-rsr2-rcr44-esr100.exr,ReadingArea_rsl2-rcl25-esl310-rsm2-rcm2-esm29-rsr2-rcr44-esr100.npz,,,,,0,20,20,90,,right,red,2.09,795.4095990657806,795.890652179718,1,,4,10,brightness,readingArea,realistic,75,2023-03-30_10h26.40.988,tripletExp_regina_11082022,2022.2.4,120.92628471261186,
4,9,13,2,0.694444444444444,0.298245614035088,2,0.444444444444444,1.0,2,0.111111111111111,3.10526315789474,ReadingArea_rsl2-rcl69-esl29-rsm2-rcm44-esm100-rsr2-rcr11-esr310,exr/ReadingArea_rsl2-rcl69-esl29-rsm2-rcm44-esm100-rsr2-rcr11-esr310.exr,ReadingArea_rsl2-rcl69-esl29-rsm2-rcm44-esm100-rsr2-rcr11-esr310.npz,,,,,0,21,21,488,,right,red,2.83,799.3816289901733,799.9603891372681,1,,4,10,brightness,readingArea,realistic,75,2023-03-30_10h26.40.988,tripletExp_regina_11082022,2022.2.4,120.92628471261186,
2,14,7,2,0.25,0.298245614035088,2,0.25,3.10526315789474,2,0.111111111111111,1.0,ReadingArea_rsl2-rcl25-esl29-rsm2-rcm25-esm310-rsr2-rcr11-esr100,exr/ReadingArea_rsl2-rcl25-esl29-rsm2-rcm25-esm310-rsr2-rcr11-esr100.exr,ReadingArea_rsl2-rcl25-esl29-rsm2-rcm25-esm310-rsr2-rcr11-esr100.npz,,,,,0,22,22,310,,right,red,4.14,805.189982175827,805.8152821063995,1,,4,10,brightness,readingArea,realistic,75,2023-03-30_10h26.40.988,tripletExp_regina_11082022,2022.2.4,120.92628471261186,
8,12,13,2,0.25,1.0,2,0.027777777777778,3.10526315789474,2,0.111111111111111,3.10526315789474,ReadingArea_rsl2-rcl25-esl100-rsm2-rcm2-esm310-rsr2-rcr11-esr310,exr/ReadingArea_rsl2-rcl25-esl100-rsm2-rcm2-esm310-rsr2-rcr11-esr310.exr,ReadingArea_rsl2-rcl25-esl100-rsm2-rcm2-esm310-rsr2-rcr11-esr310.npz,,,,,0,23,23,275,,left,green,2.88,809.2943210601807,809.7986271381378,1,,4,10,brightness,readingArea,realistic,75,2023-03-30_10h26.40.988,tripletExp_regina_11082022,2022.2.4,120.92628471261186,
7,8,11,2,0.111111111111111,1.0,2,0.25,1.0,2,1.0,1.0,ReadingArea_rsl2-rcl11-esl100-rsm2-rcm25-esm100-rsr2-rcr100-esr100,exr/ReadingArea_rsl2-rcl11-esl100-rsm2-rcm25-esm100-rsr2-rcr100-esr100.exr,ReadingArea_rsl2-rcl11-esl100-rsm2-rcm25-esm100-rsr2-rcr100-esr100.npz,,,,,0,24,24,363,,left,green,3.46,813.2449560165405,813.7368531227112,1,,4,10,brightness,readingArea,realistic,75,2023-03-30_10h26.40.988,tripletExp_regina_11082022,2022.2.4,120.92628471261186,
0,9,6,2,0.027777777777778,0.298245614035088,2,0.444444444444444,1.0,2,0.027777777777778,1.0,ReadingArea_rsl2-rcl2-esl29-rsm2-rcm44-esm100-rsr2-rcr2-esr100,exr/ReadingArea_rsl2-rcl2-esl29-rsm2-rcm44-esm100-rsr2-rcr2-esr100.exr,ReadingArea_rsl2-rcl2-esl29-rsm2-rcm44-esm100-rsr2-rcr2-esr100.npz,,,,,0,25,25,365,,right,red,2.02,817.2140941619873,817.6722412109375,1,,4,10,brightness,readingArea,realistic,75,2023-03-30_10h26.40.988,tripletExp_regina_11082022,2022.2.4,120.92628471261186,
2,3,9,2,0.25,0.298245614035088,2,0.444444444444444,0.298245614035088,2,0.444444444444444,1.0,ReadingArea_rsl2-rcl25-esl29-rsm2-rcm44-esm29-rsr2-rcr44-esr100,exr/ReadingArea_rsl2-rcl25-esl29-rsm2-rcm44-esm29-rsr2-rcr44-esr100.exr,ReadingArea_rsl2-rcl25-esl29-rsm2-rcm44-esm29-rsr2-rcr44-esr100.npz,,,,,0,26,26,190,,left,green,3.49,821.1339662075043,821.6066150665283,1,,4,10,brightness,readingArea,realistic,75,2023-03-30_10h26.40.988,tripletExp_regina_11082022,2022.2.4,120.92628471261186,
8,13,9,2,0.25,1.0,2,0.111111111111111,3.10526315789474,2,0.444444444444444,1.0,ReadingArea_rsl2-rcl25-esl100-rsm2-rcm11-esm310-rsr2-rcr44-esr100,exr/ReadingArea_rsl2-rcl25-esl100-rsm2-rcm11-esm310-rsr2-rcr44-esr100.exr,ReadingArea_rsl2-rcl25-esl100-rsm2-rcm11-esm310-rsr2-rcr44-esr100.npz,,,,,0,27,27,487,,left,green,2.26,825.0694890022278,825.6609580516815,1,,4,10,brightness,readingArea,realistic,75,2023-03-30_10h26.40.988,tripletExp_regina_11082022,2022.2.4,120.92628471261186,
2,1,14,2,0.25,0.298245614035088,2,0.111111111111111,0.298245614035088,2,0.25,3.10526315789474,ReadingArea_rsl2-rcl25-esl29-rsm2-rcm11-esm29-rsr2-rcr25-esr310,exr/ReadingArea_rsl2-rcl25-esl29-rsm2-rcm11-esm29-rsr2-rcr25-esr310.exr,ReadingArea_rsl2-rcl25-esl29-rsm2-rcm11-esm29-rsr2-rcr25-esr310.npz,,,,,0,28,28,59,,left,green,1.19,827.3620882034302,827.8302621841431,1,,4,10,brightness,readingArea,realistic,75,2023-03-30_10h26.40.988,tripletExp_regina_11082022,2022.2.4,120.92628471261186,
0,5,1,2,0.027777777777778,0.298245614035088,2,1.0,0.298245614035088,2,0.111111111111111,0.298245614035088,ReadingArea_rsl2-rcl2-esl29-rsm2-rcm100-esm29-rsr2-rcr11-esr29,exr/ReadingArea_rsl2-rcl2-esl29-rsm2-rcm100-esm29-rsr2-rcr11-esr29.exr,ReadingArea_rsl2-rcl2-esl29-rsm2-rcm100-esm29-rsr2-rcr11-esr29.npz,,,,,0,29,29,367,,right,red,2.28,831.29261302948,831.8105030059814,1,,4,10,brightness,readingArea,realistic,75,2023-03-30_10h26.40.988,tripletExp_regina_11082022,2022.2.4,120.92628471261186,
13,12,11,2,0.111111111111111,3.10526315789474,2,0.027777777777778,3.10526315789474,2,1.0,1.0,ReadingArea_rsl2-rcl11-esl310-rsm2-rcm2-esm310-rsr2-rcr100-esr100,exr/ReadingArea_rsl2-rcl11-esl310-rsm2-rcm2-esm310-rsr2-rcr100-esr100.exr,ReadingArea_rsl2-rcl11-esl310-rsm2-rcm2-esm310-rsr2-rcr100-esr100.npz,,,,,0,30,30,441,,left,green,2.15,835.2886261940002,,1,,4,10,brightness,readingArea,realistic,75,2023-03-30_10h26.40.988,tripletExp_regina_11082022,2022.2.4,120.92628471261186,
9,0,14,2,0.444444444444444,1.0,2,0.027777777777778,0.298245614035088,2,0.25,3.10526315789474,ReadingArea_rsl2-rcl44-esl100-rsm2-rcm2-esm29-rsr2-rcr25-esr310,exr/ReadingArea_rsl2-rcl44-esl100-rsm2-rcm2-esm29-rsr2-rcr25-esr310.exr,ReadingArea_rsl2-rcl44-esl100-rsm2-rcm2-esm29-rsr2-rcr25-esr310.npz,,,,,0,31,31,550,,left,green,2.67,839.2118241786957,839.6825830936432,1,,4,10,brightness,readingArea,realistic,75,2023-03-30_10h26.40.988,tripletExp_regina_11082022,2022.2.4,120.92628471261186,
1,10,7,2,0.111111111111111,0.298245614035088,2,0.694444444444444,1.0,2,0.111111111111111,1.0,ReadingArea_rsl2-rcl11-esl29-rsm2-rcm69-esm100-rsr2-rcr11-esr100,exr/ReadingArea_rsl2-rcl11-esl29-rsm2-rcm69-esm100-rsr2-rcr11-esr100.exr,ReadingArea_rsl2-rcl11-esl29-rsm2-rcm69-esm100-rsr2-rcr11-esr100.npz,,,,,0,32,32,94,,right,red,2.05,843.1816091537476,,1,,4,10,brightness,readingArea,realistic,75,2023-03-30_10h26.40.988,tripletExp_regina_11082022,2022.2.4,120.92628471261186,
7,4,6,2,0.111111111111111,1.0,2,0.694444444444444,0.298245614035088,2,0.027777777777778,1.0,ReadingArea_rsl2-rcl11-esl100-rsm2-rcm69-esm29-rsr2-rcr2-esr100,exr/ReadingArea_rsl2-rcl11-esl100-rsm2-rcm69-esm29-rsr2-rcr2-esr100.exr,ReadingArea_rsl2-rcl11-esl100-rsm2-rcm69-esm29-rsr2-rcr2-esr100.npz,,,,,0,33,33,528,,left,green,2.15,847.1541202068329,847.6214551925659,1,,4,10,brightness,readingArea,realistic,75,2023-03-30_10h26.40.988,tripletExp_regina_11082022,2022.2.4,120.92628471261186,
1,14,8,2,0.111111111111111,0.298245614035088,2,0.25,3.10526315789474,2,0.25,1.0,ReadingArea_rsl2-rcl11-esl29-rsm2-rcm25-esm310-rsr2-rcr25-esr100,exr/ReadingArea_rsl2-rcl11-esl29-rsm2-rcm25-esm310-rsr2-rcr25-esr100.exr,ReadingArea_rsl2-rcl11-esl29-rsm2-rcm25-esm310-rsr2-rcr25-esr100.npz,,,,,0,34,34,108,,right,red,1.05,849.3221070766449,849.8089060783386,1,,4,10,brightness,readingArea,realistic,75,2023-03-30_10h26.40.988,tripletExp_regina_11082022,2022.2.4,120.92628471261186,
3,10,9,2,0.444444444444444,0.298245614035088,2,0.694444444444444,1.0,2,0.444444444444444,1.0,ReadingArea_rsl2-rcl44-esl29-rsm2-rcm69-esm100-rsr2-rcr44-esr100,exr/ReadingArea_rsl2-rcl44-esl29-rsm2-rcm69-esm100-rsr2-rcr44-esr100.exr,ReadingArea_rsl2-rcl44-esl29-rsm2-rcm69-esm100-rsr2-rcr44-esr100.npz,,,,,0,35,35,222,,right,red,2.09,853.2848451137543,853.8267350196838,1,,4,10,brightness,readingArea,realistic,75,2023-03-30_10h26.40.988,tripletExp_regina_11082022,2022.2.4,120.92628471261186,
13,0,12,2,0.111111111111111,3.10526315789474,2,0.027777777777778,0.298245614035088,2,0.027777777777778,3.10526315789474,ReadingArea_rsl2-rcl11-esl310-rsm2-rcm2-esm29-rsr2-rcr2-esr310,exr/ReadingArea_rsl2-rcl11-esl310-rsm2-rcm2-esm29-rsr2-rcr2-esr310.exr,ReadingArea_rsl2-rcl11-esl310-rsm2-rcm2-esm29-rsr2-rcr2-esr310.npz,,,,,0,36,36,56,,right,red,2.8,857.2754290103912,857.7550761699677,1,,4,10,brightness,readingArea,realistic,75,2023-03-30_10h26.40.988,tripletExp_regina_11082022,2022.2.4,120.92628471261186,
6,11,7,2,0.027777777777778,1.0,2,1.0,1.0,2,0.111111111111111,1.0,ReadingArea_rsl2-rcl2-esl100-rsm2-rcm100-esm100-rsr2-rcr11-esr100,exr/ReadingArea_rsl2-rcl2-esl100-rsm2-rcm100-esm100-rsr2-rcr11-esr100.exr,ReadingArea_rsl2-rcl2-esl100-rsm2-rcm100-esm100-rsr2-rcr11-esr100.npz,,,,,0,37,37,571,,right,red,2.18,861.2116839885712,861.6747710704803,1,,4,10,brightness,readingArea,realistic,75,2023-03-30_10h26.40.988,tripletExp_regina_11082022,2022.2.4,120.92628471261186,
3,13,1,2,0.444444444444444,0.298245614035088,2,0.111111111111111,3.10526315789474,2,0.111111111111111,0.298245614035088,ReadingArea_rsl2-rcl44-esl29-rsm2-rcm11-esm310-rsr2-rcr11-esr29,exr/ReadingArea_rsl2-rcl44-esl29-rsm2-rcm11-esm310-rsr2-rcr11-esr29.exr,ReadingArea_rsl2-rcl44-esl29-rsm2-rcm11-esm310-rsr2-rcr11-esr29.npz,,,,,0,38,38,421,,left,green,2.06,865.1442050933838,,1,,4,10,brightness,readingArea,realistic,75,2023-03-30_10h26.40.988,tripletExp_regina_11082022,2022.2.4,120.92628471261186,
3,14,12,2,0.444444444444444,0.298245614035088,2,0.25,3.10526315789474,2,0.027777777777778,3.10526315789474,ReadingArea_rsl2-rcl44-esl29-rsm2-rcm25-esm310-rsr2-rcr2-esr310,exr/ReadingArea_rsl2-rcl44-esl29-rsm2-rcm25-esm310-rsr2-rcr2-esr310.exr,ReadingArea_rsl2-rcl44-esl29-rsm2-rcm25-esm310-rsr2-rcr2-esr310.npz,,,,,0,39,39,336,,left,green,2.05,869.116847038269,869.6231381893158,1,,4,10,brightness,readingArea,realistic,75,2023-03-30_10h26.40.988,tripletExp_regina_11082022,2022.2.4,120.92628471261186,
8,0,6,2,0.25,1.0,2,0.027777777777778,0.298245614035088,2,0.027777777777778,1.0,ReadingArea_rsl2-rcl25-esl100-rsm2-rcm2-esm29-rsr2-rcr2-esr100,exr/ReadingArea_rsl2-rcl25-esl100-rsm2-rcm2-esm29-rsr2-rcr2-esr100.exr,ReadingArea_rsl2-rcl25-esl100-rsm2-rcm2-esm29-rsr2-rcr2-esr100.npz,,,,,0,40,40,401,,right,red,2.07,873.0874371528625,873.5590131282806,1,,4,10,brightness,readingArea,realistic,75,2023-03-30_10h26.40.988,tripletExp_regina_11082022,2022.2.4,120.92628471261186,
10,13,6,2,0.694444444444444,1.0,2,0.111111111111111,3.10526315789474,2,0.027777777777778,1.0,ReadingArea_rsl2-rcl69-esl100-rsm2-rcm11-esm310-rsr2-rcr2-esr100,exr/ReadingArea_rsl2-rcl69-esl100-rsm2-rcm11-esm310-rsr2-rcr2-esr100.exr,ReadingArea_rsl2-rcl69-esl100-rsm2-rcm11-esm310-rsr2-rcr2-esr100.npz,,,,,0,41,41,351,,left,green,2.13,877.022791147232,877.4900431632996,1,,4,10,brightness,readingArea,realistic,75,2023-03-30_10h26.40.988,tripletExp_regina_11082022,2022.2.4,120.92628471261186,
11,0,10,2,1.0,1.0,2,0.027777777777778,0.298245614035088,2,0.694444444444444,1.0,ReadingArea_rsl2-rcl100-esl100-rsm2-rcm2-esm29-rsr2-rcr69-esr100,exr/ReadingArea_rsl2-rcl100-esl100-rsm2-rcm2-esm29-rsr2-rcr69-esr100.exr,ReadingArea_rsl2-rcl100-esl100-rsm2-rcm2-esm29-rsr2-rcr69-esr100.npz,,,,,0,42,42,259,,right,red,2.16,880.9906561374664,881.4719891548157,1,,4,10,brightness,readingArea,realistic,75,2023-03-30_10h26.40.988,tripletExp_regina_11082022,2022.2.4,120.92628471261186,
9,13,6,2,0.444444444444444,1.0,2,0.111111111111111,3.10526315789474,2,0.027777777777778,1.0,ReadingArea_rsl2-rcl44-esl100-rsm2-rcm11-esm310-rsr2-rcr2-esr100,exr/ReadingArea_rsl2-rcl44-esl100-rsm2-rcm11-esm310-rsr2-rcr2-esr100.exr,ReadingArea_rsl2-rcl44-esl100-rsm2-rcm11-esm310-rsr2-rcr2-esr100.npz,,,,,0,43,43,13,,left,green,2.16,884.9398910999298,885.3597919940948,1,,4,10,brightness,readingArea,realistic,75,2023-03-30_10h26.40.988,tripletExp_regina_11082022,2022.2.4,120.92628471261186,
6,9,5,2,0.027777777777778,1.0,2,0.444444444444444,1.0,2,1.0,0.298245614035088,ReadingArea_rsl2-rcl2-esl100-rsm2-rcm44-esm100-rsr2-rcr100-esr29,exr/ReadingArea_rsl2-rcl2-esl100-rsm2-rcm44-esm100-rsr2-rcr100-esr29.exr,ReadingArea_rsl2-rcl2-esl100-rsm2-rcm44-esm100-rsr2-rcr100-esr29.npz,,,,,0,44,44,29,,right,red,2.11,888.8283591270447,889.3038210868835,1,,4,10,brightness,readingArea,realistic,75,2023-03-30_10h26.40.988,tripletExp_regina_11082022,2022.2.4,120.92628471261186,
7,8,6,2,0.111111111111111,1.0,2,0.25,1.0,2,0.027777777777778,1.0,ReadingArea_rsl2-rcl11-esl100-rsm2-rcm25-esm100-rsr2-rcr2-esr100,exr/ReadingArea_rsl2-rcl11-esl100-rsm2-rcm25-esm100-rsr2-rcr2-esr100.exr,ReadingArea_rsl2-rcl11-esl100-rsm2-rcm25-esm100-rsr2-rcr2-esr100.npz,,,,,0,45,45,387,,left,green,2.18,892.7966160774231,893.2739410400391,1,,4,10,brightness,readingArea,realistic,75,2023-03-30_10h26.40.988,tripletExp_regina_11082022,2022.2.4,120.92628471261186,
3,12,6,2,0.444444444444444,0.298245614035088,2,0.027777777777778,3.10526315789474,2,0.027777777777778,1.0,ReadingArea_rsl2-rcl44-esl29-rsm2-rcm2-esm310-rsr2-rcr2-esr100,exr/ReadingArea_rsl2-rcl44-esl29-rsm2-rcm2-esm310-rsr2-rcr2-esr100.exr,ReadingArea_rsl2-rcl44-esl29-rsm2-rcm2-esm310-rsr2-rcr2-esr100.npz,,,,,0,46,46,353,,right,red,2.83,896.7601079940796,897.2357370853424,1,,4,10,brightness,readingArea,realistic,75,2023-03-30_10h26.40.988,tripletExp_regina_11082022,2022.2.4,120.92628471261186,
2,9,12,2,0.25,0.298245614035088,2,0.444444444444444,1.0,2,0.027777777777778,3.10526315789474,ReadingArea_rsl2-rcl25-esl29-rsm2-rcm44-esm100-rsr2-rcr2-esr310,exr/ReadingArea_rsl2-rcl25-esl29-rsm2-rcm44-esm100-rsr2-rcr2-esr310.exr,ReadingArea_rsl2-rcl25-esl29-rsm2-rcm44-esm100-rsr2-rcr2-esr310.npz,,,,,0,47,47,354,,left,green,3.77,902.4648699760436,903.0535202026368,1,,4,10,brightness,readingArea,realistic,75,2023-03-30_10h26.40.988,tripletExp_regina_11082022,2022.2.4,120.92628471261186,
12,11,6,2,0.027777777777778,3.10526315789474,2,1.0,1.0,2,0.027777777777778,1.0,ReadingArea_rsl2-rcl2-esl310-rsm2-rcm100-esm100-rsr2-rcr2-esr100,exr/ReadingArea_rsl2-rcl2-esl310-rsm2-rcm100-esm100-rsr2-rcr2-esr100.exr,ReadingArea_rsl2-rcl2-esl310-rsm2-rcm100-esm100-rsr2-rcr2-esr100.npz,,,,,0,48,48,163,,left,green,4.5,908.280578136444,908.8432331085204,1,,4,10,brightness,readingArea,realistic,75,2023-03-30_10h26.40.988,tripletExp_regina_11082022,2022.2.4,120.92628471261186,
0,5,2,2,0.027777777777778,0.298245614035088,2,1.0,0.298245614035088,2,0.25,0.298245614035088,ReadingArea_rsl2-rcl2-esl29-rsm2-rcm100-esm29-rsr2-rcr25-esr29,exr/ReadingArea_rsl2-rcl2-esl29-rsm2-rcm100-esm29-rsr2-rcr25-esr29.exr,ReadingArea_rsl2-rcl2-esl29-rsm2-rcm100-esm29-rsr2-rcr25-esr29.npz,,,,,0,49,49,25,,right,red,2.16,912.3252551555634,912.8045630455016,1,,4,10,brightness,readingArea,realistic,75,2023-03-30_10h26.40.988,tripletExp_regina_11082022,2022.2.4,120.92628471261186,
8,1,3,2,0.25,1.0,2,0.111111111111111,0.298245614035088,2,0.444444444444444,0.298245614035088,ReadingArea_rsl2-rcl25-esl100-rsm2-rcm11-esm29-rsr2-rcr44-esr29,exr/ReadingArea_rsl2-rcl25-esl100-rsm2-rcm11-esm29-rsr2-rcr44-esr29.exr,ReadingArea_rsl2-rcl25-esl100-rsm2-rcm11-esm29-rsr2-rcr44-esr29.npz,,,,,0,50,50,490,,right,red,4.49,918.0190331935884,,1,,4,10,brightness,readingArea,realistic,75,2023-03-30_10h26.40.988,tripletExp_regina_11082022,2022.2.4,120.92628471261186,
2,1,10,2,0.25,0.298245614035088,2,0.111111111111111,0.298245614035088,2,0.694444444444444,1.0,ReadingArea_rsl2-rcl25-esl29-rsm2-rcm11-esm29-rsr2-rcr69-esr100,exr/ReadingArea_rsl2-rcl25-esl29-rsm2-rcm11-esm29-rsr2-rcr69-esr100.exr,ReadingArea_rsl2-rcl25-esl29-rsm2-rcm11-esm29-rsr2-rcr69-esr100.npz,,,,,0,51,51,585,,left,green,1.78,920.2261002063752,920.749818086624,1,,4,10,brightness,readingArea,realistic,75,2023-03-30_10h26.40.988,tripletExp_regina_11082022,2022.2.4,120.92628471261186,
7,14,5,2,0.111111111111111,1.0,2,0.25,3.10526315789474,2,1.0,0.298245614035088,ReadingArea_rsl2-rcl11-esl100-rsm2-rcm25-esm310-rsr2-rcr100-esr29,exr/ReadingArea_rsl2-rcl11-esl100-rsm2-rcm25-esm310-rsr2-rcr100-esr29.exr,ReadingArea_rsl2-rcl11-esl100-rsm2-rcm25-esm310-rsr2-rcr100-esr29.npz,,,,,0,52,52,372,,right,red,2.65,924.2206871509552,924.6955921649932,1,,4,10,brightness,readingArea,realistic,75,2023-03-30_10h26.40.988,tripletExp_regina_11082022,2022.2.4,120.92628471261186,
11,2,8,2,1.0,1.0,2,0.25,0.298245614035088,2,0.25,1.0,ReadingArea_rsl2-rcl100-esl100-rsm2-rcm25-esm29-rsr2-rcr25-esr100,exr/ReadingArea_rsl2-rcl100-esl100-rsm2-rcm25-esm29-rsr2-rcr25-esr100.exr,ReadingArea_rsl2-rcl100-esl100-rsm2-rcm25-esm29-rsr2-rcr25-esr100.npz,,,,,0,53,53,214,,right,red,2.31,928.1496431827544,928.6259160041808,1,,4,10,brightness,readingArea,realistic,75,2023-03-30_10h26.40.988,tripletExp_regina_11082022,2022.2.4,120.92628471261186,
0,8,12,2,0.027777777777778,0.298245614035088,2,0.25,1.0,2,0.027777777777778,3.10526315789474,ReadingArea_rsl2-rcl2-esl29-rsm2-rcm25-esm100-rsr2-rcr2-esr310,exr/ReadingArea_rsl2-rcl2-esl29-rsm2-rcm25-esm100-rsr2-rcr2-esr310.exr,ReadingArea_rsl2-rcl2-esl29-rsm2-rcm25-esm100-rsr2-rcr2-esr310.npz,,,,,0,54,54,314,,right,red,2.44,932.10515499115,932.6011760234832,1,,4,10,brightness,readingArea,realistic,75,2023-03-30_10h26.40.988,tripletExp_regina_11082022,2022.2.4,120.92628471261186,
11,5,4,2,1.0,1.0,2,1.0,0.298245614035088,2,0.694444444444444,0.298245614035088,ReadingArea_rsl2-rcl100-esl100-rsm2-rcm100-esm29-rsr2-rcr69-esr29,exr/ReadingArea_rsl2-rcl100-esl100-rsm2-rcm100-esm29-rsr2-rcr69-esr29.exr,ReadingArea_rsl2-rcl100-esl100-rsm2-rcm100-esm29-rsr2-rcr69-esr29.npz,,,,,0,55,55,564,,right,red,2.06,936.0950992107392,936.5785281658171,1,,4,10,brightness,readingArea,realistic,75,2023-03-30_10h26.40.988,tripletExp_regina_11082022,2022.2.4,120.92628471261186,
10,4,13,2,0.694444444444444,1.0,2,0.694444444444444,0.298245614035088,2,0.111111111111111,3.10526315789474,ReadingArea_rsl2-rcl69-esl100-rsm2-rcm69-esm29-rsr2-rcr11-esr310,exr/ReadingArea_rsl2-rcl69-esl100-rsm2-rcm69-esm29-rsr2-rcr11-esr310.exr,ReadingArea_rsl2-rcl69-esl100-rsm2-rcm69-esm29-rsr2-rcr11-esr310.npz,,,,,0,56,56,24,,right,red,2.12,940.0296092033386,940.4935941696168,1,,4,10,brightness,readingArea,realistic,75,2023-03-30_10h26.40.988,tripletExp_regina_11082022,2022.2.4,120.92628471261186,
4,2,9,2,0.694444444444444,0.298245614035088,2,0.25,0.298245614035088,2,0.444444444444444,1.0,ReadingArea_rsl2-rcl69-esl29-rsm2-rcm25-esm29-rsr2-rcr44-esr100,exr/ReadingArea_rsl2-rcl69-esl29-rsm2-rcm25-esm29-rsr2-rcr44-esr100.exr,ReadingArea_rsl2-rcl69-esl29-rsm2-rcm25-esm29-rsr2-rcr44-esr100.npz,,,,,0,57,57,479,,left,green,2.55,943.9550020694732,944.4274861812592,1,,4,10,brightness,readingArea,realistic,75,2023-03-30_10h26.40.988,tripletExp_regina_11082022,2022.2.4,120.92628471261186,
1,12,6,2,0.111111111111111,0.298245614035088,2,0.027777777777778,3.10526315789474,2,0.027777777777778,1.0,ReadingArea_rsl2-rcl11-esl29-rsm2-rcm2-esm310-rsr2-rcr2-esr100,exr/ReadingArea_rsl2-rcl11-esl29-rsm2-rcm2-esm310-rsr2-rcr2-esr100.exr,ReadingArea_rsl2-rcl11-esl29-rsm2-rcm2-esm310-rsr2-rcr2-esr100.npz,,,,,0,58,58,277,,left,green,4.41,949.6561331748962,950.1798319816588,1,,4,10,brightness,readingArea,realistic,75,2023-03-30_10h26.40.988,tripletExp_regina_11082022,2022.2.4,120.92628471261186,
13,6,1,2,0.111111111111111,3.10526315789474,2,0.027777777777778,1.0,2,0.111111111111111,0.298245614035088,ReadingArea_rsl2-rcl11-esl310-rsm2-rcm2-esm100-rsr2-rcr11-esr29,exr/ReadingArea_rsl2-rcl11-esl310-rsm2-rcm2-esm100-rsr2-rcr11-esr29.exr,ReadingArea_rsl2-rcl11-esl310-rsm2-rcm2-esm100-rsr2-rcr11-esr29.npz,,,,,0,59,59,486,,right,red,4.23,955.444414138794,956.010593175888,1,,4,10,brightness,readingArea,realistic,75,2023-03-30_10h26.40.988,tripletExp_regina_11082022,2022.2.4,120.92628471261186,
5,3,2,2,1.0,0.298245614035088,2,0.444444444444444,0.298245614035088,2,0.25,0.298245614035088,ReadingArea_rsl2-rcl100-esl29-rsm2-rcm44-esm29-rsr2-rcr25-esr29,exr/ReadingArea_rsl2-rcl100-esl29-rsm2-rcm44-esm29-rsr2-rcr25-esr29.exr,ReadingArea_rsl2-rcl100-esl29-rsm2-rcm44-esm29-rsr2-rcr25-esr29.npz,,,,,0,60,60,143,,right,red,2.34,959.4818890094756,959.9591991901398,1,,4,10,brightness,readingArea,realistic,75,2023-03-30_10h26.40.988,tripletExp_regina_11082022,2022.2.4,120.92628471261186,
8,1,9,2,0.25,1.0,2,0.111111111111111,0.298245614035088,2,0.444444444444444,1.0,ReadingArea_rsl2-rcl25-esl100-rsm2-rcm11-esm29-rsr2-rcr44-esr100,exr/ReadingArea_rsl2-rcl25-esl100-rsm2-rcm11-esm29-rsr2-rcr44-esr100.exr,ReadingArea_rsl2-rcl25-esl100-rsm2-rcm11-esm29-rsr2-rcr44-esr100.npz,,,,,0,61,61,432,,left,green,1.92,963.4472382068634,963.919161081314,1,,4,10,brightness,readingArea,realistic,75,2023-03-30_10h26.40.988,tripletExp_regina_11082022,2022.2.4,120.92628471261186,
8,1,14,2,0.25,1.0,2,0.111111111111111,0.298245614035088,2,0.25,3.10526315789474,ReadingArea_rsl2-rcl25-esl100-rsm2-rcm11-esm29-rsr2-rcr25-esr310,exr/ReadingArea_rsl2-rcl25-esl100-rsm2-rcm11-esm29-rsr2-rcr25-esr310.exr,ReadingArea_rsl2-rcl25-esl100-rsm2-rcm11-esm29-rsr2-rcr25-esr310.npz,,,,,0,62,62,500,,left,green,2.38,967.3836390972136,967.854408979416,1,,4,10,brightness,readingArea,realistic,75,2023-03-30_10h26.40.988,tripletExp_regina_11082022,2022.2.4,120.92628471261186,
1,9,7,2,0.111111111111111,0.298245614035088,2,0.444444444444444,1.0,2,0.111111111111111,1.0,ReadingArea_rsl2-rcl11-esl29-rsm2-rcm44-esm100-rsr2-rcr11-esr100,exr/ReadingArea_rsl2-rcl11-esl29-rsm2-rcm44-esm100-rsr2-rcr11-esr100.exr,ReadingArea_rsl2-rcl11-esl29-rsm2-rcm44-esm100-rsr2-rcr11-esr100.npz,,,,,0,63,63,397,,right,red,2.18,971.3065311908722,971.7955021858216,1,,4,10,brightness,readingArea,realistic,75,2023-03-30_10h26.40.988,tripletExp_regina_11082022,2022.2.4,120.92628471261186,
0,2,1,2,0.027777777777778,0.298245614035088,2,0.25,0.298245614035088,2,0.111111111111111,0.298245614035088,ReadingArea_rsl2-rcl2-esl29-rsm2-rcm25-esm29-rsr2-rcr11-esr29,exr/ReadingArea_rsl2-rcl2-esl29-rsm2-rcm25-esm29-rsr2-rcr11-esr29.exr,ReadingArea_rsl2-rcl2-esl29-rsm2-rcm25-esm29-rsr2-rcr11-esr29.npz,,,,,0,64,64,527,,right,red,2.16,975.2549760341644,975.7431530952454,1,,4,10,brightness,readingArea,realistic,75,2023-03-30_10h26.40.988,tripletExp_regina_11082022,2022.2.4,120.92628471261186,
14,5,10,2,0.25,3.10526315789474,2,1.0,0.298245614035088,2,0.694444444444444,1.0,ReadingArea_rsl2-rcl25-esl310-rsm2-rcm100-esm29-rsr2-rcr69-esr100,exr/ReadingArea_rsl2-rcl25-esl310-rsm2-rcm100-esm29-rsr2-rcr69-esr100.exr,ReadingArea_rsl2-rcl25-esl310-rsm2-rcm100-esm29-rsr2-rcr69-esr100.npz,,,,,0,65,65,170,,right,red,3.77,980.957524061203,981.4491720199584,1,,4,10,brightness,readingArea,realistic,75,2023-03-30_10h26.40.988,tripletExp_regina_11082022,2022.2.4,120.92628471261186,
2,14,9,2,0.25,0.298245614035088,2,0.25,3.10526315789474,2,0.444444444444444,1.0,ReadingArea_rsl2-rcl25-esl29-rsm2-rcm25-esm310-rsr2-rcr44-esr100,exr/ReadingArea_rsl2-rcl25-esl29-rsm2-rcm25-esm310-rsr2-rcr44-esr100.exr,ReadingArea_rsl2-rcl25-esl29-rsm2-rcm25-esm310-rsr2-rcr44-esr100.npz,,,,,0,66,66,51,,right,red,2.11,984.902841091156,985.352855205536,1,,4,10,brightness,readingArea,realistic,75,2023-03-30_10h26.40.988,tripletExp_regina_11082022,2022.2.4,120.92628471261186,
8,7,13,2,0.25,1.0,2,0.111111111111111,1.0,2,0.111111111111111,3.10526315789474,ReadingArea_rsl2-rcl25-esl100-rsm2-rcm11-esm100-rsr2-rcr11-esr310,exr/ReadingArea_rsl2-rcl25-esl100-rsm2-rcm11-esm100-rsr2-rcr11-esr310.exr,ReadingArea_rsl2-rcl25-esl100-rsm2-rcm11-esm100-rsr2-rcr11-esr310.npz,,,,,0,67,67,512,,left,green,2.62,988.8027851581572,989.2811481952668,1,,4,10,brightness,readingArea,realistic,75,2023-03-30_10h26.40.988,tripletExp_regina_11082022,2022.2.4,120.92628471261186,
3,11,14,2,0.444444444444444,0.298245614035088,2,1.0,1.0,2,0.25,3.10526315789474,ReadingArea_rsl2-rcl44-esl29-rsm2-rcm100-esm100-rsr2-rcr25-esr310,exr/ReadingArea_rsl2-rcl44-esl29-rsm2-rcm100-esm100-rsr2-rcr25-esr310.exr,ReadingArea_rsl2-rcl44-esl29-rsm2-rcm100-esm100-rsr2-rcr25-esr310.npz,,,,,0,68,68,570,,right,red,2.07,992.741003036499,993.2183661460876,1,,4,10,brightness,readingArea,realistic,75,2023-03-30_10h26.40.988,tripletExp_regina_11082022,2022.2.4,120.92628471261186,
12,9,13,2,0.027777777777778,3.10526315789474,2,0.444444444444444,1.0,2,0.111111111111111,3.10526315789474,ReadingArea_rsl2-rcl2-esl310-rsm2-rcm44-esm100-rsr2-rcr11-esr310,exr/ReadingArea_rsl2-rcl2-esl310-rsm2-rcm44-esm100-rsr2-rcr11-esr310.exr,ReadingArea_rsl2-rcl2-esl310-rsm2-rcm44-esm100-rsr2-rcr11-esr310.npz,,,,,0,69,69,529,,right,red,2.0,996.6950731277466,997.1689031124116,1,,4,10,brightness,readingArea,realistic,75,2023-03-30_10h26.40.988,tripletExp_regina_11082022,2022.2.4,120.92628471261186,
13,0,9,2,0.111111111111111,3.10526315789474,2,0.027777777777778,0.298245614035088,2,0.444444444444444,1.0,ReadingArea_rsl2-rcl11-esl310-rsm2-rcm2-esm29-rsr2-rcr44-esr100,exr/ReadingArea_rsl2-rcl11-esl310-rsm2-rcm2-esm29-rsr2-rcr44-esr100.exr,ReadingArea_rsl2-rcl11-esl310-rsm2-rcm2-esm29-rsr2-rcr44-esr100.npz,,,,,0,70,70,373,,left,green,2.23,1000.6485171318054,,1,,4,10,brightness,readingArea,realistic,75,2023-03-30_10h26.40.988,tripletExp_regina_11082022,2022.2.4,120.92628471261186,
8,9,2,2,0.25,1.0,2,0.444444444444444,1.0,2,0.25,0.298245614035088,ReadingArea_rsl2-rcl25-esl100-rsm2-rcm44-esm100-rsr2-rcr25-esr29,exr/ReadingArea_rsl2-rcl25-esl100-rsm2-rcm44-esm100-rsr2-rcr25-esr29.exr,ReadingArea_rsl2-rcl25-esl100-rsm2-rcm44-esm100-rsr2-rcr25-esr29.npz,,,,,0,71,71,559,,left,green,2.42,1004.581109046936,1005.0752279758452,1,,4,10,brightness,readingArea,realistic,75,2023-03-30_10h26.40.988,tripletExp_regina_11082022,2022.2.4,120.92628471261186,
6,13,8,2,0.027777777777778,1.0,2,0.111111111111111,3.10526315789474,2,0.25,1.0,ReadingArea_rsl2-rcl2-esl100-rsm2-rcm11-esm310-rsr2-rcr25-esr100,exr/ReadingArea_rsl2-rcl2-esl100-rsm2-rcm11-esm310-rsr2-rcr25-esr100.exr,ReadingArea_rsl2-rcl2-esl100-rsm2-rcm11-esm310-rsr2-rcr25-esr100.npz,,,,,0,72,72,535,,right,red,2.07,1008.5399420261384,1009.0066339969636,1,,4,10,brightness,readingArea,realistic,75,2023-03-30_10h26.40.988,tripletExp_regina_11082022,2022.2.4,120.92628471261186,
10,6,8,2,0.694444444444444,1.0,2,0.027777777777778,1.0,2,0.25,1.0,ReadingArea_rsl2-rcl69-esl100-rsm2-rcm2-esm100-rsr2-rcr25-esr100,exr/ReadingArea_rsl2-rcl69-esl100-rsm2-rcm2-esm100-rsr2-rcr25-esr100.exr,ReadingArea_rsl2-rcl69-esl100-rsm2-rcm2-esm100-rsr2-rcr25-esr100.npz,,,,,0,73,73,145,,right,red,2.16,1012.475016117096,,1,,4,10,brightness,readingArea,realistic,75,2023-03-30_10h26.40.988,tripletExp_regina_11082022,2022.2.4,120.92628471261186,
10,14,1,2,0.694444444444444,1.0,2,0.25,3.10526315789474,2,0.111111111111111,0.298245614035088,ReadingArea_rsl2-rcl69-esl100-rsm2-rcm25-esm310-rsr2-rcr11-esr29,exr/ReadingArea_rsl2-rcl69-esl100-rsm2-rcm25-esm310-rsr2-rcr11-esr29.exr,ReadingArea_rsl2-rcl69-esl100-rsm2-rcm25-esm310-rsr2-rcr11-esr29.npz,,,,,0,74,74,544,,left,green,2.16,1016.413232088089,1016.6162869930268,1,,4,10,brightness,readingArea,realistic,75,2023-03-30_10h26.40.988,tripletExp_regina_11082022,2022.2.4,120.92628471261186,
13,6,12,2,0.111111111111111,3.10526315789474,2,0.027777777777778,1.0,2,0.027777777777778,3.10526315789474,ReadingArea_rsl2-rcl11-esl310-rsm2-rcm2-esm100-rsr2-rcr2-esr310,exr/ReadingArea_rsl2-rcl11-esl310-rsm2-rcm2-esm100-rsr2-rcr2-esr310.exr,ReadingArea_rsl2-rcl11-esl310-rsm2-rcm2-esm100-rsr2-rcr2-esr310.npz,,,,,0,75,75,147,,right,red,2.05,1100.735738992691,1101.2119731903076,2,,4,10,brightness,readingArea,realistic,75,2023-03-30_10h26.40.988,tripletExp_regina_11082022,2022.2.4,120.92628471261186,
13,1,7,2,0.111111111111111,3.10526315789474,2,0.111111111111111,0.298245614035088,2,0.111111111111111,1.0,ReadingArea_rsl2-rcl11-esl310-rsm2-rcm11-esm29-rsr2-rcr11-esr100,exr/ReadingArea_rsl2-rcl11-esl310-rsm2-rcm11-esm29-rsr2-rcr11-esr100.exr,ReadingArea_rsl2-rcl11-esl310-rsm2-rcm11-esm29-rsr2-rcr11-esr100.npz,,,,,0,76,76,206,,right,red,2.13,1104.675438165665,1105.1568291187286,2,,4,10,brightness,readingArea,realistic,75,2023-03-30_10h26.40.988,tripletExp_regina_11082022,2022.2.4,120.92628471261186,
6,11,3,2,0.027777777777778,1.0,2,1.0,1.0,2,0.444444444444444,0.298245614035088,ReadingArea_rsl2-rcl2-esl100-rsm2-rcm100-esm100-rsr2-rcr44-esr29,exr/ReadingArea_rsl2-rcl2-esl100-rsm2-rcm100-esm100-rsr2-rcr44-esr29.exr,ReadingArea_rsl2-rcl2-esl100-rsm2-rcm100-esm100-rsr2-rcr44-esr29.npz,,,,,0,77,77,11,,right,red,2.27,1108.6125102043152,1109.0814740657806,2,,4,10,brightness,readingArea,realistic,75,2023-03-30_10h26.40.988,tripletExp_regina_11082022,2022.2.4,120.92628471261186,
14,2,6,2,0.25,3.10526315789474,2,0.25,0.298245614035088,2,0.027777777777778,1.0,ReadingArea_rsl2-rcl25-esl310-rsm2-rcm25-esm29-rsr2-rcr2-esr100,exr/ReadingArea_rsl2-rcl25-esl310-rsm2-rcm25-esm29-rsr2-rcr2-esr100.exr,ReadingArea_rsl2-rcl25-esl310-rsm2-rcm25-esm29-rsr2-rcr2-esr100.npz,,,,,0,78,78,350,,left,green,2.14,1112.5515789985657,1113.1930630207062,2,,4,10,brightness,readingArea,realistic,75,2023-03-30_10h26.40.988,tripletExp_regina_11082022,2022.2.4,120.92628471261186,
12,14,4,2,0.027777777777778,3.10526315789474,2,0.25,3.10526315789474,2,0.694444444444444,0.298245614035088,ReadingArea_rsl2-rcl2-esl310-rsm2-rcm25-esm310-rsr2-rcr69-esr29,exr/ReadingArea_rsl2-rcl2-esl310-rsm2-rcm25-esm310-rsr2-rcr69-esr29.exr,ReadingArea_rsl2-rcl2-esl310-rsm2-rcm25-esm310-rsr2-rcr69-esr29.npz,,,,,0,79,79,315,,right,red,2.28,1116.652657032013,1117.141491174698,2,,4,10,brightness,readingArea,realistic,75,2023-03-30_10h26.40.988,tripletExp_regina_11082022,2022.2.4,120.92628471261186,
3,14,10,2,0.444444444444444,0.298245614035088,2,0.25,3.10526315789474,2,0.694444444444444,1.0,ReadingArea_rsl2-rcl44-esl29-rsm2-rcm25-esm310-rsr2-rcr69-esr100,exr/ReadingArea_rsl2-rcl44-esl29-rsm2-rcm25-esm310-rsr2-rcr69-esr100.exr,ReadingArea_rsl2-rcl44-esl29-rsm2-rcm25-esm310-rsr2-rcr69-esr100.npz,,,,,0,80,80,279,,right,red,2.13,1120.6018540859222,1121.075492143631,2,,4,10,brightness,readingArea,realistic,75,2023-03-30_10h26.40.988,tripletExp_regina_11082022,2022.2.4,120.92628471261186,
1,7,2,2,0.111111111111111,0.298245614035088,2,0.111111111111111,1.0,2,0.25,0.298245614035088,ReadingArea_rsl2-rcl11-esl29-rsm2-rcm11-esm100-rsr2-rcr25-esr29,exr/ReadingArea_rsl2-rcl11-esl29-rsm2-rcm11-esm100-rsr2-rcr25-esr29.exr,ReadingArea_rsl2-rcl11-esl29-rsm2-rcm11-esm100-rsr2-rcr25-esr29.npz,,,,,0,81,81,162,,right,red,2.08,1124.5421850681305,1125.1236159801483,2,,4,10,brightness,readingArea,realistic,75,2023-03-30_10h26.40.988,tripletExp_regina_11082022,2022.2.4,120.92628471261186,
4,7,10,2,0.694444444444444,0.298245614035088,2,0.111111111111111,1.0,2,0.694444444444444,1.0,ReadingArea_rsl2-rcl69-esl29-rsm2-rcm11-esm100-rsr2-rcr69-esr100,exr/ReadingArea_rsl2-rcl69-esl29-rsm2-rcm11-esm100-rsr2-rcr69-esr100.exr,ReadingArea_rsl2-rcl69-esl29-rsm2-rcm11-esm100-rsr2-rcr69-esr100.npz,,,,,0,82,82,8,,left,green,2.06,1128.5997791290283,1129.073040008545,2,,4,10,brightness,readingArea,realistic,75,2023-03-30_10h26.40.988,tripletExp_regina_11082022,2022.2.4,120.92628471261186,
6,1,2,2,0.027777777777778,1.0,2,0.111111111111111,0.298245614035088,2,0.25,0.298245614035088,ReadingArea_rsl2-rcl2-esl100-rsm2-rcm11-esm29-rsr2-rcr25-esr29,exr/ReadingArea_rsl2-rcl2-esl100-rsm2-rcm11-esm29-rsr2-rcr25-esr29.exr,ReadingArea_rsl2-rcl2-esl100-rsm2-rcm11-esm29-rsr2-rcr25-esr29.npz,,,,,0,83,83,68,,right,red,2.03,1132.5593810081482,1133.0252120494845,2,,4,10,brightness,readingArea,realistic,75,2023-03-30_10h26.40.988,tripletExp_regina_11082022,2022.2.4,120.92628471261186,
0,5,6,2,0.027777777777778,0.298245614035088,2,1.0,0.298245614035088,2,0.027777777777778,1.0,ReadingArea_rsl2-rcl2-esl29-rsm2-rcm100-esm29-rsr2-rcr2-esr100,exr/ReadingArea_rsl2-rcl2-esl29-rsm2-rcm100-esm29-rsr2-rcr2-esr100.exr,ReadingArea_rsl2-rcl2-esl29-rsm2-rcm100-esm29-rsr2-rcr2-esr100.npz,,,,,0,84,84,374,,right,red,2.24,1136.500678062439,1136.98224401474,2,,4,10,brightness,readingArea,realistic,75,2023-03-30_10h26.40.988,tripletExp_regina_11082022,2022.2.4,120.92628471261186,
7,13,12,2,0.111111111111111,1.0,2,0.111111111111111,3.10526315789474,2,0.027777777777778,3.10526315789474,ReadingArea_rsl2-rcl11-esl100-rsm2-rcm11-esm310-rsr2-rcr2-esr310,exr/ReadingArea_rsl2-rcl11-esl100-rsm2-rcm11-esm310-rsr2-rcr2-esr310.exr,ReadingArea_rsl2-rcl11-esl100-rsm2-rcm11-esm310-rsr2-rcr2-esr310.npz,,,,,0,85,85,438,,left,green,2.08,1140.4505031108856,1140.9309930801392,2,,4,10,brightness,readingArea,realistic,75,2023-03-30_10h26.40.988,tripletExp_regina_11082022,2022.2.4,120.92628471261186,
10,11,12,2,0.694444444444444,1.0,2,1.0,1.0,2,0.027777777777778,3.10526315789474,ReadingArea_rsl2-rcl69-esl100-rsm2-rcm100-esm100-rsr2-rcr2-esr310,exr/ReadingArea_rsl2-rcl69-esl100-rsm2-rcm100-esm100-rsr2-rcr2-esr310.exr,ReadingArea_rsl2-rcl69-esl100-rsm2-rcm100-esm100-rsr2-rcr2-esr310.npz,,,,,0,86,86,533,,left,green,2.0,1144.380696058273,1144.8677711486816,2,,4,10,brightness,readingArea,realistic,75,2023-03-30_10h26.40.988,tripletExp_regina_11082022,2022.2.4,120.92628471261186,
2,4,13,2,0.25,0.298245614035088,2,0.694444444444444,0.298245614035088,2,0.111111111111111,3.10526315789474,ReadingArea_rsl2-rcl25-esl29-rsm2-rcm69-esm29-rsr2-rcr11-esr310,exr/ReadingArea_rsl2-rcl25-esl29-rsm2-rcm69-esm29-rsr2-rcr11-esr310.exr,ReadingArea_rsl2-rcl25-esl29-rsm2-rcm69-esm29-rsr2-rcr11-esr310.npz,,,,,0,87,87,325,,right,red,4.06,1150.1183631420135,1150.722379207611,2,,4,10,brightness,readingArea,realistic,75,2023-03-30_10h26.40.988,tripletExp_regina_11082022,2022.2.4,120.92628471261186,
14,0,5,2,0.25,3.10526315789474,2,0.027777777777778,0.298245614035088,2,1.0,0.298245614035088,ReadingArea_rsl2-rcl25-esl310-rsm2-rcm2-esm29-rsr2-rcr100-esr29,exr/ReadingArea_rsl2-rcl25-esl310-rsm2-rcm2-esm29-rsr2-rcr100-esr29.exr,ReadingArea_rsl2-rcl25-esl310-rsm2-rcm2-esm29-rsr2-rcr100-esr29.npz,,,,,0,88,88,418,,right,red,2.12,1154.184327125549,1154.666944980621,2,,4,10,brightness,readingArea,realistic,75,2023-03-30_10h26.40.988,tripletExp_regina_11082022,2022.2.4,120.92628471261186,
10,0,8,2,0.694444444444444,1.0,2,0.027777777777778,0.298245614035088,2,0.25,1.0,ReadingArea_rsl2-rcl69-esl100-rsm2-rcm2-esm29-rsr2-rcr25-esr100,exr/ReadingArea_rsl2-rcl69-esl100-rsm2-rcm2-esm29-rsr2-rcr25-esr100.exr,ReadingArea_rsl2-rcl69-esl100-rsm2-rcm2-esm29-rsr2-rcr25-esr100.npz,,,,,0,89,89,552,,right,red,2.01,1158.1122109889984,1158.5783660411837,2,,4,10,brightness,readingArea,realistic,75,2023-03-30_10h26.40.988,tripletExp_regina_11082022,2022.2.4,120.92628471261186,
2,8,4,2,0.25,0.298245614035088,2,0.25,1.0,2,0.694444444444444,0.298245614035088,ReadingArea_rsl2-rcl25-esl29-rsm2-rcm25-esm100-rsr2-rcr69-esr29,exr/ReadingArea_rsl2-rcl25-esl29-rsm2-rcm25-esm100-rsr2-rcr69-esr29.exr,ReadingArea_rsl2-rcl25-esl29-rsm2-rcm25-esm100-rsr2-rcr69-esr29.npz,,,,,0,90,90,507,,right,red,1.98,1162.036463022232,1162.5305650234222,2,,4,10,brightness,readingArea,realistic,75,2023-03-30_10h26.40.988,tripletExp_regina_11082022,2022.2.4,120.92628471261186,
2,9,11,2,0.25,0.298245614035088,2,0.444444444444444,1.0,2,1.0,1.0,ReadingArea_rsl2-rcl25-esl29-rsm2-rcm44-esm100-rsr2-rcr100-esr100,exr/ReadingArea_rsl2-rcl25-esl29-rsm2-rcm44-esm100-rsr2-rcr100-esr100.exr,ReadingArea_rsl2-rcl25-esl29-rsm2-rcm44-esm100-rsr2-rcr100-esr100.npz,,,,,0,91,91,164,,right,red,2.14,1166.0016860961914,1166.5243971347809,2,,4,10,brightness,readingArea,realistic,75,2023-03-30_10h26.40.988,tripletExp_regina_11082022,2022.2.4,120.92628471261186,
9,7,2,2,0.444444444444444,1.0,2,0.111111111111111,1.0,2,0.25,0.298245614035088,ReadingArea_rsl2-rcl44-esl100-rsm2-rcm11-esm100-rsr2-rcr25-esr29,exr/ReadingArea_rsl2-rcl44-esl100-rsm2-rcm11-esm100-rsr2-rcr25-esr29.exr,ReadingArea_rsl2-rcl44-esl100-rsm2-rcm11-esm100-rsr2-rcr25-esr29.npz,,,,,0,92,92,428,,right,red,1.31,1168.2205200195312,1168.6977880001068,2,,4,10,brightness,readingArea,realistic,75,2023-03-30_10h26.40.988,tripletExp_regina_11082022,2022.2.4,120.92628471261186,
8,13,2,2,0.25,1.0,2,0.111111111111111,3.10526315789474,2,0.25,0.298245614035088,ReadingArea_rsl2-rcl25-esl100-rsm2-rcm11-esm310-rsr2-rcr25-esr29,exr/ReadingArea_rsl2-rcl25-esl100-rsm2-rcm11-esm310-rsr2-rcr25-esr29.exr,ReadingArea_rsl2-rcl25-esl100-rsm2-rcm11-esm310-rsr2-rcr25-esr29.npz,,,,,0,93,93,376,,left,green,2.06,1172.1514790058136,1172.660001993179,2,,4,10,brightness,readingArea,realistic,75,2023-03-30_10h26.40.988,tripletExp_regina_11082022,2022.2.4,120.92628471261186,
4,3,9,2,0.694444444444444,0.298245614035088,2,0.444444444444444,0.298245614035088,2,0.444444444444444,1.0,ReadingArea_rsl2-rcl69-esl29-rsm2-rcm44-esm29-rsr2-rcr44-esr100,exr/ReadingArea_rsl2-rcl69-esl29-rsm2-rcm44-esm29-rsr2-rcr44-esr100.exr,ReadingArea_rsl2-rcl69-esl29-rsm2-rcm44-esm29-rsr2-rcr44-esr100.npz,,,,,0,94,94,451,,left,green,2.11,1176.1198132038116,1176.599377155304,2,,4,10,brightness,readingArea,realistic,75,2023-03-30_10h26.40.988,tripletExp_regina_11082022,2022.2.4,120.92628471261186,
3,6,10,2,0.444444444444444,0.298245614035088,2,0.027777777777778,1.0,2,0.694444444444444,1.0,ReadingArea_rsl2-rcl44-esl29-rsm2-rcm2-esm100-rsr2-rcr69-esr100,exr/ReadingArea_rsl2-rcl44-esl29-rsm2-rcm2-esm100-rsr2-rcr69-esr100.exr,ReadingArea_rsl2-rcl44-esl29-rsm2-rcm2-esm100-rsr2-rcr69-esr100.npz,,,,,0,95,95,138,,left,green,2.15,1180.054122209549,1180.5581030845642,2,,4,10,brightness,readingArea,realistic,75,2023-03-30_10h26.40.988,tripletExp_regina_11082022,2022.2.4,120.92628471261186,
13,6,2,2,0.111111111111111,3.10526315789474,2,0.027777777777778,1.0,2,0.25,0.298245614035088,ReadingArea_rsl2-rcl11-esl310-rsm2-rcm2-esm100-rsr2-rcr25-esr29,exr/ReadingArea_rsl2-rcl11-esl310-rsm2-rcm2-esm100-rsr2-rcr25-esr29.exr,ReadingArea_rsl2-rcl11-esl310-rsm2-rcm2-esm100-rsr2-rcr25-esr29.npz,,,,,0,96,96,115,,right,red,2.18,1184.040848016739,1184.5424571037292,2,,4,10,brightness,readingArea,realistic,75,2023-03-30_10h26.40.988,tripletExp_regina_11082022,2022.2.4,120.92628471261186,
5,10,0,2,1.0,0.298245614035088,2,0.694444444444444,1.0,2,0.027777777777778,0.298245614035088,ReadingArea_rsl2-rcl100-esl29-rsm2-rcm69-esm100-rsr2-rcr2-esr29,exr/ReadingArea_rsl2-rcl100-esl29-rsm2-rcm69-esm100-rsr2-rcr2-esr29.exr,ReadingArea_rsl2-rcl100-esl29-rsm2-rcm69-esm100-rsr2-rcr2-esr29.npz,,,,,0,97,97,293,,left,green,2.54,1188.0363631248474,,2,,4,10,brightness,readingArea,realistic,75,2023-03-30_10h26.40.988,tripletExp_regina_11082022,2022.2.4,120.92628471261186,
4,2,0,2,0.694444444444444,0.298245614035088,2,0.25,0.298245614035088,2,0.027777777777778,0.298245614035088,ReadingArea_rsl2-rcl69-esl29-rsm2-rcm25-esm29-rsr2-rcr2-esr29,exr/ReadingArea_rsl2-rcl69-esl29-rsm2-rcm25-esm29-rsr2-rcr2-esr29.exr,ReadingArea_rsl2-rcl69-esl29-rsm2-rcm25-esm29-rsr2-rcr2-esr29.npz,,,,,0,98,98,71,,left,green,2.97,1191.9691150188446,1192.4562330245972,2,,4,10,brightness,readingArea,realistic,75,2023-03-30_10h26.40.988,tripletExp_regina_11082022,2022.2.4,120.92628471261186,
13,8,14,2,0.111111111111111,3.10526315789474,2,0.25,1.0,2,0.25,3.10526315789474,ReadingArea_rsl2-rcl11-esl310-rsm2-rcm25-esm100-rsr2-rcr25-esr310,exr/ReadingArea_rsl2-rcl11-esl310-rsm2-rcm25-esm100-rsr2-rcr25-esr310.exr,ReadingArea_rsl2-rcl11-esl310-rsm2-rcm25-esm100-rsr2-rcr25-esr310.npz,,,,,0,99,99,345,,left,green,2.44,1195.9051032066343,1196.3783311843872,2,,4,10,brightness,readingArea,realistic,75,2023-03-30_10h26.40.988,tripletExp_regina_11082022,2022.2.4,120.92628471261186,
5,9,12,2,1.0,0.298245614035088,2,0.444444444444444,1.0,2,0.027777777777778,3.10526315789474,ReadingArea_rsl2-rcl100-esl29-rsm2-rcm44-esm100-rsr2-rcr2-esr310,exr/ReadingArea_rsl2-rcl100-esl29-rsm2-rcm44-esm100-rsr2-rcr2-esr310.exr,ReadingArea_rsl2-rcl100-esl29-rsm2-rcm44-esm100-rsr2-rcr2-esr310.npz,,,,,0,100,100,539,,left,green,2.25,1199.8366451263428,1200.3144640922546,2,,4,10,brightness,readingArea,realistic,75,2023-03-30_10h26.40.988,tripletExp_regina_11082022,2022.2.4,120.92628471261186,
9,6,13,2,0.444444444444444,1.0,2,0.027777777777778,1.0,2,0.111111111111111,3.10526315789474,ReadingArea_rsl2-rcl44-esl100-rsm2-rcm2-esm100-rsr2-rcr11-esr310,exr/ReadingArea_rsl2-rcl44-esl100-rsm2-rcm2-esm100-rsr2-rcr11-esr310.exr,ReadingArea_rsl2-rcl44-esl100-rsm2-rcm2-esm100-rsr2-rcr11-esr310.npz,,,,,0,101,101,285,,right,red,3.99,1205.5747301578522,1206.0546810626984,2,,4,10,brightness,readingArea,realistic,75,2023-03-30_10h26.40.988,tripletExp_regina_11082022,2022.2.4,120.92628471261186,
3,1,0,2,0.444444444444444,0.298245614035088,2,0.111111111111111,0.298245614035088,2,0.027777777777778,0.298245614035088,ReadingArea_rsl2-rcl44-esl29-rsm2-rcm11-esm29-rsr2-rcr2-esr29,exr/ReadingArea_rsl2-rcl44-esl29-rsm2-rcm11-esm29-rsr2-rcr2-esr29.exr,ReadingArea_rsl2-rcl44-esl29-rsm2-rcm11-esm29-rsr2-rcr2-esr29.npz,,,,,0,102,102,343,,left,green,3.29,1209.516205072403,1209.9882910251615,2,,4,10,brightness,readingArea,realistic,75,2023-03-30_10h26.40.988,tripletExp_regina_11082022,2022.2.4,120.92628471261186,
14,6,5,2,0.25,3.10526315789474,2,0.027777777777778,1.0,2,1.0,0.298245614035088,ReadingArea_rsl2-rcl25-esl310-rsm2-rcm2-esm100-rsr2-rcr100-esr29,exr/ReadingArea_rsl2-rcl25-esl310-rsm2-rcm2-esm100-rsr2-rcr100-esr29.exr,ReadingArea_rsl2-rcl25-esl310-rsm2-rcm2-esm100-rsr2-rcr100-esr29.npz,,,,,0,103,103,297,,right,red,2.22,1213.477243185043,1213.9666421413422,2,,4,10,brightness,readingArea,realistic,75,2023-03-30_10h26.40.988,tripletExp_regina_11082022,2022.2.4,120.92628471261186,
14,2,0,2,0.25,3.10526315789474,2,0.25,0.298245614035088,2,0.027777777777778,0.298245614035088,ReadingArea_rsl2-rcl25-esl310-rsm2-rcm25-esm29-rsr2-rcr2-esr29,exr/ReadingArea_rsl2-rcl25-esl310-rsm2-rcm25-esm29-rsr2-rcr2-esr29.exr,ReadingArea_rsl2-rcl25-esl310-rsm2-rcm25-esm29-rsr2-rcr2-esr29.npz,,,,,0,104,104,460,,right,red,2.34,1217.4400861263275,1217.9065129756927,2,,4,10,brightness,readingArea,realistic,75,2023-03-30_10h26.40.988,tripletExp_regina_11082022,2022.2.4,120.92628471261186,
2,4,6,2,0.25,0.298245614035088,2,0.694444444444444,0.298245614035088,2,0.027777777777778,1.0,ReadingArea_rsl2-rcl25-esl29-rsm2-rcm69-esm29-rsr2-rcr2-esr100,exr/ReadingArea_rsl2-rcl25-esl29-rsm2-rcm69-esm29-rsr2-rcr2-esr100.exr,ReadingArea_rsl2-rcl25-esl29-rsm2-rcm69-esm29-rsr2-rcr2-esr100.npz,,,,,0,105,105,563,,left,green,2.12,1221.366686105728,,2,,4,10,brightness,readingArea,realistic,75,2023-03-30_10h26.40.988,tripletExp_regina_11082022,2022.2.4,120.92628471261186,
12,9,14,2,0.027777777777778,3.10526315789474,2,0.444444444444444,1.0,2,0.25,3.10526315789474,ReadingArea_rsl2-rcl2-esl310-rsm2-rcm44-esm100-rsr2-rcr25-esr310,exr/ReadingArea_rsl2-rcl2-esl310-rsm2-rcm44-esm100-rsr2-rcr25-esr310.exr,ReadingArea_rsl2-rcl2-esl310-rsm2-rcm44-esm100-rsr2-rcr25-esr310.npz,,,,,0,106,106,123,,right,red,2.07,1225.3175761699677,,2,,4,10,brightness,readingArea,realistic,75,2023-03-30_10h26.40.988,tripletExp_regina_11082022,2022.2.4,120.92628471261186,
3,9,10,2,0.444444444444444,0.298245614035088,2,0.444444444444444,1.0,2,0.694444444444444,1.0,ReadingArea_rsl2-rcl44-esl29-rsm2-rcm44-esm100-rsr2-rcr69-esr100,exr/ReadingArea_rsl2-rcl44-esl29-rsm2-rcm44-esm100-rsr2-rcr69-esr100.exr,ReadingArea_rsl2-rcl44-esl29-rsm2-rcm44-esm100-rsr2-rcr69-esr100.npz,,,,,0,107,107,581,,left,green,3.1,1229.2745151519775,1229.7690770626068,2,,4,10,brightness,readingArea,realistic,75,2023-03-30_10h26.40.988,tripletExp_regina_11082022,2022.2.4,120.92628471261186,
12,13,14,2,0.027777777777778,3.10526315789474,2,0.111111111111111,3.10526315789474,2,0.25,3.10526315789474,ReadingArea_rsl2-rcl2-esl310-rsm2-rcm11-esm310-rsr2-rcr25-esr310,exr/ReadingArea_rsl2-rcl2-esl310-rsm2-rcm11-esm310-rsr2-rcr25-esr310.exr,ReadingArea_rsl2-rcl2-esl310-rsm2-rcm11-esm310-rsr2-rcr25-esr310.npz,,,,,0,108,108,208,,right,red,2.14,1233.2355000972748,,2,,4,10,brightness,readingArea,realistic,75,2023-03-30_10h26.40.988,tripletExp_regina_11082022,2022.2.4,120.92628471261186,
11,0,6,2,1.0,1.0,2,0.027777777777778,0.298245614035088,2,0.027777777777778,1.0,ReadingArea_rsl2-rcl100-esl100-rsm2-rcm2-esm29-rsr2-rcr2-esr100,exr/ReadingArea_rsl2-rcl100-esl100-rsm2-rcm2-esm29-rsr2-rcr2-esr100.exr,ReadingArea_rsl2-rcl100-esl100-rsm2-rcm2-esm29-rsr2-rcr2-esr100.npz,,,,,0,109,109,586,,right,red,1.98,1237.1228392124176,1237.7002730369568,2,,4,10,brightness,readingArea,realistic,75,2023-03-30_10h26.40.988,tripletExp_regina_11082022,2022.2.4,120.92628471261186,
4,11,12,2,0.694444444444444,0.298245614035088,2,1.0,1.0,2,0.027777777777778,3.10526315789474,ReadingArea_rsl2-rcl69-esl29-rsm2-rcm100-esm100-rsr2-rcr2-esr310,exr/ReadingArea_rsl2-rcl69-esl29-rsm2-rcm100-esm100-rsr2-rcr2-esr310.exr,ReadingArea_rsl2-rcl69-esl29-rsm2-rcm100-esm100-rsr2-rcr2-esr310.npz,,,,,0,110,110,109,,left,green,3.34,1241.1654031276703,1241.6664052009585,2,,4,10,brightness,readingArea,realistic,75,2023-03-30_10h26.40.988,tripletExp_regina_11082022,2022.2.4,120.92628471261186,
9,11,10,2,0.444444444444444,1.0,2,1.0,1.0,2,0.694444444444444,1.0,ReadingArea_rsl2-rcl44-esl100-rsm2-rcm100-esm100-rsr2-rcr69-esr100,exr/ReadingArea_rsl2-rcl44-esl100-rsm2-rcm100-esm100-rsr2-rcr69-esr100.exr,ReadingArea_rsl2-rcl44-esl100-rsm2-rcm100-esm100-rsr2-rcr69-esr100.npz,,,,,0,111,111,591,,right,red,3.9,1246.8835949897766,1247.4975152015686,2,,4,10,brightness,readingArea,realistic,75,2023-03-30_10h26.40.988,tripletExp_regina_11082022,2022.2.4,120.92628471261186,
7,10,4,2,0.111111111111111,1.0,2,0.694444444444444,1.0,2,0.694444444444444,0.298245614035088,ReadingArea_rsl2-rcl11-esl100-rsm2-rcm69-esm100-rsr2-rcr69-esr29,exr/ReadingArea_rsl2-rcl11-esl100-rsm2-rcm69-esm100-rsr2-rcr69-esr29.exr,ReadingArea_rsl2-rcl11-esl100-rsm2-rcm69-esm100-rsr2-rcr69-esr29.npz,,,,,0,112,112,46,,right,red,2.28,1250.9458940029144,,2,,4,10,brightness,readingArea,realistic,75,2023-03-30_10h26.40.988,tripletExp_regina_11082022,2022.2.4,120.92628471261186,
6,4,0,2,0.027777777777778,1.0,2,0.694444444444444,0.298245614035088,2,0.027777777777778,0.298245614035088,ReadingArea_rsl2-rcl2-esl100-rsm2-rcm69-esm29-rsr2-rcr2-esr29,exr/ReadingArea_rsl2-rcl2-esl100-rsm2-rcm69-esm29-rsr2-rcr2-esr29.exr,ReadingArea_rsl2-rcl2-esl100-rsm2-rcm69-esm29-rsr2-rcr2-esr29.npz,,,,,0,113,113,360,,left,green,2.5,1254.9153580665588,1255.3933801651,2,,4,10,brightness,readingArea,realistic,75,2023-03-30_10h26.40.988,tripletExp_regina_11082022,2022.2.4,120.92628471261186,
11,5,1,2,1.0,1.0,2,1.0,0.298245614035088,2,0.111111111111111,0.298245614035088,ReadingArea_rsl2-rcl100-esl100-rsm2-rcm100-esm29-rsr2-rcr11-esr29,exr/ReadingArea_rsl2-rcl100-esl100-rsm2-rcm100-esm29-rsr2-rcr11-esr29.exr,ReadingArea_rsl2-rcl100-esl100-rsm2-rcm100-esm29-rsr2-rcr11-esr29.npz,,,,,0,114,114,48,,left,green,1.43,1257.0937180519104,1257.669195175171,2,,4,10,brightness,readingArea,realistic,75,2023-03-30_10h26.40.988,tripletExp_regina_11082022,2022.2.4,120.92628471261186,
1,13,8,2,0.111111111111111,0.298245614035088,2,0.111111111111111,3.10526315789474,2,0.25,1.0,ReadingArea_rsl2-rcl11-esl29-rsm2-rcm11-esm310-rsr2-rcr25-esr100,exr/ReadingArea_rsl2-rcl11-esl29-rsm2-rcm11-esm310-rsr2-rcr25-esr100.exr,ReadingArea_rsl2-rcl11-esl29-rsm2-rcm11-esm310-rsr2-rcr25-esr100.npz,,,,,0,115,115,64,,right,red,2.07,1261.118681192398,1261.660679101944,2,,4,10,brightness,readingArea,realistic,75,2023-03-30_10h26.40.988,tripletExp_regina_11082022,2022.2.4,120.92628471261186,
14,7,1,2,0.25,3.10526315789474,2,0.111111111111111,1.0,2,0.111111111111111,0.298245614035088,ReadingArea_rsl2-rcl25-esl310-rsm2-rcm11-esm100-rsr2-rcr11-esr29,exr/ReadingArea_rsl2-rcl25-esl310-rsm2-rcm11-esm100-rsr2-rcr11-esr29.exr,ReadingArea_rsl2-rcl25-esl310-rsm2-rcm11-esm100-rsr2-rcr11-esr29.npz,,,,,0,116,116,298,,right,red,1.99,1265.106751203537,,2,,4,10,brightness,readingArea,realistic,75,2023-03-30_10h26.40.988,tripletExp_regina_11082022,2022.2.4,120.92628471261186,
11,5,8,2,1.0,1.0,2,1.0,0.298245614035088,2,0.25,1.0,ReadingArea_rsl2-rcl100-esl100-rsm2-rcm100-esm29-rsr2-rcr25-esr100,exr/ReadingArea_rsl2-rcl100-esl100-rsm2-rcm100-esm29-rsr2-rcr25-esr100.exr,ReadingArea_rsl2-rcl100-esl100-rsm2-rcm100-esm29-rsr2-rcr25-esr100.npz,,,,,0,117,117,86,,right,red,2.13,1269.0693349838257,1269.5562090873718,2,,4,10,brightness,readingArea,realistic,75,2023-03-30_10h26.40.988,tripletExp_regina_11082022,2022.2.4,120.92628471261186,
2,10,6,2,0.25,0.298245614035088,2,0.694444444444444,1.0,2,0.027777777777778,1.0,ReadingArea_rsl2-rcl25-esl29-rsm2-rcm69-esm100-rsr2-rcr2-esr100,exr/ReadingArea_rsl2-rcl25-esl29-rsm2-rcm69-esm100-rsr2-rcr2-esr100.exr,ReadingArea_rsl2-rcl25-esl29-rsm2-rcm69-esm100-rsr2-rcr2-esr100.npz,,,,,0,118,118,4,,left,green,2.15,1273.0186841487885,1273.493348121643,2,,4,10,brightness,readingArea,realistic,75,2023-03-30_10h26.40.988,tripletExp_regina_11082022,2022.2.4,120.92628471261186,
10,11,0,2,0.694444444444444,1.0,2,1.0,1.0,2,0.027777777777778,0.298245614035088,ReadingArea_rsl2-rcl69-esl100-rsm2-rcm100-esm100-rsr2-rcr2-esr29,exr/ReadingArea_rsl2-rcl69-esl100-rsm2-rcm100-esm100-rsr2-rcr2-esr29.exr,ReadingArea_rsl2-rcl69-esl100-rsm2-rcm100-esm100-rsr2-rcr2-esr29.npz,,,,,0,119,119,58,,left,green,2.13,1276.9588611125946,,2,,4,10,brightness,readingArea,realistic,75,2023-03-30_10h26.40.988,tripletExp_regina_11082022,2022.2.4,120.92628471261186,
2,11,8,2,0.25,0.298245614035088,2,1.0,1.0,2,0.25,1.0,ReadingArea_rsl2-rcl25-esl29-rsm2-rcm100-esm100-rsr2-rcr25-esr100,exr/ReadingArea_rsl2-rcl25-esl29-rsm2-rcm100-esm100-rsr2-rcr25-esr100.exr,ReadingArea_rsl2-rcl25-esl29-rsm2-rcm100-esm100-rsr2-rcr25-esr100.npz,,,,,0,120,120,364,,right,red,2.25,1280.9342141151428,,2,,4,10,brightness,readingArea,realistic,75,2023-03-30_10h26.40.988,tripletExp_regina_11082022,2022.2.4,120.92628471261186,
12,7,9,2,0.027777777777778,3.10526315789474,2,0.111111111111111,1.0,2,0.444444444444444,1.0,ReadingArea_rsl2-rcl2-esl310-rsm2-rcm11-esm100-rsr2-rcr44-esr100,exr/ReadingArea_rsl2-rcl2-esl310-rsm2-rcm11-esm100-rsr2-rcr44-esr100.exr,ReadingArea_rsl2-rcl2-esl310-rsm2-rcm11-esm100-rsr2-rcr44-esr100.npz,,,,,0,121,121,124,,left,green,2.37,1284.8895461559296,1285.3761961460114,2,,4,10,brightness,readingArea,realistic,75,2023-03-30_10h26.40.988,tripletExp_regina_11082022,2022.2.4,120.92628471261186,
8,9,13,2,0.25,1.0,2,0.444444444444444,1.0,2,0.111111111111111,3.10526315789474,ReadingArea_rsl2-rcl25-esl100-rsm2-rcm44-esm100-rsr2-rcr11-esr310,exr/ReadingArea_rsl2-rcl25-esl100-rsm2-rcm44-esm100-rsr2-rcr11-esr310.exr,ReadingArea_rsl2-rcl25-esl100-rsm2-rcm44-esm100-rsr2-rcr11-esr310.npz,,,,,0,122,122,519,,right,red,2.98,1288.8314080238342,1289.3194451332092,2,,4,10,brightness,readingArea,realistic,75,2023-03-30_10h26.40.988,tripletExp_regina_11082022,2022.2.4,120.92628471261186,
5,3,10,2,1.0,0.298245614035088,2,0.444444444444444,0.298245614035088,2,0.694444444444444,1.0,ReadingArea_rsl2-rcl100-esl29-rsm2-rcm44-esm29-rsr2-rcr69-esr100,exr/ReadingArea_rsl2-rcl100-esl29-rsm2-rcm44-esm29-rsr2-rcr69-esr100.exr,ReadingArea_rsl2-rcl100-esl29-rsm2-rcm44-esm29-rsr2-rcr69-esr100.npz,,,,,0,123,123,546,,left,green,2.24,1292.791199207306,1293.2723290920258,2,,4,10,brightness,readingArea,realistic,75,2023-03-30_10h26.40.988,tripletExp_regina_11082022,2022.2.4,120.92628471261186,
11,13,1,2,1.0,1.0,2,0.111111111111111,3.10526315789474,2,0.111111111111111,0.298245614035088,ReadingArea_rsl2-rcl100-esl100-rsm2-rcm11-esm310-rsr2-rcr11-esr29,exr/ReadingArea_rsl2-rcl100-esl100-rsm2-rcm11-esm310-rsr2-rcr11-esr29.exr,ReadingArea_rsl2-rcl100-esl100-rsm2-rcm11-esm310-rsr2-rcr11-esr29.npz,,,,,0,124,124,185,,right,red,3.21,1296.736388206482,1297.2332301139832,2,,4,10,brightness,readingArea,realistic,75,2023-03-30_10h26.40.988,tripletExp_regina_11082022,2022.2.4,120.92628471261186,
10,0,11,2,0.694444444444444,1.0,2,0.027777777777778,0.298245614035088,2,1.0,1.0,ReadingArea_rsl2-rcl69-esl100-rsm2-rcm2-esm29-rsr2-rcr100-esr100,exr/ReadingArea_rsl2-rcl69-esl100-rsm2-rcm2-esm29-rsr2-rcr100-esr100.exr,ReadingArea_rsl2-rcl69-esl100-rsm2-rcm2-esm29-rsr2-rcr100-esr100.npz,,,,,0,125,125,573,,left,green,3.23,1300.6804311275482,1301.167648077011,2,,4,10,brightness,readingArea,realistic,75,2023-03-30_10h26.40.988,tripletExp_regina_11082022,2022.2.4,120.92628471261186,
0,13,12,2,0.027777777777778,0.298245614035088,2,0.111111111111111,3.10526315789474,2,0.027777777777778,3.10526315789474,ReadingArea_rsl2-rcl2-esl29-rsm2-rcm11-esm310-rsr2-rcr2-esr310,exr/ReadingArea_rsl2-rcl2-esl29-rsm2-rcm11-esm310-rsr2-rcr2-esr310.exr,ReadingArea_rsl2-rcl2-esl29-rsm2-rcm11-esm310-rsr2-rcr2-esr310.npz,,,,,0,126,126,501,,right,red,2.18,1304.643604040146,1305.1492471694946,2,,4,10,brightness,readingArea,realistic,75,2023-03-30_10h26.40.988,tripletExp_regina_11082022,2022.2.4,120.92628471261186,
6,0,14,2,0.027777777777778,1.0,2,0.027777777777778,0.298245614035088,2,0.25,3.10526315789474,ReadingArea_rsl2-rcl2-esl100-rsm2-rcm2-esm29-rsr2-rcr25-esr310,exr/ReadingArea_rsl2-rcl2-esl100-rsm2-rcm2-esm29-rsr2-rcr25-esr310.exr,ReadingArea_rsl2-rcl2-esl100-rsm2-rcm2-esm29-rsr2-rcr25-esr310.npz,,,,,0,127,127,169,,left,green,2.27,1308.6170210838318,1309.0943441390991,2,,4,10,brightness,readingArea,realistic,75,2023-03-30_10h26.40.988,tripletExp_regina_11082022,2022.2.4,120.92628471261186,
13,0,8,2,0.111111111111111,3.10526315789474,2,0.027777777777778,0.298245614035088,2,0.25,1.0,ReadingArea_rsl2-rcl11-esl310-rsm2-rcm2-esm29-rsr2-rcr25-esr100,exr/ReadingArea_rsl2-rcl11-esl310-rsm2-rcm2-esm29-rsr2-rcr25-esr100.exr,ReadingArea_rsl2-rcl11-esl310-rsm2-rcm2-esm29-rsr2-rcr25-esr100.npz,,,,,0,128,128,249,,right,red,3.64,1312.5858130455017,1313.0576961040497,2,,4,10,brightness,readingArea,realistic,75,2023-03-30_10h26.40.988,tripletExp_regina_11082022,2022.2.4,120.92628471261186,
6,1,9,2,0.027777777777778,1.0,2,0.111111111111111,0.298245614035088,2,0.444444444444444,1.0,ReadingArea_rsl2-rcl2-esl100-rsm2-rcm11-esm29-rsr2-rcr44-esr100,exr/ReadingArea_rsl2-rcl2-esl100-rsm2-rcm11-esm29-rsr2-rcr44-esr100.exr,ReadingArea_rsl2-rcl2-esl100-rsm2-rcm11-esm29-rsr2-rcr44-esr100.npz,,,,,0,129,129,74,,left,green,2.65,1316.523400068283,1316.998162984848,2,,4,10,brightness,readingArea,realistic,75,2023-03-30_10h26.40.988,tripletExp_regina_11082022,2022.2.4,120.92628471261186,
10,5,1,2,0.694444444444444,1.0,2,1.0,0.298245614035088,2,0.111111111111111,0.298245614035088,ReadingArea_rsl2-rcl69-esl100-rsm2-rcm100-esm29-rsr2-rcr11-esr29,exr/ReadingArea_rsl2-rcl69-esl100-rsm2-rcm100-esm29-rsr2-rcr11-esr29.exr,ReadingArea_rsl2-rcl69-esl100-rsm2-rcm100-esm29-rsr2-rcr11-esr29.npz,,,,,0,130,130,152,,left,green,2.78,1320.4742109775543,1320.9788529872894,2,,4,10,brightness,readingArea,realistic,75,2023-03-30_10h26.40.988,tripletExp_regina_11082022,2022.2.4,120.92628471261186,
4,10,11,2,0.694444444444444,0.298245614035088,2,0.694444444444444,1.0,2,1.0,1.0,ReadingArea_rsl2-rcl69-esl29-rsm2-rcm69-esm100-rsr2-rcr100-esr100,exr/ReadingArea_rsl2-rcl69-esl29-rsm2-rcm69-esm100-rsr2-rcr100-esr100.exr,ReadingArea_rsl2-rcl69-esl29-rsm2-rcm69-esm100-rsr2-rcr100-esr100.npz,,,,,0,131,131,180,,right,red,4.51,1326.230134010315,1326.8122510910034,2,,4,10,brightness,readingArea,realistic,75,2023-03-30_10h26.40.988,tripletExp_regina_11082022,2022.2.4,120.92628471261186,
9,6,14,2,0.444444444444444,1.0,2,0.027777777777778,1.0,2,0.25,3.10526315789474,ReadingArea_rsl2-rcl44-esl100-rsm2-rcm2-esm100-rsr2-rcr25-esr310,exr/ReadingArea_rsl2-rcl44-esl100-rsm2-rcm2-esm100-rsr2-rcr25-esr310.exr,ReadingArea_rsl2-rcl44-esl100-rsm2-rcm2-esm100-rsr2-rcr25-esr310.npz,,,,,0,132,132,213,,left,green,2.13,1330.2718291282654,1330.7454891204834,2,,4,10,brightness,readingArea,realistic,75,2023-03-30_10h26.40.988,tripletExp_regina_11082022,2022.2.4,120.92628471261186,
8,6,11,2,0.25,1.0,2,0.027777777777778,1.0,2,1.0,1.0,ReadingArea_rsl2-rcl25-esl100-rsm2-rcm2-esm100-rsr2-rcr100-esr100,exr/ReadingArea_rsl2-rcl25-esl100-rsm2-rcm2-esm100-rsr2-rcr100-esr100.exr,ReadingArea_rsl2-rcl25-esl100-rsm2-rcm2-esm100-rsr2-rcr100-esr100.npz,,,,,0,133,133,236,,left,green,2.15,1334.232017040253,1334.7199420928955,2,,4,10,brightness,readingArea,realistic,75,2023-03-30_10h26.40.988,tripletExp_regina_11082022,2022.2.4,120.92628471261186,
2,14,1,2,0.25,0.298245614035088,2,0.25,3.10526315789474,2,0.111111111111111,0.298245614035088,ReadingArea_rsl2-rcl25-esl29-rsm2-rcm25-esm310-rsr2-rcr11-esr29,exr/ReadingArea_rsl2-rcl25-esl29-rsm2-rcm25-esm310-rsr2-rcr11-esr29.exr,ReadingArea_rsl2-rcl25-esl29-rsm2-rcm25-esm310-rsr2-rcr11-esr29.npz,,,,,0,134,134,579,,left,green,2.96,1338.1969912052157,1338.9006760120392,2,,4,10,brightness,readingArea,realistic,75,2023-03-30_10h26.40.988,tripletExp_regina_11082022,2022.2.4,120.92628471261186,
9,8,7,2,0.444444444444444,1.0,2,0.25,1.0,2,0.111111111111111,1.0,ReadingArea_rsl2-rcl44-esl100-rsm2-rcm25-esm100-rsr2-rcr11-esr100,exr/ReadingArea_rsl2-rcl44-esl100-rsm2-rcm25-esm100-rsr2-rcr11-esr100.exr,ReadingArea_rsl2-rcl44-esl100-rsm2-rcm25-esm100-rsr2-rcr11-esr100.npz,,,,,0,135,135,368,,right,red,2.68,1342.3646721839905,1342.9593920707705,2,,4,10,brightness,readingArea,realistic,75,2023-03-30_10h26.40.988,tripletExp_regina_11082022,2022.2.4,120.92628471261186,
4,8,10,2,0.694444444444444,0.298245614035088,2,0.25,1.0,2,0.694444444444444,1.0,ReadingArea_rsl2-rcl69-esl29-rsm2-rcm25-esm100-rsr2-rcr69-esr100,exr/ReadingArea_rsl2-rcl69-esl29-rsm2-rcm25-esm100-rsr2-rcr69-esr100.exr,ReadingArea_rsl2-rcl69-esl29-rsm2-rcm25-esm100-rsr2-rcr69-esr100.npz,,,,,0,136,136,221,,left,green,2.18,1346.4418811798096,1346.9222321510315,2,,4,10,brightness,readingArea,realistic,75,2023-03-30_10h26.40.988,tripletExp_regina_11082022,2022.2.4,120.92628471261186,
7,9,5,2,0.111111111111111,1.0,2,0.444444444444444,1.0,2,1.0,0.298245614035088,ReadingArea_rsl2-rcl11-esl100-rsm2-rcm44-esm100-rsr2-rcr100-esr29,exr/ReadingArea_rsl2-rcl11-esl100-rsm2-rcm44-esm100-rsr2-rcr100-esr29.exr,ReadingArea_rsl2-rcl11-esl100-rsm2-rcm44-esm100-rsr2-rcr100-esr29.npz,,,,,0,137,137,291,,right,red,2.33,1350.377429008484,1350.8712470531464,2,,4,10,brightness,readingArea,realistic,75,2023-03-30_10h26.40.988,tripletExp_regina_11082022,2022.2.4,120.92628471261186,
2,12,13,2,0.25,0.298245614035088,2,0.027777777777778,3.10526315789474,2,0.111111111111111,3.10526315789474,ReadingArea_rsl2-rcl25-esl29-rsm2-rcm2-esm310-rsr2-rcr11-esr310,exr/ReadingArea_rsl2-rcl25-esl29-rsm2-rcm2-esm310-rsr2-rcr11-esr310.exr,ReadingArea_rsl2-rcl25-esl29-rsm2-rcm2-esm310-rsr2-rcr11-esr310.npz,,,,,0,138,138,232,,left,green,3.3,1354.3355181217194,1354.8147881031036,2,,4,10,brightness,readingArea,realistic,75,2023-03-30_10h26.40.988,tripletExp_regina_11082022,2022.2.4,120.92628471261186,
2,11,5,2,0.25,0.298245614035088,2,1.0,1.0,2,1.0,0.298245614035088,ReadingArea_rsl2-rcl25-esl29-rsm2-rcm100-esm100-rsr2-rcr100-esr29,exr/ReadingArea_rsl2-rcl25-esl29-rsm2-rcm100-esm100-rsr2-rcr100-esr29.exr,ReadingArea_rsl2-rcl25-esl29-rsm2-rcm100-esm100-rsr2-rcr100-esr29.npz,,,,,0,139,139,491,,right,red,2.27,1358.2734789848328,1358.7689690589905,2,,4,10,brightness,readingArea,realistic,75,2023-03-30_10h26.40.988,tripletExp_regina_11082022,2022.2.4,120.92628471261186,
9,3,8,2,0.444444444444444,1.0,2,0.444444444444444,0.298245614035088,2,0.25,1.0,ReadingArea_rsl2-rcl44-esl100-rsm2-rcm44-esm29-rsr2-rcr25-esr100,exr/ReadingArea_rsl2-rcl44-esl100-rsm2-rcm44-esm29-rsr2-rcr25-esr100.exr,ReadingArea_rsl2-rcl44-esl100-rsm2-rcm44-esm29-rsr2-rcr25-esr100.npz,,,,,0,140,140,530,,right,red,2.25,1362.2381510734558,1362.7272651195526,2,,4,10,brightness,readingArea,realistic,75,2023-03-30_10h26.40.988,tripletExp_regina_11082022,2022.2.4,120.92628471261186,
13,6,0,2,0.111111111111111,3.10526315789474,2,0.027777777777778,1.0,2,0.027777777777778,0.298245614035088,ReadingArea_rsl2-rcl11-esl310-rsm2-rcm2-esm100-rsr2-rcr2-esr29,exr/ReadingArea_rsl2-rcl11-esl310-rsm2-rcm2-esm100-rsr2-rcr2-esr29.exr,ReadingArea_rsl2-rcl11-esl310-rsm2-rcm2-esm100-rsr2-rcr2-esr29.npz,,,,,0,141,141,309,,right,red,1.9,1366.1935131549835,1366.6749141216278,2,,4,10,brightness,readingArea,realistic,75,2023-03-30_10h26.40.988,tripletExp_regina_11082022,2022.2.4,120.92628471261186,
12,7,1,2,0.027777777777778,3.10526315789474,2,0.111111111111111,1.0,2,0.111111111111111,0.298245614035088,ReadingArea_rsl2-rcl2-esl310-rsm2-rcm11-esm100-rsr2-rcr11-esr29,exr/ReadingArea_rsl2-rcl2-esl310-rsm2-rcm11-esm100-rsr2-rcr11-esr29.exr,ReadingArea_rsl2-rcl2-esl310-rsm2-rcm11-esm100-rsr2-rcr11-esr29.npz,,,,,0,142,142,264,,right,red,2.27,1370.1653470993042,,2,,4,10,brightness,readingArea,realistic,75,2023-03-30_10h26.40.988,tripletExp_regina_11082022,2022.2.4,120.92628471261186,
6,12,3,2,0.027777777777778,1.0,2,0.027777777777778,3.10526315789474,2,0.444444444444444,0.298245614035088,ReadingArea_rsl2-rcl2-esl100-rsm2-rcm2-esm310-rsr2-rcr44-esr29,exr/ReadingArea_rsl2-rcl2-esl100-rsm2-rcm2-esm310-rsr2-rcr44-esr29.exr,ReadingArea_rsl2-rcl2-esl100-rsm2-rcm2-esm310-rsr2-rcr44-esr29.npz,,,,,0,143,143,284,,left,green,2.17,1374.137557029724,1374.6283271312714,2,,4,10,brightness,readingArea,realistic,75,2023-03-30_10h26.40.988,tripletExp_regina_11082022,2022.2.4,120.92628471261186,
1,3,4,2,0.111111111111111,0.298245614035088,2,0.444444444444444,0.298245614035088,2,0.694444444444444,0.298245614035088,ReadingArea_rsl2-rcl11-esl29-rsm2-rcm44-esm29-rsr2-rcr69-esr29,exr/ReadingArea_rsl2-rcl11-esl29-rsm2-rcm44-esm29-rsr2-rcr69-esr29.exr,ReadingArea_rsl2-rcl11-esl29-rsm2-rcm44-esm29-rsr2-rcr69-esr29.npz,,,,,0,144,144,153,,right,red,2.14,1378.102902173996,1378.5813920497894,2,,4,10,brightness,readingArea,realistic,75,2023-03-30_10h26.40.988,tripletExp_regina_11082022,2022.2.4,120.92628471261186,
14,3,6,2,0.25,3.10526315789474,2,0.444444444444444,0.298245614035088,2,0.027777777777778,1.0,ReadingArea_rsl2-rcl25-esl310-rsm2-rcm44-esm29-rsr2-rcr2-esr100,exr/ReadingArea_rsl2-rcl25-esl310-rsm2-rcm44-esm29-rsr2-rcr2-esr100.exr,ReadingArea_rsl2-rcl25-esl310-rsm2-rcm44-esm29-rsr2-rcr2-esr100.npz,,,,,0,145,145,244,,left,green,2.87,1382.0404300689695,1382.5175631046295,2,,4,10,brightness,readingArea,realistic,75,2023-03-30_10h26.40.988,tripletExp_regina_11082022,2022.2.4,120.92628471261186,
13,2,4,2,0.111111111111111,3.10526315789474,2,0.25,0.298245614035088,2,0.694444444444444,0.298245614035088,ReadingArea_rsl2-rcl11-esl310-rsm2-rcm25-esm29-rsr2-rcr69-esr29,exr/ReadingArea_rsl2-rcl11-esl310-rsm2-rcm25-esm29-rsr2-rcr69-esr29.exr,ReadingArea_rsl2-rcl11-esl310-rsm2-rcm25-esm29-rsr2-rcr69-esr29.npz,,,,,0,146,146,307,,left,green,2.89,1385.991660118103,1386.4760420322418,2,,4,10,brightness,readingArea,realistic,75,2023-03-30_10h26.40.988,tripletExp_regina_11082022,2022.2.4,120.92628471261186,
0,14,11,2,0.027777777777778,0.298245614035088,2,0.25,3.10526315789474,2,1.0,1.0,ReadingArea_rsl2-rcl2-esl29-rsm2-rcm25-esm310-rsr2-rcr100-esr100,exr/ReadingArea_rsl2-rcl2-esl29-rsm2-rcm25-esm310-rsr2-rcr100-esr100.exr,ReadingArea_rsl2-rcl2-esl29-rsm2-rcm25-esm310-rsr2-rcr100-esr100.npz,,,,,0,147,147,557,,right,red,2.17,1389.9439990520475,1390.4364821910858,2,,4,10,brightness,readingArea,realistic,75,2023-03-30_10h26.40.988,tripletExp_regina_11082022,2022.2.4,120.92628471261186,
10,11,9,2,0.694444444444444,1.0,2,1.0,1.0,2,0.444444444444444,1.0,ReadingArea_rsl2-rcl69-esl100-rsm2-rcm100-esm100-rsr2-rcr44-esr100,exr/ReadingArea_rsl2-rcl69-esl100-rsm2-rcm100-esm100-rsr2-rcr44-esr100.exr,ReadingArea_rsl2-rcl69-esl100-rsm2-rcm100-esm100-rsr2-rcr44-esr100.npz,,,,,0,148,148,492,,left,green,2.84,1393.8911571502686,1394.374123096466,2,,4,10,brightness,readingArea,realistic,75,2023-03-30_10h26.40.988,tripletExp_regina_11082022,2022.2.4,120.92628471261186,
9,13,0,2,0.444444444444444,1.0,2,0.111111111111111,3.10526315789474,2,0.027777777777778,0.298245614035088,ReadingArea_rsl2-rcl44-esl100-rsm2-rcm11-esm310-rsr2-rcr2-esr29,exr/ReadingArea_rsl2-rcl44-esl100-rsm2-rcm11-esm310-rsr2-rcr2-esr29.exr,ReadingArea_rsl2-rcl44-esl100-rsm2-rcm11-esm310-rsr2-rcr2-esr29.npz,,,,,0,149,149,205,,left,green,2.17,1397.8389291763306,1398.0430800914764,2,,4,10,brightness,readingArea,realistic,75,2023-03-30_10h26.40.988,tripletExp_regina_11082022,2022.2.4,120.92628471261186,
4,1,9,2,0.694444444444444,0.298245614035088,2,0.111111111111111,0.298245614035088,2,0.444444444444444,1.0,ReadingArea_rsl2-rcl69-esl29-rsm2-rcm11-esm29-rsr2-rcr44-esr100,exr/ReadingArea_rsl2-rcl69-esl29-rsm2-rcm11-esm29-rsr2-rcr44-esr100.exr,ReadingArea_rsl2-rcl69-esl29-rsm2-rcm11-esm29-rsr2-rcr44-esr100.npz,,,,,0,150,150,7,,left,green,2.39,1495.6227040290833,1496.089229106903,3,,4,10,brightness,readingArea,realistic,75,2023-03-30_10h26.40.988,tripletExp_regina_11082022,2022.2.4,120.92628471261186,
7,14,11,2,0.111111111111111,1.0,2,0.25,3.10526315789474,2,1.0,1.0,ReadingArea_rsl2-rcl11-esl100-rsm2-rcm25-esm310-rsr2-rcr100-esr100,exr/ReadingArea_rsl2-rcl11-esl100-rsm2-rcm25-esm310-rsr2-rcr100-esr100.exr,ReadingArea_rsl2-rcl11-esl100-rsm2-rcm25-esm310-rsr2-rcr100-esr100.npz,,,,,0,151,151,252,,right,red,2.63,1499.581425189972,1500.0700709819794,3,,4,10,brightness,readingArea,realistic,75,2023-03-30_10h26.40.988,tripletExp_regina_11082022,2022.2.4,120.92628471261186,
0,7,13,2,0.027777777777778,0.298245614035088,2,0.111111111111111,1.0,2,0.111111111111111,3.10526315789474,ReadingArea_rsl2-rcl2-esl29-rsm2-rcm11-esm100-rsr2-rcr11-esr310,exr/ReadingArea_rsl2-rcl2-esl29-rsm2-rcm11-esm100-rsr2-rcr11-esr310.exr,ReadingArea_rsl2-rcl2-esl29-rsm2-rcm11-esm100-rsr2-rcr11-esr310.npz,,,,,0,152,152,159,,right,red,2.12,1503.5269651412964,1503.9951651096344,3,,4,10,brightness,readingArea,realistic,75,2023-03-30_10h26.40.988,tripletExp_regina_11082022,2022.2.4,120.92628471261186,
12,3,0,2,0.027777777777778,3.10526315789474,2,0.444444444444444,0.298245614035088,2,0.027777777777778,0.298245614035088,ReadingArea_rsl2-rcl2-esl310-rsm2-rcm44-esm29-rsr2-rcr2-esr29,exr/ReadingArea_rsl2-rcl2-esl310-rsm2-rcm44-esm29-rsr2-rcr2-esr29.exr,ReadingArea_rsl2-rcl2-esl310-rsm2-rcm44-esm29-rsr2-rcr2-esr29.npz,,,,,0,153,153,502,,left,green,2.22,1507.45481300354,1507.9820561408997,3,,4,10,brightness,readingArea,realistic,75,2023-03-30_10h26.40.988,tripletExp_regina_11082022,2022.2.4,120.92628471261186,
4,7,5,2,0.694444444444444,0.298245614035088,2,0.111111111111111,1.0,2,1.0,0.298245614035088,ReadingArea_rsl2-rcl69-esl29-rsm2-rcm11-esm100-rsr2-rcr100-esr29,exr/ReadingArea_rsl2-rcl69-esl29-rsm2-rcm11-esm100-rsr2-rcr100-esr29.exr,ReadingArea_rsl2-rcl69-esl29-rsm2-rcm11-esm100-rsr2-rcr100-esr29.npz,,,,,0,154,154,195,,left,green,2.28,1511.4389040470123,1511.9212729930878,3,,4,10,brightness,readingArea,realistic,75,2023-03-30_10h26.40.988,tripletExp_regina_11082022,2022.2.4,120.92628471261186,
10,3,0,2,0.694444444444444,1.0,2,0.444444444444444,0.298245614035088,2,0.027777777777778,0.298245614035088,ReadingArea_rsl2-rcl69-esl100-rsm2-rcm44-esm29-rsr2-rcr2-esr29,exr/ReadingArea_rsl2-rcl69-esl100-rsm2-rcm44-esm29-rsr2-rcr2-esr29.exr,ReadingArea_rsl2-rcl69-esl100-rsm2-rcm44-esm29-rsr2-rcr2-esr29.npz,,,,,0,155,155,203,,left,green,3.58,1515.3777132034302,1515.8660671710968,3,,4,10,brightness,readingArea,realistic,75,2023-03-30_10h26.40.988,tripletExp_regina_11082022,2022.2.4,120.92628471261186,
8,6,0,2,0.25,1.0,2,0.027777777777778,1.0,2,0.027777777777778,0.298245614035088,ReadingArea_rsl2-rcl25-esl100-rsm2-rcm2-esm100-rsr2-rcr2-esr29,exr/ReadingArea_rsl2-rcl25-esl100-rsm2-rcm2-esm100-rsr2-rcr2-esr29.exr,ReadingArea_rsl2-rcl25-esl100-rsm2-rcm2-esm100-rsr2-rcr2-esr29.npz,,,,,0,156,156,187,,right,red,2.18,1519.3442749977112,1519.8370320796969,3,,4,10,brightness,readingArea,realistic,75,2023-03-30_10h26.40.988,tripletExp_regina_11082022,2022.2.4,120.92628471261186,
9,6,11,2,0.444444444444444,1.0,2,0.027777777777778,1.0,2,1.0,1.0,ReadingArea_rsl2-rcl44-esl100-rsm2-rcm2-esm100-rsr2-rcr100-esr100,exr/ReadingArea_rsl2-rcl44-esl100-rsm2-rcm2-esm100-rsr2-rcr100-esr100.exr,ReadingArea_rsl2-rcl44-esl100-rsm2-rcm2-esm100-rsr2-rcr100-esr100.npz,,,,,0,157,157,572,,left,green,2.19,1523.301244020462,1523.794515132904,3,,4,10,brightness,readingArea,realistic,75,2023-03-30_10h26.40.988,tripletExp_regina_11082022,2022.2.4,120.92628471261186,
8,12,3,2,0.25,1.0,2,0.027777777777778,3.10526315789474,2,0.444444444444444,0.298245614035088,ReadingArea_rsl2-rcl25-esl100-rsm2-rcm2-esm310-rsr2-rcr44-esr29,exr/ReadingArea_rsl2-rcl25-esl100-rsm2-rcm2-esm310-rsr2-rcr44-esr29.exr,ReadingArea_rsl2-rcl25-esl100-rsm2-rcm2-esm310-rsr2-rcr44-esr29.npz,,,,,0,158,158,6,,left,green,2.3,1527.255422115326,1527.740650177002,3,,4,10,brightness,readingArea,realistic,75,2023-03-30_10h26.40.988,tripletExp_regina_11082022,2022.2.4,120.92628471261186,
6,0,11,2,0.027777777777778,1.0,2,0.027777777777778,0.298245614035088,2,1.0,1.0,ReadingArea_rsl2-rcl2-esl100-rsm2-rcm2-esm29-rsr2-rcr100-esr100,exr/ReadingArea_rsl2-rcl2-esl100-rsm2-rcm2-esm29-rsr2-rcr100-esr100.exr,ReadingArea_rsl2-rcl2-esl100-rsm2-rcm2-esm29-rsr2-rcr100-esr100.npz,,,,,0,159,159,245,,left,green,2.12,1531.2238750457764,,3,,4,10,brightness,readingArea,realistic,75,2023-03-30_10h26.40.988,tripletExp_regina_11082022,2022.2.4,120.92628471261186,
14,0,3,2,0.25,3.10526315789474,2,0.027777777777778,0.298245614035088,2,0.444444444444444,0.298245614035088,ReadingArea_rsl2-rcl25-esl310-rsm2-rcm2-esm29-rsr2-rcr44-esr29,exr/ReadingArea_rsl2-rcl25-esl310-rsm2-rcm2-esm29-rsr2-rcr44-esr29.exr,ReadingArea_rsl2-rcl25-esl310-rsm2-rcm2-esm29-rsr2-rcr44-esr29.npz,,,,,0,160,160,75,,right,red,2.12,1535.1910841464996,,3,,4,10,brightness,readingArea,realistic,75,2023-03-30_10h26.40.988,tripletExp_regina_11082022,2022.2.4,120.92628471261186,
6,7,3,2,0.027777777777778,1.0,2,0.111111111111111,1.0,2,0.444444444444444,0.298245614035088,ReadingArea_rsl2-rcl2-esl100-rsm2-rcm11-esm100-rsr2-rcr44-esr29,exr/ReadingArea_rsl2-rcl2-esl100-rsm2-rcm11-esm100-rsr2-rcr44-esr29.exr,ReadingArea_rsl2-rcl2-esl100-rsm2-rcm11-esm100-rsr2-rcr44-esr29.npz,,,,,0,161,161,47,,right,red,2.28,1539.167929172516,1539.6597821712494,3,,4,10,brightness,readingArea,realistic,75,2023-03-30_10h26.40.988,tripletExp_regina_11082022,2022.2.4,120.92628471261186,
3,12,14,2,0.444444444444444,0.298245614035088,2,0.027777777777778,3.10526315789474,2,0.25,3.10526315789474,ReadingArea_rsl2-rcl44-esl29-rsm2-rcm2-esm310-rsr2-rcr25-esr310,exr/ReadingArea_rsl2-rcl44-esl29-rsm2-rcm2-esm310-rsr2-rcr25-esr310.exr,ReadingArea_rsl2-rcl44-esl29-rsm2-rcm2-esm310-rsr2-rcr25-esr310.npz,,,,,0,162,162,16,,left,green,2.33,1543.1201419830322,1543.5994091033936,3,,4,10,brightness,readingArea,realistic,75,2023-03-30_10h26.40.988,tripletExp_regina_11082022,2022.2.4,120.92628471261186,
3,4,13,2,0.444444444444444,0.298245614035088,2,0.694444444444444,0.298245614035088,2,0.111111111111111,3.10526315789474,ReadingArea_rsl2-rcl44-esl29-rsm2-rcm69-esm29-rsr2-rcr11-esr310,exr/ReadingArea_rsl2-rcl44-esl29-rsm2-rcm69-esm29-rsr2-rcr11-esr310.exr,ReadingArea_rsl2-rcl44-esl29-rsm2-rcm69-esm29-rsr2-rcr11-esr310.npz,,,,,0,163,163,63,,right,red,2.89,1547.053467988968,1547.516751050949,3,,4,10,brightness,readingArea,realistic,75,2023-03-30_10h26.40.988,tripletExp_regina_11082022,2022.2.4,120.92628471261186,
14,11,4,2,0.25,3.10526315789474,2,1.0,1.0,2,0.694444444444444,0.298245614035088,ReadingArea_rsl2-rcl25-esl310-rsm2-rcm100-esm100-rsr2-rcr69-esr29,exr/ReadingArea_rsl2-rcl25-esl310-rsm2-rcm100-esm100-rsr2-rcr69-esr29.exr,ReadingArea_rsl2-rcl25-esl310-rsm2-rcm100-esm100-rsr2-rcr69-esr29.npz,,,,,0,164,164,370,,left,green,2.14,1550.9745380878448,1551.4682161808014,3,,4,10,brightness,readingArea,realistic,75,2023-03-30_10h26.40.988,tripletExp_regina_11082022,2022.2.4,120.92628471261186,
5,0,10,2,1.0,0.298245614035088,2,0.027777777777778,0.298245614035088,2,0.694444444444444,1.0,ReadingArea_rsl2-rcl100-esl29-rsm2-rcm2-esm29-rsr2-rcr69-esr100,exr/ReadingArea_rsl2-rcl100-esl29-rsm2-rcm2-esm29-rsr2-rcr69-esr100.exr,ReadingArea_rsl2-rcl100-esl29-rsm2-rcm2-esm29-rsr2-rcr69-esr100.npz,,,,,0,165,165,361,,left,green,2.23,1554.926211118698,1555.4008831977844,3,,4,10,brightness,readingArea,realistic,75,2023-03-30_10h26.40.988,tripletExp_regina_11082022,2022.2.4,120.92628471261186,
11,1,4,2,1.0,1.0,2,0.111111111111111,0.298245614035088,2,0.694444444444444,0.298245614035088,ReadingArea_rsl2-rcl100-esl100-rsm2-rcm11-esm29-rsr2-rcr69-esr29,exr/ReadingArea_rsl2-rcl100-esl100-rsm2-rcm11-esm29-rsr2-rcr69-esr29.exr,ReadingArea_rsl2-rcl100-esl100-rsm2-rcm11-esm29-rsr2-rcr69-esr29.npz,,,,,0,166,166,110,,right,red,2.36,1558.8534200191498,,3,,4,10,brightness,readingArea,realistic,75,2023-03-30_10h26.40.988,tripletExp_regina_11082022,2022.2.4,120.92628471261186,
3,0,4,2,0.444444444444444,0.298245614035088,2,0.027777777777778,0.298245614035088,2,0.694444444444444,0.298245614035088,ReadingArea_rsl2-rcl44-esl29-rsm2-rcm2-esm29-rsr2-rcr69-esr29,exr/ReadingArea_rsl2-rcl44-esl29-rsm2-rcm2-esm29-rsr2-rcr69-esr29.exr,ReadingArea_rsl2-rcl44-esl29-rsm2-rcm2-esm29-rsr2-rcr69-esr29.npz,,,,,0,167,167,111,,left,green,2.49,1562.9148890972135,1563.4095439910889,3,,4,10,brightness,readingArea,realistic,75,2023-03-30_10h26.40.988,tripletExp_regina_11082022,2022.2.4,120.92628471261186,
4,2,13,2,0.694444444444444,0.298245614035088,2,0.25,0.298245614035088,2,0.111111111111111,3.10526315789474,ReadingArea_rsl2-rcl69-esl29-rsm2-rcm25-esm29-rsr2-rcr11-esr310,exr/ReadingArea_rsl2-rcl69-esl29-rsm2-rcm25-esm29-rsr2-rcr11-esr310.exr,ReadingArea_rsl2-rcl69-esl29-rsm2-rcm25-esm29-rsr2-rcr11-esr310.npz,,,,,0,168,168,304,,right,red,4.73,1568.6180791854858,1569.1338551044464,3,,4,10,brightness,readingArea,realistic,75,2023-03-30_10h26.40.988,tripletExp_regina_11082022,2022.2.4,120.92628471261186,
9,11,3,2,0.444444444444444,1.0,2,1.0,1.0,2,0.444444444444444,0.298245614035088,ReadingArea_rsl2-rcl44-esl100-rsm2-rcm100-esm100-rsr2-rcr44-esr29,exr/ReadingArea_rsl2-rcl44-esl100-rsm2-rcm100-esm100-rsr2-rcr44-esr29.exr,ReadingArea_rsl2-rcl44-esl100-rsm2-rcm100-esm100-rsr2-rcr44-esr29.npz,,,,,0,169,169,348,,left,green,2.52,1572.5963850021362,1573.0772380828855,3,,4,10,brightness,readingArea,realistic,75,2023-03-30_10h26.40.988,tripletExp_regina_11082022,2022.2.4,120.92628471261186,
1,11,14,2,0.111111111111111,0.298245614035088,2,1.0,1.0,2,0.25,3.10526315789474,ReadingArea_rsl2-rcl11-esl29-rsm2-rcm100-esm100-rsr2-rcr25-esr310,exr/ReadingArea_rsl2-rcl11-esl29-rsm2-rcm100-esm100-rsr2-rcr25-esr310.exr,ReadingArea_rsl2-rcl11-esl29-rsm2-rcm100-esm100-rsr2-rcr25-esr310.npz,,,,,0,170,170,399,,right,red,2.17,1576.5534331798551,1577.034835100174,3,,4,10,brightness,readingArea,realistic,75,2023-03-30_10h26.40.988,tripletExp_regina_11082022,2022.2.4,120.92628471261186,
6,0,10,2,0.027777777777778,1.0,2,0.027777777777778,0.298245614035088,2,0.694444444444444,1.0,ReadingArea_rsl2-rcl2-esl100-rsm2-rcm2-esm29-rsr2-rcr69-esr100,exr/ReadingArea_rsl2-rcl2-esl100-rsm2-rcm2-esm29-rsr2-rcr69-esr100.exr,ReadingArea_rsl2-rcl2-esl100-rsm2-rcm2-esm29-rsr2-rcr69-esr100.npz,,,,,0,171,171,532,,left,green,2.1,1580.4924280643463,1581.017834186554,3,,4,10,brightness,readingArea,realistic,75,2023-03-30_10h26.40.988,tripletExp_regina_11082022,2022.2.4,120.92628471261186,
6,12,0,2,0.027777777777778,1.0,2,0.027777777777778,3.10526315789474,2,0.027777777777778,0.298245614035088,ReadingArea_rsl2-rcl2-esl100-rsm2-rcm2-esm310-rsr2-rcr2-esr29,exr/ReadingArea_rsl2-rcl2-esl100-rsm2-rcm2-esm310-rsr2-rcr2-esr29.exr,ReadingArea_rsl2-rcl2-esl100-rsm2-rcm2-esm310-rsr2-rcr2-esr29.npz,,,,,0,172,172,23,,left,green,2.23,1584.4790279865265,1584.960347175598,3,,4,10,brightness,readingArea,realistic,75,2023-03-30_10h26.40.988,tripletExp_regina_11082022,2022.2.4,120.92628471261186,
10,7,13,2,0.694444444444444,1.0,2,0.111111111111111,1.0,2,0.111111111111111,3.10526315789474,ReadingArea_rsl2-rcl69-esl100-rsm2-rcm11-esm100-rsr2-rcr11-esr310,exr/ReadingArea_rsl2-rcl69-esl100-rsm2-rcm11-esm100-rsr2-rcr11-esr310.exr,ReadingArea_rsl2-rcl69-esl100-rsm2-rcm11-esm100-rsr2-rcr11-esr310.npz,,,,,0,173,173,379,,right,red,2.44,1588.4331800937653,,3,,4,10,brightness,readingArea,realistic,75,2023-03-30_10h26.40.988,tripletExp_regina_11082022,2022.2.4,120.92628471261186,
7,12,3,2,0.111111111111111,1.0,2,0.027777777777778,3.10526315789474,2,0.444444444444444,0.298245614035088,ReadingArea_rsl2-rcl11-esl100-rsm2-rcm2-esm310-rsr2-rcr44-esr29,exr/ReadingArea_rsl2-rcl11-esl100-rsm2-rcm2-esm310-rsr2-rcr44-esr29.exr,ReadingArea_rsl2-rcl11-esl100-rsm2-rcm2-esm310-rsr2-rcr44-esr29.npz,,,,,0,174,174,584,,left,green,2.17,1592.3845131397247,1592.887813091278,3,,4,10,brightness,readingArea,realistic,75,2023-03-30_10h26.40.988,tripletExp_regina_11082022,2022.2.4,120.92628471261186,
14,10,13,2,0.25,3.10526315789474,2,0.694444444444444,1.0,2,0.111111111111111,3.10526315789474,ReadingArea_rsl2-rcl25-esl310-rsm2-rcm69-esm100-rsr2-rcr11-esr310,exr/ReadingArea_rsl2-rcl25-esl310-rsm2-rcm69-esm100-rsr2-rcr11-esr310.exr,ReadingArea_rsl2-rcl25-esl310-rsm2-rcm69-esm100-rsr2-rcr11-esr310.npz,,,,,0,175,175,204,,left,green,3.78,1598.113825082779,1598.6166620254517,3,,4,10,brightness,readingArea,realistic,75,2023-03-30_10h26.40.988,tripletExp_regina_11082022,2022.2.4,120.92628471261186,
14,9,0,2,0.25,3.10526315789474,2,0.444444444444444,1.0,2,0.027777777777778,0.298245614035088,ReadingArea_rsl2-rcl25-esl310-rsm2-rcm44-esm100-rsr2-rcr2-esr29,exr/ReadingArea_rsl2-rcl25-esl310-rsm2-rcm44-esm100-rsr2-rcr2-esr29.exr,ReadingArea_rsl2-rcl25-esl310-rsm2-rcm44-esm100-rsr2-rcr2-esr29.npz,,,,,0,176,176,313,,left,green,2.04,1602.0672540664673,1602.5515019893646,3,,4,10,brightness,readingArea,realistic,75,2023-03-30_10h26.40.988,tripletExp_regina_11082022,2022.2.4,120.92628471261186,
11,7,12,2,1.0,1.0,2,0.111111111111111,1.0,2,0.027777777777778,3.10526315789474,ReadingArea_rsl2-rcl100-esl100-rsm2-rcm11-esm100-rsr2-rcr2-esr310,exr/ReadingArea_rsl2-rcl100-esl100-rsm2-rcm11-esm100-rsr2-rcr2-esr310.exr,ReadingArea_rsl2-rcl100-esl100-rsm2-rcm11-esm100-rsr2-rcr2-esr310.npz,,,,,0,177,177,352,,right,red,2.03,1606.0090851783752,1606.5238950252533,3,,4,10,brightness,readingArea,realistic,75,2023-03-30_10h26.40.988,tripletExp_regina_11082022,2022.2.4,120.92628471261186,
6,3,1,2,0.027777777777778,1.0,2,0.444444444444444,0.298245614035088,2,0.111111111111111,0.298245614035088,ReadingArea_rsl2-rcl2-esl100-rsm2-rcm44-esm29-rsr2-rcr11-esr29,exr/ReadingArea_rsl2-rcl2-esl100-rsm2-rcm44-esm29-rsr2-rcr11-esr29.exr,ReadingArea_rsl2-rcl2-esl100-rsm2-rcm44-esm29-rsr2-rcr11-esr29.npz,,,,,0,178,178,430,,right,red,2.45,1609.9837350845337,1610.466607093811,3,,4,10,brightness,readingArea,realistic,75,2023-03-30_10h26.40.988,tripletExp_regina_11082022,2022.2.4,120.92628471261186,
2,6,12,2,0.25,0.298245614035088,2,0.027777777777778,1.0,2,0.027777777777778,3.10526315789474,ReadingArea_rsl2-rcl25-esl29-rsm2-rcm2-esm100-rsr2-rcr2-esr310,exr/ReadingArea_rsl2-rcl25-esl29-rsm2-rcm2-esm100-rsr2-rcr2-esr310.exr,ReadingArea_rsl2-rcl25-esl29-rsm2-rcm2-esm100-rsr2-rcr2-esr310.npz,,,,,0,179,179,97,,right,red,3.68,1615.684576034546,1616.2685251235962,3,,4,10,brightness,readingArea,realistic,75,2023-03-30_10h26.40.988,tripletExp_regina_11082022,2022.2.4,120.92628471261186,
8,10,7,2,0.25,1.0,2,0.694444444444444,1.0,2,0.111111111111111,1.0,ReadingArea_rsl2-rcl25-esl100-rsm2-rcm69-esm100-rsr2-rcr11-esr100,exr/ReadingArea_rsl2-rcl25-esl100-rsm2-rcm69-esm100-rsr2-rcr11-esr100.exr,ReadingArea_rsl2-rcl25-esl100-rsm2-rcm69-esm100-rsr2-rcr11-esr100.npz,,,,,0,180,180,424,,left,green,3.91,1621.469250202179,1622.0116600990295,3,,4,10,brightness,readingArea,realistic,75,2023-03-30_10h26.40.988,tripletExp_regina_11082022,2022.2.4,120.92628471261186,
14,5,9,2,0.25,3.10526315789474,2,1.0,0.298245614035088,2,0.444444444444444,1.0,ReadingArea_rsl2-rcl25-esl310-rsm2-rcm100-esm29-rsr2-rcr44-esr100,exr/ReadingArea_rsl2-rcl25-esl310-rsm2-rcm100-esm29-rsr2-rcr44-esr100.exr,ReadingArea_rsl2-rcl25-esl310-rsm2-rcm100-esm29-rsr2-rcr44-esr100.npz,,,,,0,181,181,482,,right,red,2.88,1625.473533153534,1625.9731810092926,3,,4,10,brightness,readingArea,realistic,75,2023-03-30_10h26.40.988,tripletExp_regina_11082022,2022.2.4,120.92628471261186,
8,4,2,2,0.25,1.0,2,0.694444444444444,0.298245614035088,2,0.25,0.298245614035088,ReadingArea_rsl2-rcl25-esl100-rsm2-rcm69-esm29-rsr2-rcr25-esr29,exr/ReadingArea_rsl2-rcl25-esl100-rsm2-rcm69-esm29-rsr2-rcr25-esr29.exr,ReadingArea_rsl2-rcl25-esl100-rsm2-rcm69-esm29-rsr2-rcr25-esr29.npz,,,,,0,182,182,184,,left,green,3.86,1631.1925330162048,1631.7061350345612,3,,4,10,brightness,readingArea,realistic,75,2023-03-30_10h26.40.988,tripletExp_regina_11082022,2022.2.4,120.92628471261186,
0,10,12,2,0.027777777777778,0.298245614035088,2,0.694444444444444,1.0,2,0.027777777777778,3.10526315789474,ReadingArea_rsl2-rcl2-esl29-rsm2-rcm69-esm100-rsr2-rcr2-esr310,exr/ReadingArea_rsl2-rcl2-esl29-rsm2-rcm69-esm100-rsr2-rcr2-esr310.exr,ReadingArea_rsl2-rcl2-esl29-rsm2-rcm69-esm100-rsr2-rcr2-esr310.npz,,,,,0,183,183,531,,right,red,2.32,1635.1518831253052,1635.660650014877,3,,4,10,brightness,readingArea,realistic,75,2023-03-30_10h26.40.988,tripletExp_regina_11082022,2022.2.4,120.92628471261186,
0,13,1,2,0.027777777777778,0.298245614035088,2,0.111111111111111,3.10526315789474,2,0.111111111111111,0.298245614035088,ReadingArea_rsl2-rcl2-esl29-rsm2-rcm11-esm310-rsr2-rcr11-esr29,exr/ReadingArea_rsl2-rcl2-esl29-rsm2-rcm11-esm310-rsr2-rcr11-esr29.exr,ReadingArea_rsl2-rcl2-esl29-rsm2-rcm11-esm310-rsr2-rcr11-esr29.npz,,,,,0,184,184,458,,right,red,3.86,1640.8964581489563,1641.3780281543732,3,,4,10,brightness,readingArea,realistic,75,2023-03-30_10h26.40.988,tripletExp_regina_11082022,2022.2.4,120.92628471261186,
2,1,3,2,0.25,0.298245614035088,2,0.111111111111111,0.298245614035088,2,0.444444444444444,0.298245614035088,ReadingArea_rsl2-rcl25-esl29-rsm2-rcm11-esm29-rsr2-rcr44-esr29,exr/ReadingArea_rsl2-rcl25-esl29-rsm2-rcm11-esm29-rsr2-rcr44-esr29.exr,ReadingArea_rsl2-rcl25-esl29-rsm2-rcm11-esm29-rsr2-rcr44-esr29.npz,,,,,0,185,185,85,,left,green,2.3,1644.8257400989532,1645.3036580085754,3,,4,10,brightness,readingArea,realistic,75,2023-03-30_10h26.40.988,tripletExp_regina_11082022,2022.2.4,120.92628471261186,
12,3,11,2,0.027777777777778,3.10526315789474,2,0.444444444444444,0.298245614035088,2,1.0,1.0,ReadingArea_rsl2-rcl2-esl310-rsm2-rcm44-esm29-rsr2-rcr100-esr100,exr/ReadingArea_rsl2-rcl2-esl310-rsm2-rcm44-esm29-rsr2-rcr100-esr100.exr,ReadingArea_rsl2-rcl2-esl310-rsm2-rcm44-esm29-rsr2-rcr100-esr100.npz,,,,,0,186,186,83,,left,green,3.53,1648.7694520950315,1649.262578010559,3,,4,10,brightness,readingArea,realistic,75,2023-03-30_10h26.40.988,tripletExp_regina_11082022,2022.2.4,120.92628471261186,
11,8,0,2,1.0,1.0,2,0.25,1.0,2,0.027777777777778,0.298245614035088,ReadingArea_rsl2-rcl100-esl100-rsm2-rcm25-esm100-rsr2-rcr2-esr29,exr/ReadingArea_rsl2-rcl100-esl100-rsm2-rcm25-esm100-rsr2-rcr2-esr29.exr,ReadingArea_rsl2-rcl100-esl100-rsm2-rcm25-esm100-rsr2-rcr2-esr29.npz,,,,,0,187,187,81,,left,green,4.23,1654.481656074524,1654.972411155701,3,,4,10,brightness,readingArea,realistic,75,2023-03-30_10h26.40.988,tripletExp_regina_11082022,2022.2.4,120.92628471261186,
13,10,9,2,0.111111111111111,3.10526315789474,2,0.694444444444444,1.0,2,0.444444444444444,1.0,ReadingArea_rsl2-rcl11-esl310-rsm2-rcm69-esm100-rsr2-rcr44-esr100,exr/ReadingArea_rsl2-rcl11-esl310-rsm2-rcm69-esm100-rsr2-rcr44-esr100.exr,ReadingArea_rsl2-rcl11-esl310-rsm2-rcm69-esm100-rsr2-rcr44-esr100.npz,,,,,0,188,188,330,,right,red,2.87,1658.426862001419,,3,,4,10,brightness,readingArea,realistic,75,2023-03-30_10h26.40.988,tripletExp_regina_11082022,2022.2.4,120.92628471261186,
12,8,6,2,0.027777777777778,3.10526315789474,2,0.25,1.0,2,0.027777777777778,1.0,ReadingArea_rsl2-rcl2-esl310-rsm2-rcm25-esm100-rsr2-rcr2-esr100,exr/ReadingArea_rsl2-rcl2-esl310-rsm2-rcm25-esm100-rsr2-rcr2-esr100.exr,ReadingArea_rsl2-rcl2-esl310-rsm2-rcm25-esm100-rsr2-rcr2-esr100.npz,,,,,0,189,189,281,,left,green,3.2,1662.3748099803925,1662.841164112091,3,,4,10,brightness,readingArea,realistic,75,2023-03-30_10h26.40.988,tripletExp_regina_11082022,2022.2.4,120.92628471261186,
6,3,13,2,0.027777777777778,1.0,2,0.444444444444444,0.298245614035088,2,0.111111111111111,3.10526315789474,ReadingArea_rsl2-rcl2-esl100-rsm2-rcm44-esm29-rsr2-rcr11-esr310,exr/ReadingArea_rsl2-rcl2-esl100-rsm2-rcm44-esm29-rsr2-rcr11-esr310.exr,ReadingArea_rsl2-rcl2-esl100-rsm2-rcm44-esm29-rsr2-rcr11-esr310.npz,,,,,0,190,190,228,,right,red,2.15,1666.293466091156,1666.774718999863,3,,4,10,brightness,readingArea,realistic,75,2023-03-30_10h26.40.988,tripletExp_regina_11082022,2022.2.4,120.92628471261186,
4,5,1,2,0.694444444444444,0.298245614035088,2,1.0,0.298245614035088,2,0.111111111111111,0.298245614035088,ReadingArea_rsl2-rcl69-esl29-rsm2-rcm100-esm29-rsr2-rcr11-esr29,exr/ReadingArea_rsl2-rcl69-esl29-rsm2-rcm100-esm29-rsr2-rcr11-esr29.exr,ReadingArea_rsl2-rcl69-esl29-rsm2-rcm100-esm29-rsr2-rcr11-esr29.npz,,,,,0,191,191,240,,left,green,2.04,1670.2240769863129,1670.7167961597445,3,,4,10,brightness,readingArea,realistic,75,2023-03-30_10h26.40.988,tripletExp_regina_11082022,2022.2.4,120.92628471261186,
11,14,2,2,1.0,1.0,2,0.25,3.10526315789474,2,0.25,0.298245614035088,ReadingArea_rsl2-rcl100-esl100-rsm2-rcm25-esm310-rsr2-rcr25-esr29,exr/ReadingArea_rsl2-rcl100-esl100-rsm2-rcm25-esm310-rsr2-rcr25-esr29.exr,ReadingArea_rsl2-rcl100-esl100-rsm2-rcm25-esm310-rsr2-rcr25-esr29.npz,,,,,0,192,192,419,,left,green,2.03,1674.163269996643,,3,,4,10,brightness,readingArea,realistic,75,2023-03-30_10h26.40.988,tripletExp_regina_11082022,2022.2.4,120.92628471261186,
0,1,6,2,0.027777777777778,0.298245614035088,2,0.111111111111111,0.298245614035088,2,0.027777777777778,1.0,ReadingArea_rsl2-rcl2-esl29-rsm2-rcm11-esm29-rsr2-rcr2-esr100,exr/ReadingArea_rsl2-rcl2-esl29-rsm2-rcm11-esm29-rsr2-rcr2-esr100.exr,ReadingArea_rsl2-rcl2-esl29-rsm2-rcm11-esm29-rsr2-rcr2-esr100.npz,,,,,0,193,193,375,,right,red,2.18,1678.1508421897888,1678.64484500885,3,,4,10,brightness,readingArea,realistic,75,2023-03-30_10h26.40.988,tripletExp_regina_11082022,2022.2.4,120.92628471261186,
1,0,4,2,0.111111111111111,0.298245614035088,2,0.027777777777778,0.298245614035088,2,0.694444444444444,0.298245614035088,ReadingArea_rsl2-rcl11-esl29-rsm2-rcm2-esm29-rsr2-rcr69-esr29,exr/ReadingArea_rsl2-rcl11-esl29-rsm2-rcm2-esm29-rsr2-rcr69-esr29.exr,ReadingArea_rsl2-rcl11-esl29-rsm2-rcm2-esm29-rsr2-rcr69-esr29.npz,,,,,0,194,194,494,,left,green,2.75,1682.0974102020264,,3,,4,10,brightness,readingArea,realistic,75,2023-03-30_10h26.40.988,tripletExp_regina_11082022,2022.2.4,120.92628471261186,
0,9,10,2,0.027777777777778,0.298245614035088,2,0.444444444444444,1.0,2,0.694444444444444,1.0,ReadingArea_rsl2-rcl2-esl29-rsm2-rcm44-esm100-rsr2-rcr69-esr100,exr/ReadingArea_rsl2-rcl2-esl29-rsm2-rcm44-esm100-rsr2-rcr69-esr100.exr,ReadingArea_rsl2-rcl2-esl29-rsm2-rcm44-esm100-rsr2-rcr69-esr100.npz,,,,,0,195,195,434,,right,red,2.08,1686.0833790302277,1686.5801210403442,3,,4,10,brightness,readingArea,realistic,75,2023-03-30_10h26.40.988,tripletExp_regina_11082022,2022.2.4,120.92628471261186,
13,8,0,2,0.111111111111111,3.10526315789474,2,0.25,1.0,2,0.027777777777778,0.298245614035088,ReadingArea_rsl2-rcl11-esl310-rsm2-rcm25-esm100-rsr2-rcr2-esr29,exr/ReadingArea_rsl2-rcl11-esl310-rsm2-rcm25-esm100-rsr2-rcr2-esr29.exr,ReadingArea_rsl2-rcl11-esl310-rsm2-rcm25-esm100-rsr2-rcr2-esr29.npz,,,,,0,196,196,429,,left,green,2.04,1690.039686203003,1690.5390481948853,3,,4,10,brightness,readingArea,realistic,75,2023-03-30_10h26.40.988,tripletExp_regina_11082022,2022.2.4,120.92628471261186,
14,9,12,2,0.25,3.10526315789474,2,0.444444444444444,1.0,2,0.027777777777778,3.10526315789474,ReadingArea_rsl2-rcl25-esl310-rsm2-rcm44-esm100-rsr2-rcr2-esr310,exr/ReadingArea_rsl2-rcl25-esl310-rsm2-rcm44-esm100-rsr2-rcr2-esr310.exr,ReadingArea_rsl2-rcl25-esl310-rsm2-rcm44-esm100-rsr2-rcr2-esr310.npz,,,,,0,197,197,378,,left,green,2.12,1693.9889941215515,1694.7113740444183,3,,4,10,brightness,readingArea,realistic,75,2023-03-30_10h26.40.988,tripletExp_regina_11082022,2022.2.4,120.92628471261186,
14,13,6,2,0.25,3.10526315789474,2,0.111111111111111,3.10526315789474,2,0.027777777777778,1.0,ReadingArea_rsl2-rcl25-esl310-rsm2-rcm11-esm310-rsr2-rcr2-esr100,exr/ReadingArea_rsl2-rcl25-esl310-rsm2-rcm11-esm310-rsr2-rcr2-esr100.exr,ReadingArea_rsl2-rcl25-esl310-rsm2-rcm11-esm310-rsr2-rcr2-esr100.npz,,,,,0,198,198,102,,left,green,2.43,1698.184514045715,1698.6641211509705,3,,4,10,brightness,readingArea,realistic,75,2023-03-30_10h26.40.988,tripletExp_regina_11082022,2022.2.4,120.92628471261186,
4,5,8,2,0.694444444444444,0.298245614035088,2,1.0,0.298245614035088,2,0.25,1.0,ReadingArea_rsl2-rcl69-esl29-rsm2-rcm100-esm29-rsr2-rcr25-esr100,exr/ReadingArea_rsl2-rcl69-esl29-rsm2-rcm100-esm29-rsr2-rcr25-esr100.exr,ReadingArea_rsl2-rcl69-esl29-rsm2-rcm100-esm29-rsr2-rcr25-esr100.npz,,,,,0,199,199,54,,left,green,3.77,1703.9367001056671,1704.4185991287231,3,,4,10,brightness,readingArea,realistic,75,2023-03-30_10h26.40.988,tripletExp_regina_11082022,2022.2.4,120.92628471261186,
2,4,10,2,0.25,0.298245614035088,2,0.694444444444444,0.298245614035088,2,0.694444444444444,1.0,ReadingArea_rsl2-rcl25-esl29-rsm2-rcm69-esm29-rsr2-rcr69-esr100,exr/ReadingArea_rsl2-rcl25-esl29-rsm2-rcm69-esm29-rsr2-rcr69-esr100.exr,ReadingArea_rsl2-rcl25-esl29-rsm2-rcm69-esm29-rsr2-rcr69-esr100.npz,,,,,0,200,200,174,,left,green,4.52,1709.6764900684357,,3,,4,10,brightness,readingArea,realistic,75,2023-03-30_10h26.40.988,tripletExp_regina_11082022,2022.2.4,120.92628471261186,
6,4,10,2,0.027777777777778,1.0,2,0.694444444444444,0.298245614035088,2,0.694444444444444,1.0,ReadingArea_rsl2-rcl2-esl100-rsm2-rcm69-esm29-rsr2-rcr69-esr100,exr/ReadingArea_rsl2-rcl2-esl100-rsm2-rcm69-esm29-rsr2-rcr69-esr100.exr,ReadingArea_rsl2-rcl2-esl100-rsm2-rcm69-esm29-rsr2-rcr69-esr100.npz,,,,,0,201,201,554,,right,red,2.77,1713.6616950035095,1714.1406481266022,3,,4,10,brightness,readingArea,realistic,75,2023-03-30_10h26.40.988,tripletExp_regina_11082022,2022.2.4,120.92628471261186,
14,5,13,2,0.25,3.10526315789474,2,1.0,0.298245614035088,2,0.111111111111111,3.10526315789474,ReadingArea_rsl2-rcl25-esl310-rsm2-rcm100-esm29-rsr2-rcr11-esr310,exr/ReadingArea_rsl2-rcl25-esl310-rsm2-rcm100-esm29-rsr2-rcr11-esr310.exr,ReadingArea_rsl2-rcl25-esl310-rsm2-rcm100-esm29-rsr2-rcr11-esr310.npz,,,,,0,202,202,524,,right,red,3.85,1719.374643087387,1719.8615250587463,3,,4,10,brightness,readingArea,realistic,75,2023-03-30_10h26.40.988,tripletExp_regina_11082022,2022.2.4,120.92628471261186,
