index_left,index_middle,index_right,reflectance_surround_left,reflectance_center_left,emission_spot_left,reflectance_surround_middle,reflectance_center_middle,emission_spot_middle,reflectance_surround_right,reflectance_center_right,emission_spot_right,ImageName,ImageExr,ImageNpy,trials_2.thisRepN,trials_2.thisTrialN,trials_2.thisN,trials_2.thisIndex,trials.thisRepN,trials.thisTrialN,trials.thisN,trials.thisIndex,sound_1.started,BB_Trial.resp,BB_Trial.color,BB_Trial.rt,text.started,text.stopped,sound_1.stopped,block,sound_4.started,participant,session,L/B,scene,condition,nTrialsPerBlock,date,expName,psychopyVersion,frameRate
13,6,5,0,0.111111111111111,3.10526315789474,0,0.027777777777778,1.0,0,1.0,0.298245614035088,ReadingArea_rsl2-rcl11-esl310-rsm2-rcm2-esm100-rsr2-rcr100-esr29,exr/ReadingArea_rsl2-rcl11-esl310-rsm2-rcm2-esm100-rsr2-rcr100-esr29.exr,ReadingArea_rsl2-rcl11-esl310-rsm2-rcm2-esm100-rsr2-rcr100-esr29.npz,,,,,0,0,0,19,107.353307700157,left,green,3.27,117.627750873566,118.027228832245,87.6253769397736,1,,AS,2,lightness,readingArea,mean,72,2023-03-10_14h54.01.506,tripletExp_regina_11082022,2022.2.4,120.183729666381
3,12,2,0,0.444444444444444,0.298245614035088,0,0.027777777777778,3.10526315789474,0,0.25,0.298245614035088,ReadingArea_rsl2-rcl44-esl29-rsm2-rcm2-esm310-rsr2-rcr25-esr29,exr/ReadingArea_rsl2-rcl44-esl29-rsm2-rcm2-esm310-rsr2-rcr25-esr29.exr,ReadingArea_rsl2-rcl44-esl29-rsm2-rcm2-esm310-rsr2-rcr25-esr29.npz,,,,,0,1,1,338,,left,green,2.8,121.474225044251,121.790827035904,,1,,AS,2,lightness,readingArea,mean,72,2023-03-10_14h54.01.506,tripletExp_regina_11082022,2022.2.4,120.183729666381
2,11,9,0,0.25,0.298245614035088,0,1.0,1.0,0,0.444444444444444,1.0,ReadingArea_rsl2-rcl25-esl29-rsm2-rcm100-esm100-rsr2-rcr44-esr100,exr/ReadingArea_rsl2-rcl25-esl29-rsm2-rcm100-esm100-rsr2-rcr44-esr100.exr,ReadingArea_rsl2-rcl25-esl29-rsm2-rcm100-esm100-rsr2-rcr44-esr100.npz,,,,,0,2,2,493,,right,red,1.21,123.507489919662,123.880117893219,,1,,AS,2,lightness,readingArea,mean,72,2023-03-10_14h54.01.506,tripletExp_regina_11082022,2022.2.4,120.183729666381
10,5,13,0,0.694444444444444,1.0,0,1.0,0.298245614035088,0,0.111111111111111,3.10526315789474,ReadingArea_rsl2-rcl69-esl100-rsm2-rcm100-esm29-rsr2-rcr11-esr310,exr/ReadingArea_rsl2-rcl69-esl100-rsm2-rcm100-esm29-rsr2-rcr11-esr310.exr,ReadingArea_rsl2-rcl69-esl100-rsm2-rcm100-esm29-rsr2-rcr11-esr310.npz,,,,,0,3,3,71,,right,red,1.25,125.600354909897,125.933117866516,,1,,AS,2,lightness,readingArea,mean,72,2023-03-10_14h54.01.506,tripletExp_regina_11082022,2022.2.4,120.183729666381
7,8,3,0,0.111111111111111,1.0,0,0.25,1.0,0,0.444444444444444,0.298245614035088,ReadingArea_rsl2-rcl11-esl100-rsm2-rcm25-esm100-rsr2-rcr44-esr29,exr/ReadingArea_rsl2-rcl11-esl100-rsm2-rcm25-esm100-rsr2-rcr44-esr29.exr,ReadingArea_rsl2-rcl11-esl100-rsm2-rcm25-esm100-rsr2-rcr44-esr29.npz,,,,,0,4,4,271,,right,red,1.41,127.64333486557,127.991147994995,,1,,AS,2,lightness,readingArea,mean,72,2023-03-10_14h54.01.506,tripletExp_regina_11082022,2022.2.4,120.183729666381
3,11,2,0,0.444444444444444,0.298245614035088,0,1.0,1.0,0,0.25,0.298245614035088,ReadingArea_rsl2-rcl44-esl29-rsm2-rcm100-esm100-rsr2-rcr25-esr29,exr/ReadingArea_rsl2-rcl44-esl29-rsm2-rcm100-esm100-rsr2-rcr25-esr29.exr,ReadingArea_rsl2-rcl44-esl29-rsm2-rcm100-esm100-rsr2-rcr25-esr29.npz,,,,,0,5,5,190,,left,green,1.31,129.689800977707,,,1,,AS,2,lightness,readingArea,mean,72,2023-03-10_14h54.01.506,tripletExp_regina_11082022,2022.2.4,120.183729666381
0,11,13,0,0.027777777777778,0.298245614035088,0,1.0,1.0,0,0.111111111111111,3.10526315789474,ReadingArea_rsl2-rcl2-esl29-rsm2-rcm100-esm100-rsr2-rcr11-esr310,exr/ReadingArea_rsl2-rcl2-esl29-rsm2-rcm100-esm100-rsr2-rcr11-esr310.exr,ReadingArea_rsl2-rcl2-esl29-rsm2-rcm100-esm100-rsr2-rcr11-esr310.npz,,,,,0,6,6,296,,right,red,1.15,131.723400831223,,,1,,AS,2,lightness,readingArea,mean,72,2023-03-10_14h54.01.506,tripletExp_regina_11082022,2022.2.4,120.183729666381
5,2,12,0,1.0,0.298245614035088,0,0.25,0.298245614035088,0,0.027777777777778,3.10526315789474,ReadingArea_rsl2-rcl100-esl29-rsm2-rcm25-esm29-rsr2-rcr2-esr310,exr/ReadingArea_rsl2-rcl100-esl29-rsm2-rcm25-esm29-rsr2-rcr2-esr310.exr,ReadingArea_rsl2-rcl100-esl29-rsm2-rcm25-esm29-rsr2-rcr2-esr310.npz,,,,,0,7,7,475,,right,red,1.09,133.75608086586,134.172323942184,,1,,AS,2,lightness,readingArea,mean,72,2023-03-10_14h54.01.506,tripletExp_regina_11082022,2022.2.4,120.183729666381
5,6,0,0,1.0,0.298245614035088,0,0.027777777777778,1.0,0,0.027777777777778,0.298245614035088,ReadingArea_rsl2-rcl100-esl29-rsm2-rcm2-esm100-rsr2-rcr2-esr29,exr/ReadingArea_rsl2-rcl100-esl29-rsm2-rcm2-esm100-rsr2-rcr2-esr29.exr,ReadingArea_rsl2-rcl100-esl29-rsm2-rcm2-esm100-rsr2-rcr2-esr29.npz,,,,,0,8,8,67,,right,red,3.15,137.621912956238,137.962498903275,,1,,AS,2,lightness,readingArea,mean,72,2023-03-10_14h54.01.506,tripletExp_regina_11082022,2022.2.4,120.183729666381
2,7,10,0,0.25,0.298245614035088,0,0.111111111111111,1.0,0,0.694444444444444,1.0,ReadingArea_rsl2-rcl25-esl29-rsm2-rcm11-esm100-rsr2-rcr69-esr100,exr/ReadingArea_rsl2-rcl25-esl29-rsm2-rcm11-esm100-rsr2-rcr69-esr100.exr,ReadingArea_rsl2-rcl25-esl29-rsm2-rcm11-esm100-rsr2-rcr69-esr100.npz,,,,,0,9,9,423,,left,green,1.23,139.672312021256,140.103410959244,,1,,AS,2,lightness,readingArea,mean,72,2023-03-10_14h54.01.506,tripletExp_regina_11082022,2022.2.4,120.183729666381
7,1,9,0,0.111111111111111,1.0,0,0.111111111111111,0.298245614035088,0,0.444444444444444,1.0,ReadingArea_rsl2-rcl11-esl100-rsm2-rcm11-esm29-rsr2-rcr44-esr100,exr/ReadingArea_rsl2-rcl11-esl100-rsm2-rcm11-esm29-rsr2-rcr44-esr100.exr,ReadingArea_rsl2-rcl11-esl100-rsm2-rcm11-esm29-rsr2-rcr44-esr100.npz,,,,,0,10,10,410,,left,green,1.0,141.791646957397,,,1,,AS,2,lightness,readingArea,mean,72,2023-03-10_14h54.01.506,tripletExp_regina_11082022,2022.2.4,120.183729666381
2,0,14,0,0.25,0.298245614035088,0,0.027777777777778,0.298245614035088,0,0.25,3.10526315789474,ReadingArea_rsl2-rcl25-esl29-rsm2-rcm2-esm29-rsr2-rcr25-esr310,exr/ReadingArea_rsl2-rcl25-esl29-rsm2-rcm2-esm29-rsr2-rcr25-esr310.exr,ReadingArea_rsl2-rcl25-esl29-rsm2-rcm2-esm29-rsr2-rcr25-esr310.npz,,,,,0,11,11,362,,left,green,1.38,143.825886964798,144.176842927933,,1,,AS,2,lightness,readingArea,mean,72,2023-03-10_14h54.01.506,tripletExp_regina_11082022,2022.2.4,120.183729666381
4,7,13,0,0.694444444444444,0.298245614035088,0,0.111111111111111,1.0,0,0.111111111111111,3.10526315789474,ReadingArea_rsl2-rcl69-esl29-rsm2-rcm11-esm100-rsr2-rcr11-esr310,exr/ReadingArea_rsl2-rcl69-esl29-rsm2-rcm11-esm100-rsr2-rcr11-esr310.exr,ReadingArea_rsl2-rcl69-esl29-rsm2-rcm11-esm100-rsr2-rcr11-esr310.npz,,,,,0,12,12,384,,left,green,2.96,147.649432897568,148.019249916077,,1,,AS,2,lightness,readingArea,mean,72,2023-03-10_14h54.01.506,tripletExp_regina_11082022,2022.2.4,120.183729666381
10,9,3,0,0.694444444444444,1.0,0,0.444444444444444,1.0,0,0.444444444444444,0.298245614035088,ReadingArea_rsl2-rcl69-esl100-rsm2-rcm44-esm100-rsr2-rcr44-esr29,exr/ReadingArea_rsl2-rcl69-esl100-rsm2-rcm44-esm100-rsr2-rcr44-esr29.exr,ReadingArea_rsl2-rcl69-esl100-rsm2-rcm44-esm100-rsr2-rcr44-esr29.npz,,,,,0,13,13,461,,right,red,1.17,149.696316957474,150.032446861267,,1,,AS,2,lightness,readingArea,mean,72,2023-03-10_14h54.01.506,tripletExp_regina_11082022,2022.2.4,120.183729666381
4,14,7,0,0.694444444444444,0.298245614035088,0,0.25,3.10526315789474,0,0.111111111111111,1.0,ReadingArea_rsl2-rcl69-esl29-rsm2-rcm25-esm310-rsr2-rcr11-esr100,exr/ReadingArea_rsl2-rcl69-esl29-rsm2-rcm25-esm310-rsr2-rcr11-esr100.exr,ReadingArea_rsl2-rcl69-esl29-rsm2-rcm25-esm310-rsr2-rcr11-esr100.npz,,,,,0,14,14,301,,left,green,1.18,151.730175971985,152.055124044418,,1,,AS,2,lightness,readingArea,mean,72,2023-03-10_14h54.01.506,tripletExp_regina_11082022,2022.2.4,120.183729666381
2,9,7,0,0.25,0.298245614035088,0,0.444444444444444,1.0,0,0.111111111111111,1.0,ReadingArea_rsl2-rcl25-esl29-rsm2-rcm44-esm100-rsr2-rcr11-esr100,exr/ReadingArea_rsl2-rcl25-esl29-rsm2-rcm44-esm100-rsr2-rcr11-esr100.exr,ReadingArea_rsl2-rcl25-esl29-rsm2-rcm44-esm100-rsr2-rcr11-esr100.npz,,,,,0,15,15,174,,right,red,1.38,153.755477905273,154.095089912415,,1,,AS,2,lightness,readingArea,mean,72,2023-03-10_14h54.01.506,tripletExp_regina_11082022,2022.2.4,120.183729666381
7,4,10,0,0.111111111111111,1.0,0,0.694444444444444,0.298245614035088,0,0.694444444444444,1.0,ReadingArea_rsl2-rcl11-esl100-rsm2-rcm69-esm29-rsr2-rcr69-esr100,exr/ReadingArea_rsl2-rcl11-esl100-rsm2-rcm69-esm29-rsr2-rcr69-esr100.exr,ReadingArea_rsl2-rcl11-esl100-rsm2-rcm69-esm29-rsr2-rcr69-esr100.npz,,,,,0,16,16,177,,left,green,2.76,157.559938907623,157.884577035904,,1,,AS,2,lightness,readingArea,mean,72,2023-03-10_14h54.01.506,tripletExp_regina_11082022,2022.2.4,120.183729666381
0,10,12,0,0.027777777777778,0.298245614035088,0,0.694444444444444,1.0,0,0.027777777777778,3.10526315789474,ReadingArea_rsl2-rcl2-esl29-rsm2-rcm69-esm100-rsr2-rcr2-esr310,exr/ReadingArea_rsl2-rcl2-esl29-rsm2-rcm69-esm100-rsr2-rcr2-esr310.exr,ReadingArea_rsl2-rcl2-esl29-rsm2-rcm69-esm100-rsr2-rcr2-esr310.npz,,,,,0,17,17,383,,right,red,3.05,161.350970983505,161.688447952271,,1,,AS,2,lightness,readingArea,mean,72,2023-03-10_14h54.01.506,tripletExp_regina_11082022,2022.2.4,120.183729666381
4,13,8,0,0.694444444444444,0.298245614035088,0,0.111111111111111,3.10526315789474,0,0.25,1.0,ReadingArea_rsl2-rcl69-esl29-rsm2-rcm11-esm310-rsr2-rcr25-esr100,exr/ReadingArea_rsl2-rcl69-esl29-rsm2-rcm11-esm310-rsr2-rcr25-esr100.exr,ReadingArea_rsl2-rcl69-esl29-rsm2-rcm11-esm310-rsr2-rcr25-esr100.npz,,,,,0,18,18,55,,right,red,2.98,165.175351858139,165.592257976532,,1,,AS,2,lightness,readingArea,mean,72,2023-03-10_14h54.01.506,tripletExp_regina_11082022,2022.2.4,120.183729666381
13,0,3,0,0.111111111111111,3.10526315789474,0,0.027777777777778,0.298245614035088,0,0.444444444444444,0.298245614035088,ReadingArea_rsl2-rcl11-esl310-rsm2-rcm2-esm29-rsr2-rcr44-esr29,exr/ReadingArea_rsl2-rcl11-esl310-rsm2-rcm2-esm29-rsr2-rcr44-esr29.exr,ReadingArea_rsl2-rcl11-esl310-rsm2-rcm2-esm29-rsr2-rcr44-esr29.npz,,,,,0,19,19,291,,right,red,1.22,167.282661914825,167.609112977982,,1,,AS,2,lightness,readingArea,mean,72,2023-03-10_14h54.01.506,tripletExp_regina_11082022,2022.2.4,120.183729666381
7,12,14,0,0.111111111111111,1.0,0,0.027777777777778,3.10526315789474,0,0.25,3.10526315789474,ReadingArea_rsl2-rcl11-esl100-rsm2-rcm2-esm310-rsr2-rcr25-esr310,exr/ReadingArea_rsl2-rcl11-esl100-rsm2-rcm2-esm310-rsr2-rcr25-esr310.exr,ReadingArea_rsl2-rcl11-esl100-rsm2-rcm2-esm310-rsr2-rcr25-esr310.npz,,,,,0,20,20,269,,left,green,1.65,169.313279867172,,,1,,AS,2,lightness,readingArea,mean,72,2023-03-10_14h54.01.506,tripletExp_regina_11082022,2022.2.4,120.183729666381
13,10,8,0,0.111111111111111,3.10526315789474,0,0.694444444444444,1.0,0,0.25,1.0,ReadingArea_rsl2-rcl11-esl310-rsm2-rcm69-esm100-rsr2-rcr25-esr100,exr/ReadingArea_rsl2-rcl11-esl310-rsm2-rcm69-esm100-rsr2-rcr25-esr100.exr,ReadingArea_rsl2-rcl11-esl310-rsm2-rcm69-esm100-rsr2-rcr25-esr100.npz,,,,,0,21,21,76,,left,green,1.15,171.345923900604,,,1,,AS,2,lightness,readingArea,mean,72,2023-03-10_14h54.01.506,tripletExp_regina_11082022,2022.2.4,120.183729666381
1,11,5,0,0.111111111111111,0.298245614035088,0,1.0,1.0,0,1.0,0.298245614035088,ReadingArea_rsl2-rcl11-esl29-rsm2-rcm100-esm100-rsr2-rcr100-esr29,exr/ReadingArea_rsl2-rcl11-esl29-rsm2-rcm100-esm100-rsr2-rcr100-esr29.exr,ReadingArea_rsl2-rcl11-esl29-rsm2-rcm100-esm100-rsr2-rcr100-esr29.npz,,,,,0,22,22,332,,right,red,1.23,173.379971981049,,,1,,AS,2,lightness,readingArea,mean,72,2023-03-10_14h54.01.506,tripletExp_regina_11082022,2022.2.4,120.183729666381
7,14,10,0,0.111111111111111,1.0,0,0.25,3.10526315789474,0,0.694444444444444,1.0,ReadingArea_rsl2-rcl11-esl100-rsm2-rcm25-esm310-rsr2-rcr69-esr100,exr/ReadingArea_rsl2-rcl11-esl100-rsm2-rcm25-esm310-rsr2-rcr69-esr100.exr,ReadingArea_rsl2-rcl11-esl100-rsm2-rcm25-esm310-rsr2-rcr69-esr100.npz,,,,,0,23,23,146,,right,red,0.96,175.403980970383,175.838049888611,,1,,AS,2,lightness,readingArea,mean,72,2023-03-10_14h54.01.506,tripletExp_regina_11082022,2022.2.4,120.183729666381
14,8,0,0,0.25,3.10526315789474,0,0.25,1.0,0,0.027777777777778,0.298245614035088,ReadingArea_rsl2-rcl25-esl310-rsm2-rcm25-esm100-rsr2-rcr2-esr29,exr/ReadingArea_rsl2-rcl25-esl310-rsm2-rcm25-esm100-rsr2-rcr2-esr29.exr,ReadingArea_rsl2-rcl25-esl310-rsm2-rcm25-esm100-rsr2-rcr2-esr29.npz,,,,,0,24,24,327,,right,red,2.39,179.330768823624,,,1,,AS,2,lightness,readingArea,mean,72,2023-03-10_14h54.01.506,tripletExp_regina_11082022,2022.2.4,120.183729666381
1,9,2,0,0.111111111111111,0.298245614035088,0,0.444444444444444,1.0,0,0.25,0.298245614035088,ReadingArea_rsl2-rcl11-esl29-rsm2-rcm44-esm100-rsr2-rcr25-esr29,exr/ReadingArea_rsl2-rcl11-esl29-rsm2-rcm44-esm100-rsr2-rcr25-esr29.exr,ReadingArea_rsl2-rcl11-esl29-rsm2-rcm44-esm100-rsr2-rcr25-esr29.npz,,,,,0,25,25,117,,right,red,1.25,181.347180843353,181.67779302597,,1,,AS,2,lightness,readingArea,mean,72,2023-03-10_14h54.01.506,tripletExp_regina_11082022,2022.2.4,120.183729666381
3,6,13,0,0.444444444444444,0.298245614035088,0,0.027777777777778,1.0,0,0.111111111111111,3.10526315789474,ReadingArea_rsl2-rcl44-esl29-rsm2-rcm2-esm100-rsr2-rcr11-esr310,exr/ReadingArea_rsl2-rcl44-esl29-rsm2-rcm2-esm100-rsr2-rcr11-esr310.exr,ReadingArea_rsl2-rcl44-esl29-rsm2-rcm2-esm100-rsr2-rcr11-esr310.npz,,,,,0,26,26,349,,right,red,1.34,183.404111862183,183.733558893204,,1,,AS,2,lightness,readingArea,mean,72,2023-03-10_14h54.01.506,tripletExp_regina_11082022,2022.2.4,120.183729666381
8,6,0,0,0.25,1.0,0,0.027777777777778,1.0,0,0.027777777777778,0.298245614035088,ReadingArea_rsl2-rcl25-esl100-rsm2-rcm2-esm100-rsr2-rcr2-esr29,exr/ReadingArea_rsl2-rcl25-esl100-rsm2-rcm2-esm100-rsr2-rcr2-esr29.exr,ReadingArea_rsl2-rcl25-esl100-rsm2-rcm2-esm100-rsr2-rcr2-esr29.npz,,,,,0,27,27,93,,right,red,1.25,185.419600009918,185.735564947128,,1,,AS,2,lightness,readingArea,mean,72,2023-03-10_14h54.01.506,tripletExp_regina_11082022,2022.2.4,120.183729666381
10,14,11,0,0.694444444444444,1.0,0,0.25,3.10526315789474,0,1.0,1.0,ReadingArea_rsl2-rcl69-esl100-rsm2-rcm25-esm310-rsr2-rcr100-esr100,exr/ReadingArea_rsl2-rcl69-esl100-rsm2-rcm25-esm310-rsr2-rcr100-esr100.exr,ReadingArea_rsl2-rcl69-esl100-rsm2-rcm25-esm310-rsr2-rcr100-esr100.npz,,,,,0,28,28,387,,left,green,1.57,187.451068878174,187.78569483757,,1,,AS,2,lightness,readingArea,mean,72,2023-03-10_14h54.01.506,tripletExp_regina_11082022,2022.2.4,120.183729666381
5,13,3,0,1.0,0.298245614035088,0,0.111111111111111,3.10526315789474,0,0.444444444444444,0.298245614035088,ReadingArea_rsl2-rcl100-esl29-rsm2-rcm11-esm310-rsr2-rcr44-esr29,exr/ReadingArea_rsl2-rcl100-esl29-rsm2-rcm11-esm310-rsr2-rcr44-esr29.exr,ReadingArea_rsl2-rcl100-esl29-rsm2-rcm11-esm310-rsr2-rcr44-esr29.npz,,,,,0,29,29,317,,left,green,4.47,193.031491041183,193.36573600769,,1,,AS,2,lightness,readingArea,mean,72,2023-03-10_14h54.01.506,tripletExp_regina_11082022,2022.2.4,120.183729666381
11,13,6,0,1.0,1.0,0,0.111111111111111,3.10526315789474,0,0.027777777777778,1.0,ReadingArea_rsl2-rcl100-esl100-rsm2-rcm11-esm310-rsr2-rcr2-esr100,exr/ReadingArea_rsl2-rcl100-esl100-rsm2-rcm11-esm310-rsr2-rcr2-esr100.exr,ReadingArea_rsl2-rcl100-esl100-rsm2-rcm11-esm310-rsr2-rcr2-esr100.npz,,,,,0,30,30,449,,left,green,1.31,195.064209938049,195.38224196434,,1,,AS,2,lightness,readingArea,mean,72,2023-03-10_14h54.01.506,tripletExp_regina_11082022,2022.2.4,120.183729666381
3,5,14,0,0.444444444444444,0.298245614035088,0,1.0,0.298245614035088,0,0.25,3.10526315789474,ReadingArea_rsl2-rcl44-esl29-rsm2-rcm100-esm29-rsr2-rcr25-esr310,exr/ReadingArea_rsl2-rcl44-esl29-rsm2-rcm100-esm29-rsr2-rcr25-esr310.exr,ReadingArea_rsl2-rcl44-esl29-rsm2-rcm100-esm29-rsr2-rcr25-esr310.npz,,,,,0,31,31,167,,left,green,0.96,197.068215847015,197.411073923111,,1,,AS,2,lightness,readingArea,mean,72,2023-03-10_14h54.01.506,tripletExp_regina_11082022,2022.2.4,120.183729666381
11,12,14,0,1.0,1.0,0,0.027777777777778,3.10526315789474,0,0.25,3.10526315789474,ReadingArea_rsl2-rcl100-esl100-rsm2-rcm2-esm310-rsr2-rcr25-esr310,exr/ReadingArea_rsl2-rcl100-esl100-rsm2-rcm2-esm310-rsr2-rcr25-esr310.exr,ReadingArea_rsl2-rcl100-esl100-rsm2-rcm2-esm310-rsr2-rcr25-esr310.npz,,,,,0,32,32,278,,right,red,1.16,199.118443965912,199.458305835724,,1,,AS,2,lightness,readingArea,mean,72,2023-03-10_14h54.01.506,tripletExp_regina_11082022,2022.2.4,120.183729666381
12,11,14,0,0.027777777777778,3.10526315789474,0,1.0,1.0,0,0.25,3.10526315789474,ReadingArea_rsl2-rcl2-esl310-rsm2-rcm100-esm100-rsr2-rcr25-esr310,exr/ReadingArea_rsl2-rcl2-esl310-rsm2-rcm100-esm100-rsr2-rcr25-esr310.exr,ReadingArea_rsl2-rcl2-esl310-rsm2-rcm100-esm100-rsr2-rcr25-esr310.npz,,,,,0,33,33,350,,right,red,1.25,201.153548002243,201.486061811447,,1,,AS,2,lightness,readingArea,mean,72,2023-03-10_14h54.01.506,tripletExp_regina_11082022,2022.2.4,120.183729666381
2,5,13,0,0.25,0.298245614035088,0,1.0,0.298245614035088,0,0.111111111111111,3.10526315789474,ReadingArea_rsl2-rcl25-esl29-rsm2-rcm100-esm29-rsr2-rcr11-esr310,exr/ReadingArea_rsl2-rcl25-esl29-rsm2-rcm100-esm29-rsr2-rcr11-esr310.exr,ReadingArea_rsl2-rcl25-esl29-rsm2-rcm100-esm29-rsr2-rcr11-esr310.npz,,,,,0,34,34,246,,right,red,1.05,203.204622983933,203.523936986923,,1,,AS,2,lightness,readingArea,mean,72,2023-03-10_14h54.01.506,tripletExp_regina_11082022,2022.2.4,120.183729666381
9,10,6,0,0.444444444444444,1.0,0,0.694444444444444,1.0,0,0.027777777777778,1.0,ReadingArea_rsl2-rcl44-esl100-rsm2-rcm69-esm100-rsr2-rcr2-esr100,exr/ReadingArea_rsl2-rcl44-esl100-rsm2-rcm69-esm100-rsr2-rcr2-esr100.exr,ReadingArea_rsl2-rcl44-esl100-rsm2-rcm69-esm100-rsr2-rcr2-esr100.npz,,,,,0,35,35,304,,left,green,0.91,205.216993808746,205.542405843735,,1,,AS,2,lightness,readingArea,mean,72,2023-03-10_14h54.01.506,tripletExp_regina_11082022,2022.2.4,120.183729666381
12,14,9,0,0.027777777777778,3.10526315789474,0,0.25,3.10526315789474,0,0.444444444444444,1.0,ReadingArea_rsl2-rcl2-esl310-rsm2-rcm25-esm310-rsr2-rcr44-esr100,exr/ReadingArea_rsl2-rcl2-esl310-rsm2-rcm25-esm310-rsr2-rcr44-esr100.exr,ReadingArea_rsl2-rcl2-esl310-rsm2-rcm25-esm310-rsr2-rcr44-esr100.npz,,,,,0,36,36,366,,right,red,0.92,207.235965967178,207.57063293457,,1,,AS,2,lightness,readingArea,mean,72,2023-03-10_14h54.01.506,tripletExp_regina_11082022,2022.2.4,120.183729666381
12,8,10,0,0.027777777777778,3.10526315789474,0,0.25,1.0,0,0.694444444444444,1.0,ReadingArea_rsl2-rcl2-esl310-rsm2-rcm25-esm100-rsr2-rcr69-esr100,exr/ReadingArea_rsl2-rcl2-esl310-rsm2-rcm25-esm100-rsr2-rcr69-esr100.exr,ReadingArea_rsl2-rcl2-esl310-rsm2-rcm25-esm100-rsr2-rcr69-esr100.npz,,,,,0,37,37,502,,left,green,1.3,209.264670848846,209.653023004532,,1,,AS,2,lightness,readingArea,mean,72,2023-03-10_14h54.01.506,tripletExp_regina_11082022,2022.2.4,120.183729666381
8,12,13,0,0.25,1.0,0,0.027777777777778,3.10526315789474,0,0.111111111111111,3.10526315789474,ReadingArea_rsl2-rcl25-esl100-rsm2-rcm2-esm310-rsr2-rcr11-esr310,exr/ReadingArea_rsl2-rcl25-esl100-rsm2-rcm2-esm310-rsr2-rcr11-esr310.exr,ReadingArea_rsl2-rcl25-esl100-rsm2-rcm2-esm310-rsr2-rcr11-esr310.npz,,,,,0,38,38,470,,left,green,2.9,213.094367027283,,,1,,AS,2,lightness,readingArea,mean,72,2023-03-10_14h54.01.506,tripletExp_regina_11082022,2022.2.4,120.183729666381
8,14,11,0,0.25,1.0,0,0.25,3.10526315789474,0,1.0,1.0,ReadingArea_rsl2-rcl25-esl100-rsm2-rcm25-esm310-rsr2-rcr100-esr100,exr/ReadingArea_rsl2-rcl25-esl100-rsm2-rcm25-esm310-rsr2-rcr100-esr100.exr,ReadingArea_rsl2-rcl25-esl100-rsm2-rcm25-esm310-rsr2-rcr100-esr100.npz,,,,,0,39,39,25,,right,red,2.57,216.876368999481,217.192266941071,,1,,AS,2,lightness,readingArea,mean,72,2023-03-10_14h54.01.506,tripletExp_regina_11082022,2022.2.4,120.183729666381
8,10,0,0,0.25,1.0,0,0.694444444444444,1.0,0,0.027777777777778,0.298245614035088,ReadingArea_rsl2-rcl25-esl100-rsm2-rcm69-esm100-rsr2-rcr2-esr29,exr/ReadingArea_rsl2-rcl25-esl100-rsm2-rcm69-esm100-rsr2-rcr2-esr29.exr,ReadingArea_rsl2-rcl25-esl100-rsm2-rcm69-esm100-rsr2-rcr2-esr29.npz,,,,,0,40,40,308,,left,green,1.09,218.908285856247,219.235885858536,,1,,AS,2,lightness,readingArea,mean,72,2023-03-10_14h54.01.506,tripletExp_regina_11082022,2022.2.4,120.183729666381
11,13,9,0,1.0,1.0,0,0.111111111111111,3.10526315789474,0,0.444444444444444,1.0,ReadingArea_rsl2-rcl100-esl100-rsm2-rcm11-esm310-rsr2-rcr44-esr100,exr/ReadingArea_rsl2-rcl100-esl100-rsm2-rcm11-esm310-rsr2-rcr44-esr100.exr,ReadingArea_rsl2-rcl100-esl100-rsm2-rcm11-esm310-rsr2-rcr44-esr100.npz,,,,,0,41,41,160,,right,red,2.06,222.707545995712,223.040752887726,,1,,AS,2,lightness,readingArea,mean,72,2023-03-10_14h54.01.506,tripletExp_regina_11082022,2022.2.4,120.183729666381
14,11,8,0,0.25,3.10526315789474,0,1.0,1.0,0,0.25,1.0,ReadingArea_rsl2-rcl25-esl310-rsm2-rcm100-esm100-rsr2-rcr25-esr100,exr/ReadingArea_rsl2-rcl25-esl310-rsm2-rcm100-esm100-rsr2-rcr25-esr100.exr,ReadingArea_rsl2-rcl25-esl310-rsm2-rcm100-esm100-rsr2-rcr25-esr100.npz,,,,,0,42,42,425,,left,green,1.1,224.736248016357,225.069687843323,,1,,AS,2,lightness,readingArea,mean,72,2023-03-10_14h54.01.506,tripletExp_regina_11082022,2022.2.4,120.183729666381
1,8,11,0,0.111111111111111,0.298245614035088,0,0.25,1.0,0,1.0,1.0,ReadingArea_rsl2-rcl11-esl29-rsm2-rcm25-esm100-rsr2-rcr100-esr100,exr/ReadingArea_rsl2-rcl11-esl29-rsm2-rcm25-esm100-rsr2-rcr100-esr100.exr,ReadingArea_rsl2-rcl11-esl29-rsm2-rcm25-esm100-rsr2-rcr100-esr100.npz,,,,,0,43,43,231,,left,green,1.36,226.784116029739,227.115937948227,,1,,AS,2,lightness,readingArea,mean,72,2023-03-10_14h54.01.506,tripletExp_regina_11082022,2022.2.4,120.183729666381
3,10,12,0,0.444444444444444,0.298245614035088,0,0.694444444444444,1.0,0,0.027777777777778,3.10526315789474,ReadingArea_rsl2-rcl44-esl29-rsm2-rcm69-esm100-rsr2-rcr2-esr310,exr/ReadingArea_rsl2-rcl44-esl29-rsm2-rcm69-esm100-rsr2-rcr2-esr310.exr,ReadingArea_rsl2-rcl44-esl29-rsm2-rcm69-esm100-rsr2-rcr2-esr310.npz,,,,,0,44,44,221,,left,green,3.27,230.592818021774,230.929296016693,,1,,AS,2,lightness,readingArea,mean,72,2023-03-10_14h54.01.506,tripletExp_regina_11082022,2022.2.4,120.183729666381
5,0,10,0,1.0,0.298245614035088,0,0.027777777777778,0.298245614035088,0,0.694444444444444,1.0,ReadingArea_rsl2-rcl100-esl29-rsm2-rcm2-esm29-rsr2-rcr69-esr100,exr/ReadingArea_rsl2-rcl100-esl29-rsm2-rcm2-esm29-rsr2-rcr69-esr100.exr,ReadingArea_rsl2-rcl100-esl29-rsm2-rcm2-esm29-rsr2-rcr69-esr100.npz,,,,,0,45,45,265,,left,green,2.77,234.386126995087,234.705093860626,,1,,AS,2,lightness,readingArea,mean,72,2023-03-10_14h54.01.506,tripletExp_regina_11082022,2022.2.4,120.183729666381
0,5,4,0,0.027777777777778,0.298245614035088,0,1.0,0.298245614035088,0,0.694444444444444,0.298245614035088,ReadingArea_rsl2-rcl2-esl29-rsm2-rcm100-esm29-rsr2-rcr69-esr29,exr/ReadingArea_rsl2-rcl2-esl29-rsm2-rcm100-esm29-rsr2-rcr69-esr29.exr,ReadingArea_rsl2-rcl2-esl29-rsm2-rcm100-esm29-rsr2-rcr69-esr29.npz,,,,,0,46,46,16,,right,red,1.03,236.411084890366,236.756072998047,,1,,AS,2,lightness,readingArea,mean,72,2023-03-10_14h54.01.506,tripletExp_regina_11082022,2022.2.4,120.183729666381
7,6,5,0,0.111111111111111,1.0,0,0.027777777777778,1.0,0,1.0,0.298245614035088,ReadingArea_rsl2-rcl11-esl100-rsm2-rcm2-esm100-rsr2-rcr100-esr29,exr/ReadingArea_rsl2-rcl11-esl100-rsm2-rcm2-esm100-rsr2-rcr100-esr29.exr,ReadingArea_rsl2-rcl11-esl100-rsm2-rcm2-esm100-rsr2-rcr100-esr29.npz,,,,,0,47,47,260,,left,green,1.4,238.445181846619,238.768479824066,,1,,AS,2,lightness,readingArea,mean,72,2023-03-10_14h54.01.506,tripletExp_regina_11082022,2022.2.4,120.183729666381
6,13,7,0,0.027777777777778,1.0,0,0.111111111111111,3.10526315789474,0,0.111111111111111,1.0,ReadingArea_rsl2-rcl2-esl100-rsm2-rcm11-esm310-rsr2-rcr11-esr100,exr/ReadingArea_rsl2-rcl2-esl100-rsm2-rcm11-esm310-rsr2-rcr11-esr100.exr,ReadingArea_rsl2-rcl2-esl100-rsm2-rcm11-esm310-rsr2-rcr11-esr100.npz,,,,,0,48,48,407,,right,red,1.3,240.484949827194,240.820029020309,,1,,AS,2,lightness,readingArea,mean,72,2023-03-10_14h54.01.506,tripletExp_regina_11082022,2022.2.4,120.183729666381
4,9,6,0,0.694444444444444,0.298245614035088,0,0.444444444444444,1.0,0,0.027777777777778,1.0,ReadingArea_rsl2-rcl69-esl29-rsm2-rcm44-esm100-rsr2-rcr2-esr100,exr/ReadingArea_rsl2-rcl69-esl29-rsm2-rcm44-esm100-rsr2-rcr2-esr100.exr,ReadingArea_rsl2-rcl69-esl29-rsm2-rcm44-esm100-rsr2-rcr2-esr100.npz,,,,,0,49,49,61,,left,green,1.2,242.52077293396,242.854990959167,,1,,AS,2,lightness,readingArea,mean,72,2023-03-10_14h54.01.506,tripletExp_regina_11082022,2022.2.4,120.183729666381
13,11,12,0,0.111111111111111,3.10526315789474,0,1.0,1.0,0,0.027777777777778,3.10526315789474,ReadingArea_rsl2-rcl11-esl310-rsm2-rcm100-esm100-rsr2-rcr2-esr310,exr/ReadingArea_rsl2-rcl11-esl310-rsm2-rcm100-esm100-rsr2-rcr2-esr310.exr,ReadingArea_rsl2-rcl11-esl310-rsm2-rcm100-esm100-rsr2-rcr2-esr310.npz,,,,,0,50,50,208,,left,green,0.98,244.577351808548,244.924002885818,,1,,AS,2,lightness,readingArea,mean,72,2023-03-10_14h54.01.506,tripletExp_regina_11082022,2022.2.4,120.183729666381
10,5,7,0,0.694444444444444,1.0,0,1.0,0.298245614035088,0,0.111111111111111,1.0,ReadingArea_rsl2-rcl69-esl100-rsm2-rcm100-esm29-rsr2-rcr11-esr100,exr/ReadingArea_rsl2-rcl69-esl100-rsm2-rcm100-esm29-rsr2-rcr11-esr100.exr,ReadingArea_rsl2-rcl69-esl100-rsm2-rcm100-esm29-rsr2-rcr11-esr100.npz,,,,,0,51,51,318,,right,red,1.35,246.618968009949,246.966464042664,,1,,AS,2,lightness,readingArea,mean,72,2023-03-10_14h54.01.506,tripletExp_regina_11082022,2022.2.4,120.183729666381
7,13,9,0,0.111111111111111,1.0,0,0.111111111111111,3.10526315789474,0,0.444444444444444,1.0,ReadingArea_rsl2-rcl11-esl100-rsm2-rcm11-esm310-rsr2-rcr44-esr100,exr/ReadingArea_rsl2-rcl11-esl100-rsm2-rcm11-esm310-rsr2-rcr44-esr100.exr,ReadingArea_rsl2-rcl11-esl100-rsm2-rcm11-esm310-rsr2-rcr44-esr100.npz,,,,,0,52,52,43,,left,green,2.16,250.434047937393,250.760844945908,,1,,AS,2,lightness,readingArea,mean,72,2023-03-10_14h54.01.506,tripletExp_regina_11082022,2022.2.4,120.183729666381
4,13,9,0,0.694444444444444,0.298245614035088,0,0.111111111111111,3.10526315789474,0,0.444444444444444,1.0,ReadingArea_rsl2-rcl69-esl29-rsm2-rcm11-esm310-rsr2-rcr44-esr100,exr/ReadingArea_rsl2-rcl69-esl29-rsm2-rcm11-esm310-rsr2-rcr44-esr100.exr,ReadingArea_rsl2-rcl69-esl29-rsm2-rcm11-esm310-rsr2-rcr44-esr100.npz,,,,,0,53,53,201,,left,green,3.11,254.221979856491,254.57693195343,,1,,AS,2,lightness,readingArea,mean,72,2023-03-10_14h54.01.506,tripletExp_regina_11082022,2022.2.4,120.183729666381
8,5,14,0,0.25,1.0,0,1.0,0.298245614035088,0,0.25,3.10526315789474,ReadingArea_rsl2-rcl25-esl100-rsm2-rcm100-esm29-rsr2-rcr25-esr310,exr/ReadingArea_rsl2-rcl25-esl100-rsm2-rcm100-esm29-rsr2-rcr25-esr310.exr,ReadingArea_rsl2-rcl25-esl100-rsm2-rcm100-esm29-rsr2-rcr25-esr310.npz,,,,,0,54,54,62,,left,green,1.17,256.278620958328,256.600155830383,,1,,AS,2,lightness,readingArea,mean,72,2023-03-10_14h54.01.506,tripletExp_regina_11082022,2022.2.4,120.183729666381
6,1,4,0,0.027777777777778,1.0,0,0.111111111111111,0.298245614035088,0,0.694444444444444,0.298245614035088,ReadingArea_rsl2-rcl2-esl100-rsm2-rcm11-esm29-rsr2-rcr69-esr29,exr/ReadingArea_rsl2-rcl2-esl100-rsm2-rcm11-esm29-rsr2-rcr69-esr29.exr,ReadingArea_rsl2-rcl2-esl100-rsm2-rcm11-esm29-rsr2-rcr69-esr29.npz,,,,,0,55,55,442,,left,green,2.03,260.06140089035,260.408182859421,,1,,AS,2,lightness,readingArea,mean,72,2023-03-10_14h54.01.506,tripletExp_regina_11082022,2022.2.4,120.183729666381
13,3,6,0,0.111111111111111,3.10526315789474,0,0.444444444444444,0.298245614035088,0,0.027777777777778,1.0,ReadingArea_rsl2-rcl11-esl310-rsm2-rcm44-esm29-rsr2-rcr2-esr100,exr/ReadingArea_rsl2-rcl11-esl310-rsm2-rcm44-esm29-rsr2-rcr2-esr100.exr,ReadingArea_rsl2-rcl11-esl310-rsm2-rcm44-esm29-rsr2-rcr2-esr100.npz,,,,,0,56,56,133,,right,red,1.52,262.121496915817,262.44256901741,,1,,AS,2,lightness,readingArea,mean,72,2023-03-10_14h54.01.506,tripletExp_regina_11082022,2022.2.4,120.183729666381
7,1,10,0,0.111111111111111,1.0,0,0.111111111111111,0.298245614035088,0,0.694444444444444,1.0,ReadingArea_rsl2-rcl11-esl100-rsm2-rcm11-esm29-rsr2-rcr69-esr100,exr/ReadingArea_rsl2-rcl11-esl100-rsm2-rcm11-esm29-rsr2-rcr69-esr100.exr,ReadingArea_rsl2-rcl11-esl100-rsm2-rcm11-esm29-rsr2-rcr69-esr100.npz,,,,,0,57,57,131,,left,green,1.09,264.139719963074,264.470160961151,,1,,AS,2,lightness,readingArea,mean,72,2023-03-10_14h54.01.506,tripletExp_regina_11082022,2022.2.4,120.183729666381
11,1,13,0,1.0,1.0,0,0.111111111111111,0.298245614035088,0,0.111111111111111,3.10526315789474,ReadingArea_rsl2-rcl100-esl100-rsm2-rcm11-esm29-rsr2-rcr11-esr310,exr/ReadingArea_rsl2-rcl100-esl100-rsm2-rcm11-esm29-rsr2-rcr11-esr310.exr,ReadingArea_rsl2-rcl100-esl100-rsm2-rcm11-esm29-rsr2-rcr11-esr310.npz,,,,,0,58,58,249,,right,red,1.16,266.194617033005,,,1,,AS,2,lightness,readingArea,mean,72,2023-03-10_14h54.01.506,tripletExp_regina_11082022,2022.2.4,120.183729666381
1,2,6,0,0.111111111111111,0.298245614035088,0,0.25,0.298245614035088,0,0.027777777777778,1.0,ReadingArea_rsl2-rcl11-esl29-rsm2-rcm25-esm29-rsr2-rcr2-esr100,exr/ReadingArea_rsl2-rcl11-esl29-rsm2-rcm25-esm29-rsr2-rcr2-esr100.exr,ReadingArea_rsl2-rcl11-esl29-rsm2-rcm25-esm29-rsr2-rcr2-esr100.npz,,,,,0,59,59,469,,left,green,1.47,268.245298862457,268.58615398407,,1,,AS,2,lightness,readingArea,mean,72,2023-03-10_14h54.01.506,tripletExp_regina_11082022,2022.2.4,120.183729666381
14,12,9,0,0.25,3.10526315789474,0,0.027777777777778,3.10526315789474,0,0.444444444444444,1.0,ReadingArea_rsl2-rcl25-esl310-rsm2-rcm2-esm310-rsr2-rcr44-esr100,exr/ReadingArea_rsl2-rcl25-esl310-rsm2-rcm2-esm310-rsr2-rcr44-esr100.exr,ReadingArea_rsl2-rcl25-esl310-rsm2-rcm2-esm310-rsr2-rcr44-esr100.npz,,,,,0,60,60,258,,right,red,1.17,270.306655883789,270.724403858185,,1,,AS,2,lightness,readingArea,mean,72,2023-03-10_14h54.01.506,tripletExp_regina_11082022,2022.2.4,120.183729666381
6,4,1,0,0.027777777777778,1.0,0,0.694444444444444,0.298245614035088,0,0.111111111111111,0.298245614035088,ReadingArea_rsl2-rcl2-esl100-rsm2-rcm69-esm29-rsr2-rcr11-esr29,exr/ReadingArea_rsl2-rcl2-esl100-rsm2-rcm69-esm29-rsr2-rcr11-esr29.exr,ReadingArea_rsl2-rcl2-esl100-rsm2-rcm69-esm29-rsr2-rcr11-esr29.npz,,,,,0,61,61,414,,right,red,4.89,275.974838972092,276.311491966248,,1,,AS,2,lightness,readingArea,mean,72,2023-03-10_14h54.01.506,tripletExp_regina_11082022,2022.2.4,120.183729666381
12,7,3,0,0.027777777777778,3.10526315789474,0,0.111111111111111,1.0,0,0.444444444444444,0.298245614035088,ReadingArea_rsl2-rcl2-esl310-rsm2-rcm11-esm100-rsr2-rcr44-esr29,exr/ReadingArea_rsl2-rcl2-esl310-rsm2-rcm11-esm100-rsr2-rcr44-esr29.exr,ReadingArea_rsl2-rcl2-esl310-rsm2-rcm11-esm100-rsr2-rcr44-esr29.npz,,,,,0,62,62,159,,left,green,1.67,278.011270999908,278.329931020737,,1,,AS,2,lightness,readingArea,mean,72,2023-03-10_14h54.01.506,tripletExp_regina_11082022,2022.2.4,120.183729666381
5,14,11,0,1.0,0.298245614035088,0,0.25,3.10526315789474,0,1.0,1.0,ReadingArea_rsl2-rcl100-esl29-rsm2-rcm25-esm310-rsr2-rcr100-esr100,exr/ReadingArea_rsl2-rcl100-esl29-rsm2-rcm25-esm310-rsr2-rcr100-esr100.exr,ReadingArea_rsl2-rcl100-esl29-rsm2-rcm25-esm310-rsr2-rcr100-esr100.npz,,,,,0,63,63,99,,right,red,1.58,280.047161817551,280.371680021286,,1,,AS,2,lightness,readingArea,mean,72,2023-03-10_14h54.01.506,tripletExp_regina_11082022,2022.2.4,120.183729666381
1,8,6,0,0.111111111111111,0.298245614035088,0,0.25,1.0,0,0.027777777777778,1.0,ReadingArea_rsl2-rcl11-esl29-rsm2-rcm25-esm100-rsr2-rcr2-esr100,exr/ReadingArea_rsl2-rcl11-esl29-rsm2-rcm25-esm100-rsr2-rcr2-esr100.exr,ReadingArea_rsl2-rcl11-esl29-rsm2-rcm25-esm100-rsr2-rcr2-esr100.npz,,,,,0,64,64,150,,left,green,2.73,283.845525026321,284.178189992905,,1,,AS,2,lightness,readingArea,mean,72,2023-03-10_14h54.01.506,tripletExp_regina_11082022,2022.2.4,120.183729666381
9,10,5,0,0.444444444444444,1.0,0,0.694444444444444,1.0,0,1.0,0.298245614035088,ReadingArea_rsl2-rcl44-esl100-rsm2-rcm69-esm100-rsr2-rcr100-esr29,exr/ReadingArea_rsl2-rcl44-esl100-rsm2-rcm69-esm100-rsr2-rcr100-esr29.exr,ReadingArea_rsl2-rcl44-esl100-rsm2-rcm69-esm100-rsr2-rcr100-esr29.npz,,,,,0,65,65,222,,left,green,2.89,287.67614197731,288.023180007935,,1,,AS,2,lightness,readingArea,mean,72,2023-03-10_14h54.01.506,tripletExp_regina_11082022,2022.2.4,120.183729666381
3,8,13,0,0.444444444444444,0.298245614035088,0,0.25,1.0,0,0.111111111111111,3.10526315789474,ReadingArea_rsl2-rcl44-esl29-rsm2-rcm25-esm100-rsr2-rcr11-esr310,exr/ReadingArea_rsl2-rcl44-esl29-rsm2-rcm25-esm100-rsr2-rcr11-esr310.exr,ReadingArea_rsl2-rcl44-esl29-rsm2-rcm25-esm100-rsr2-rcr11-esr310.npz,,,,,0,66,66,17,,left,green,2.54,291.489907026291,,,1,,AS,2,lightness,readingArea,mean,72,2023-03-10_14h54.01.506,tripletExp_regina_11082022,2022.2.4,120.183729666381
5,2,3,0,1.0,0.298245614035088,0,0.25,0.298245614035088,0,0.444444444444444,0.298245614035088,ReadingArea_rsl2-rcl100-esl29-rsm2-rcm25-esm29-rsr2-rcr44-esr29,exr/ReadingArea_rsl2-rcl100-esl29-rsm2-rcm25-esm29-rsr2-rcr44-esr29.exr,ReadingArea_rsl2-rcl100-esl29-rsm2-rcm25-esm29-rsr2-rcr44-esr29.npz,,,,,0,67,67,426,,right,red,1.02,293.516402959824,293.951620817184,,1,,AS,2,lightness,readingArea,mean,72,2023-03-10_14h54.01.506,tripletExp_regina_11082022,2022.2.4,120.183729666381
1,11,13,0,0.111111111111111,0.298245614035088,0,1.0,1.0,0,0.111111111111111,3.10526315789474,ReadingArea_rsl2-rcl11-esl29-rsm2-rcm100-esm100-rsr2-rcr11-esr310,exr/ReadingArea_rsl2-rcl11-esl29-rsm2-rcm100-esm100-rsr2-rcr11-esr310.exr,ReadingArea_rsl2-rcl11-esl29-rsm2-rcm100-esm100-rsr2-rcr11-esr310.npz,,,,,0,68,68,428,,right,red,1.04,295.66536283493,,,1,,AS,2,lightness,readingArea,mean,72,2023-03-10_14h54.01.506,tripletExp_regina_11082022,2022.2.4,120.183729666381
1,6,7,0,0.111111111111111,0.298245614035088,0,0.027777777777778,1.0,0,0.111111111111111,1.0,ReadingArea_rsl2-rcl11-esl29-rsm2-rcm2-esm100-rsr2-rcr11-esr100,exr/ReadingArea_rsl2-rcl11-esl29-rsm2-rcm2-esm100-rsr2-rcr11-esr100.exr,ReadingArea_rsl2-rcl11-esl29-rsm2-rcm2-esm100-rsr2-rcr11-esr100.npz,,,,,0,69,69,419,,left,green,1.39,297.6986079216,298.026584863663,,1,,AS,2,lightness,readingArea,mean,72,2023-03-10_14h54.01.506,tripletExp_regina_11082022,2022.2.4,120.183729666381
2,11,1,0,0.25,0.298245614035088,0,1.0,1.0,0,0.111111111111111,0.298245614035088,ReadingArea_rsl2-rcl25-esl29-rsm2-rcm100-esm100-rsr2-rcr11-esr29,exr/ReadingArea_rsl2-rcl25-esl29-rsm2-rcm100-esm100-rsr2-rcr11-esr29.exr,ReadingArea_rsl2-rcl25-esl29-rsm2-rcm100-esm100-rsr2-rcr11-esr29.npz,,,,,0,70,70,373,,left,green,1.21,299.752039909363,300.114344835281,,1,,AS,2,lightness,readingArea,mean,72,2023-03-10_14h54.01.506,tripletExp_regina_11082022,2022.2.4,120.183729666381
11,12,1,0,1.0,1.0,0,0.027777777777778,3.10526315789474,0,0.111111111111111,0.298245614035088,ReadingArea_rsl2-rcl100-esl100-rsm2-rcm2-esm310-rsr2-rcr11-esr29,exr/ReadingArea_rsl2-rcl100-esl100-rsm2-rcm2-esm310-rsr2-rcr11-esr29.exr,ReadingArea_rsl2-rcl100-esl100-rsm2-rcm2-esm310-rsr2-rcr11-esr29.npz,,,,,0,71,71,372,,right,red,1.13,301.797832012176,301.998737812042,,1,,AS,2,lightness,readingArea,mean,72,2023-03-10_14h54.01.506,tripletExp_regina_11082022,2022.2.4,120.183729666381
9,0,10,0,0.444444444444444,1.0,0,0.027777777777778,0.298245614035088,0,0.694444444444444,1.0,ReadingArea_rsl2-rcl44-esl100-rsm2-rcm2-esm29-rsr2-rcr69-esr100,exr/ReadingArea_rsl2-rcl44-esl100-rsm2-rcm2-esm29-rsr2-rcr69-esr100.exr,ReadingArea_rsl2-rcl44-esl100-rsm2-rcm2-esm29-rsr2-rcr69-esr100.npz,,,,,0,72,72,30,,left,green,2.59,383.058354854584,383.400058984756,,2,,AS,2,lightness,readingArea,mean,72,2023-03-10_14h54.01.506,tripletExp_regina_11082022,2022.2.4,120.183729666381
12,4,9,0,0.027777777777778,3.10526315789474,0,0.694444444444444,0.298245614035088,0,0.444444444444444,1.0,ReadingArea_rsl2-rcl2-esl310-rsm2-rcm69-esm29-rsr2-rcr44-esr100,exr/ReadingArea_rsl2-rcl2-esl310-rsm2-rcm69-esm29-rsr2-rcr44-esr100.exr,ReadingArea_rsl2-rcl2-esl310-rsm2-rcm69-esm29-rsr2-rcr44-esr100.npz,,,,,0,73,73,293,,right,red,1.15,385.123246908188,385.459770917892,,2,,AS,2,lightness,readingArea,mean,72,2023-03-10_14h54.01.506,tripletExp_regina_11082022,2022.2.4,120.183729666381
13,0,9,0,0.111111111111111,3.10526315789474,0,0.027777777777778,0.298245614035088,0,0.444444444444444,1.0,ReadingArea_rsl2-rcl11-esl310-rsm2-rcm2-esm29-rsr2-rcr44-esr100,exr/ReadingArea_rsl2-rcl11-esl310-rsm2-rcm2-esm29-rsr2-rcr44-esr100.exr,ReadingArea_rsl2-rcl11-esl310-rsm2-rcm2-esm29-rsr2-rcr44-esr100.npz,,,,,0,74,74,11,,left,green,4.47,390.689018964767,,,2,,AS,2,lightness,readingArea,mean,72,2023-03-10_14h54.01.506,tripletExp_regina_11082022,2022.2.4,120.183729666381
0,6,4,0,0.027777777777778,0.298245614035088,0,0.027777777777778,1.0,0,0.694444444444444,0.298245614035088,ReadingArea_rsl2-rcl2-esl29-rsm2-rcm2-esm100-rsr2-rcr69-esr29,exr/ReadingArea_rsl2-rcl2-esl29-rsm2-rcm2-esm100-rsr2-rcr69-esr29.exr,ReadingArea_rsl2-rcl2-esl29-rsm2-rcm2-esm100-rsr2-rcr69-esr29.npz,,,,,0,75,75,156,,right,red,1.31,392.724522829056,393.056387901306,,2,,AS,2,lightness,readingArea,mean,72,2023-03-10_14h54.01.506,tripletExp_regina_11082022,2022.2.4,120.183729666381
6,9,8,0,0.027777777777778,1.0,0,0.444444444444444,1.0,0,0.25,1.0,ReadingArea_rsl2-rcl2-esl100-rsm2-rcm44-esm100-rsr2-rcr25-esr100,exr/ReadingArea_rsl2-rcl2-esl100-rsm2-rcm44-esm100-rsr2-rcr25-esr100.exr,ReadingArea_rsl2-rcl2-esl100-rsm2-rcm44-esm100-rsr2-rcr25-esr100.npz,,,,,0,76,76,248,,right,red,1.1,394.779731988907,395.107996940613,,2,,AS,2,lightness,readingArea,mean,72,2023-03-10_14h54.01.506,tripletExp_regina_11082022,2022.2.4,120.183729666381
14,7,3,0,0.25,3.10526315789474,0,0.111111111111111,1.0,0,0.444444444444444,0.298245614035088,ReadingArea_rsl2-rcl25-esl310-rsm2-rcm11-esm100-rsr2-rcr44-esr29,exr/ReadingArea_rsl2-rcl25-esl310-rsm2-rcm11-esm100-rsr2-rcr44-esr29.exr,ReadingArea_rsl2-rcl25-esl310-rsm2-rcm11-esm100-rsr2-rcr44-esr29.npz,,,,,0,77,77,285,,right,red,1.01,396.825448989868,397.161880970001,,2,,AS,2,lightness,readingArea,mean,72,2023-03-10_14h54.01.506,tripletExp_regina_11082022,2022.2.4,120.183729666381
11,4,10,0,1.0,1.0,0,0.694444444444444,0.298245614035088,0,0.694444444444444,1.0,ReadingArea_rsl2-rcl100-esl100-rsm2-rcm69-esm29-rsr2-rcr69-esr100,exr/ReadingArea_rsl2-rcl100-esl100-rsm2-rcm69-esm29-rsr2-rcr69-esr100.exr,ReadingArea_rsl2-rcl100-esl100-rsm2-rcm69-esm29-rsr2-rcr69-esr100.npz,,,,,0,78,78,223,,right,red,2.82,400.654637813568,400.99578499794,,2,,AS,2,lightness,readingArea,mean,72,2023-03-10_14h54.01.506,tripletExp_regina_11082022,2022.2.4,120.183729666381
10,6,8,0,0.694444444444444,1.0,0,0.027777777777778,1.0,0,0.25,1.0,ReadingArea_rsl2-rcl69-esl100-rsm2-rcm2-esm100-rsr2-rcr25-esr100,exr/ReadingArea_rsl2-rcl69-esl100-rsm2-rcm2-esm100-rsr2-rcr25-esr100.exr,ReadingArea_rsl2-rcl69-esl100-rsm2-rcm2-esm100-rsr2-rcr25-esr100.npz,,,,,0,79,79,273,,right,red,0.93,402.687500953674,403.009148836136,,2,,AS,2,lightness,readingArea,mean,72,2023-03-10_14h54.01.506,tripletExp_regina_11082022,2022.2.4,120.183729666381
3,6,12,0,0.444444444444444,0.298245614035088,0,0.027777777777778,1.0,0,0.027777777777778,3.10526315789474,ReadingArea_rsl2-rcl44-esl29-rsm2-rcm2-esm100-rsr2-rcr2-esr310,exr/ReadingArea_rsl2-rcl44-esl29-rsm2-rcm2-esm100-rsr2-rcr2-esr310.exr,ReadingArea_rsl2-rcl44-esl29-rsm2-rcm2-esm100-rsr2-rcr2-esr310.npz,,,,,0,80,80,108,,right,red,2.14,406.513725996017,406.835021018982,,2,,AS,2,lightness,readingArea,mean,72,2023-03-10_14h54.01.506,tripletExp_regina_11082022,2022.2.4,120.183729666381
11,0,14,0,1.0,1.0,0,0.027777777777778,0.298245614035088,0,0.25,3.10526315789474,ReadingArea_rsl2-rcl100-esl100-rsm2-rcm2-esm29-rsr2-rcr25-esr310,exr/ReadingArea_rsl2-rcl100-esl100-rsm2-rcm2-esm29-rsr2-rcr25-esr310.exr,ReadingArea_rsl2-rcl100-esl100-rsm2-rcm2-esm29-rsr2-rcr25-esr310.npz,,,,,0,81,81,88,,right,red,1.55,408.527498006821,408.851445913315,,2,,AS,2,lightness,readingArea,mean,72,2023-03-10_14h54.01.506,tripletExp_regina_11082022,2022.2.4,120.183729666381
3,1,4,0,0.444444444444444,0.298245614035088,0,0.111111111111111,0.298245614035088,0,0.694444444444444,0.298245614035088,ReadingArea_rsl2-rcl44-esl29-rsm2-rcm11-esm29-rsr2-rcr69-esr29,exr/ReadingArea_rsl2-rcl44-esl29-rsm2-rcm11-esm29-rsr2-rcr69-esr29.exr,ReadingArea_rsl2-rcl44-esl29-rsm2-rcm11-esm29-rsr2-rcr69-esr29.npz,,,,,0,82,82,280,,left,green,1.6,410.57036781311,410.905582904816,,2,,AS,2,lightness,readingArea,mean,72,2023-03-10_14h54.01.506,tripletExp_regina_11082022,2022.2.4,120.183729666381
1,14,9,0,0.111111111111111,0.298245614035088,0,0.25,3.10526315789474,0,0.444444444444444,1.0,ReadingArea_rsl2-rcl11-esl29-rsm2-rcm25-esm310-rsr2-rcr44-esr100,exr/ReadingArea_rsl2-rcl11-esl29-rsm2-rcm25-esm310-rsr2-rcr44-esr100.exr,ReadingArea_rsl2-rcl11-esl29-rsm2-rcm25-esm310-rsr2-rcr44-esr100.npz,,,,,0,83,83,305,,right,red,1.44,412.598239898682,413.032752990723,,2,,AS,2,lightness,readingArea,mean,72,2023-03-10_14h54.01.506,tripletExp_regina_11082022,2022.2.4,120.183729666381
11,10,4,0,1.0,1.0,0,0.694444444444444,1.0,0,0.694444444444444,0.298245614035088,ReadingArea_rsl2-rcl100-esl100-rsm2-rcm69-esm100-rsr2-rcr69-esr29,exr/ReadingArea_rsl2-rcl100-esl100-rsm2-rcm69-esm100-rsr2-rcr69-esr29.exr,ReadingArea_rsl2-rcl100-esl100-rsm2-rcm69-esm100-rsr2-rcr69-esr29.npz,,,,,0,84,84,175,,left,green,1.11,414.721724033356,415.068423986435,,2,,AS,2,lightness,readingArea,mean,72,2023-03-10_14h54.01.506,tripletExp_regina_11082022,2022.2.4,120.183729666381
10,3,2,0,0.694444444444444,1.0,0,0.444444444444444,0.298245614035088,0,0.25,0.298245614035088,ReadingArea_rsl2-rcl69-esl100-rsm2-rcm44-esm29-rsr2-rcr25-esr29,exr/ReadingArea_rsl2-rcl69-esl100-rsm2-rcm44-esm29-rsr2-rcr25-esr29.exr,ReadingArea_rsl2-rcl69-esl100-rsm2-rcm44-esm29-rsr2-rcr25-esr29.npz,,,,,0,85,85,287,,right,red,0.9,416.757087945938,417.091657876968,,2,,AS,2,lightness,readingArea,mean,72,2023-03-10_14h54.01.506,tripletExp_regina_11082022,2022.2.4,120.183729666381
6,14,5,0,0.027777777777778,1.0,0,0.25,3.10526315789474,0,1.0,0.298245614035088,ReadingArea_rsl2-rcl2-esl100-rsm2-rcm25-esm310-rsr2-rcr100-esr29,exr/ReadingArea_rsl2-rcl2-esl100-rsm2-rcm25-esm310-rsr2-rcr100-esr29.exr,ReadingArea_rsl2-rcl2-esl100-rsm2-rcm25-esm310-rsr2-rcr100-esr29.npz,,,,,0,86,86,396,,right,red,0.96,418.800196886063,419.136729955673,,2,,AS,2,lightness,readingArea,mean,72,2023-03-10_14h54.01.506,tripletExp_regina_11082022,2022.2.4,120.183729666381
5,4,9,0,1.0,0.298245614035088,0,0.694444444444444,0.298245614035088,0,0.444444444444444,1.0,ReadingArea_rsl2-rcl100-esl29-rsm2-rcm69-esm29-rsr2-rcr44-esr100,exr/ReadingArea_rsl2-rcl100-esl29-rsm2-rcm69-esm29-rsr2-rcr44-esr100.exr,ReadingArea_rsl2-rcl100-esl29-rsm2-rcm69-esm29-rsr2-rcr44-esr100.npz,,,,,0,87,87,380,,left,green,1.38,420.835520029068,,,2,,AS,2,lightness,readingArea,mean,72,2023-03-10_14h54.01.506,tripletExp_regina_11082022,2022.2.4,120.183729666381
2,10,8,0,0.25,0.298245614035088,0,0.694444444444444,1.0,0,0.25,1.0,ReadingArea_rsl2-rcl25-esl29-rsm2-rcm69-esm100-rsr2-rcr25-esr100,exr/ReadingArea_rsl2-rcl25-esl29-rsm2-rcm69-esm100-rsr2-rcr25-esr100.exr,ReadingArea_rsl2-rcl25-esl29-rsm2-rcm69-esm100-rsr2-rcr25-esr100.npz,,,,,0,88,88,38,,right,red,1.28,422.882223844528,423.229063987732,,2,,AS,2,lightness,readingArea,mean,72,2023-03-10_14h54.01.506,tripletExp_regina_11082022,2022.2.4,120.183729666381
10,3,8,0,0.694444444444444,1.0,0,0.444444444444444,0.298245614035088,0,0.25,1.0,ReadingArea_rsl2-rcl69-esl100-rsm2-rcm44-esm29-rsr2-rcr25-esr100,exr/ReadingArea_rsl2-rcl69-esl100-rsm2-rcm44-esm29-rsr2-rcr25-esr100.exr,ReadingArea_rsl2-rcl69-esl100-rsm2-rcm44-esm29-rsr2-rcr25-esr100.npz,,,,,0,89,89,180,,right,red,0.91,424.933149814606,425.25519990921,,2,,AS,2,lightness,readingArea,mean,72,2023-03-10_14h54.01.506,tripletExp_regina_11082022,2022.2.4,120.183729666381
10,6,2,0,0.694444444444444,1.0,0,0.027777777777778,1.0,0,0.25,0.298245614035088,ReadingArea_rsl2-rcl69-esl100-rsm2-rcm2-esm100-rsr2-rcr25-esr29,exr/ReadingArea_rsl2-rcl69-esl100-rsm2-rcm2-esm100-rsr2-rcr25-esr29.exr,ReadingArea_rsl2-rcl69-esl100-rsm2-rcm2-esm100-rsr2-rcr25-esr29.npz,,,,,0,90,90,341,,right,red,0.93,426.950176000595,427.277333021164,,2,,AS,2,lightness,readingArea,mean,72,2023-03-10_14h54.01.506,tripletExp_regina_11082022,2022.2.4,120.183729666381
13,4,9,0,0.111111111111111,3.10526315789474,0,0.694444444444444,0.298245614035088,0,0.444444444444444,1.0,ReadingArea_rsl2-rcl11-esl310-rsm2-rcm69-esm29-rsr2-rcr44-esr100,exr/ReadingArea_rsl2-rcl11-esl310-rsm2-rcm69-esm29-rsr2-rcr44-esr100.exr,ReadingArea_rsl2-rcl11-esl310-rsm2-rcm69-esm29-rsr2-rcr44-esr100.npz,,,,,0,91,91,436,,left,green,2.16,430.770079851151,,,2,,AS,2,lightness,readingArea,mean,72,2023-03-10_14h54.01.506,tripletExp_regina_11082022,2022.2.4,120.183729666381
6,3,13,0,0.027777777777778,1.0,0,0.444444444444444,0.298245614035088,0,0.111111111111111,3.10526315789474,ReadingArea_rsl2-rcl2-esl100-rsm2-rcm44-esm29-rsr2-rcr11-esr310,exr/ReadingArea_rsl2-rcl2-esl100-rsm2-rcm44-esm29-rsr2-rcr11-esr310.exr,ReadingArea_rsl2-rcl2-esl100-rsm2-rcm44-esm29-rsr2-rcr11-esr310.npz,,,,,0,92,92,306,,right,red,4.43,436.346004009247,,,2,,AS,2,lightness,readingArea,mean,72,2023-03-10_14h54.01.506,tripletExp_regina_11082022,2022.2.4,120.183729666381
8,1,3,0,0.25,1.0,0,0.111111111111111,0.298245614035088,0,0.444444444444444,0.298245614035088,ReadingArea_rsl2-rcl25-esl100-rsm2-rcm11-esm29-rsr2-rcr44-esr29,exr/ReadingArea_rsl2-rcl25-esl100-rsm2-rcm11-esm29-rsr2-rcr44-esr29.exr,ReadingArea_rsl2-rcl25-esl100-rsm2-rcm11-esm29-rsr2-rcr44-esr29.npz,,,,,0,93,93,65,,right,red,1.05,438.508839845657,438.856798887253,,2,,AS,2,lightness,readingArea,mean,72,2023-03-10_14h54.01.506,tripletExp_regina_11082022,2022.2.4,120.183729666381
13,8,1,0,0.111111111111111,3.10526315789474,0,0.25,1.0,0,0.111111111111111,0.298245614035088,ReadingArea_rsl2-rcl11-esl310-rsm2-rcm25-esm100-rsr2-rcr11-esr29,exr/ReadingArea_rsl2-rcl11-esl310-rsm2-rcm25-esm100-rsr2-rcr11-esr29.exr,ReadingArea_rsl2-rcl11-esl310-rsm2-rcm25-esm100-rsr2-rcr11-esr29.npz,,,,,0,94,94,499,,left,green,1.38,440.569406032562,440.898005008698,,2,,AS,2,lightness,readingArea,mean,72,2023-03-10_14h54.01.506,tripletExp_regina_11082022,2022.2.4,120.183729666381
14,5,6,0,0.25,3.10526315789474,0,1.0,0.298245614035088,0,0.027777777777778,1.0,ReadingArea_rsl2-rcl25-esl310-rsm2-rcm100-esm29-rsr2-rcr2-esr100,exr/ReadingArea_rsl2-rcl25-esl310-rsm2-rcm100-esm29-rsr2-rcr2-esr100.exr,ReadingArea_rsl2-rcl25-esl310-rsm2-rcm100-esm29-rsr2-rcr2-esr100.npz,,,,,0,95,95,124,,left,green,2.31,444.359880924225,444.694020032883,,2,,AS,2,lightness,readingArea,mean,72,2023-03-10_14h54.01.506,tripletExp_regina_11082022,2022.2.4,120.183729666381
0,13,1,0,0.027777777777778,0.298245614035088,0,0.111111111111111,3.10526315789474,0,0.111111111111111,0.298245614035088,ReadingArea_rsl2-rcl2-esl29-rsm2-rcm11-esm310-rsr2-rcr11-esr29,exr/ReadingArea_rsl2-rcl2-esl29-rsm2-rcm11-esm310-rsr2-rcr11-esr29.exr,ReadingArea_rsl2-rcl2-esl29-rsm2-rcm11-esm310-rsr2-rcr11-esr29.npz,,,,,0,96,96,166,,right,red,1.06,446.415516853333,446.755331993103,,2,,AS,2,lightness,readingArea,mean,72,2023-03-10_14h54.01.506,tripletExp_regina_11082022,2022.2.4,120.183729666381
5,6,11,0,1.0,0.298245614035088,0,0.027777777777778,1.0,0,1.0,1.0,ReadingArea_rsl2-rcl100-esl29-rsm2-rcm2-esm100-rsr2-rcr100-esr100,exr/ReadingArea_rsl2-rcl100-esl29-rsm2-rcm2-esm100-rsr2-rcr100-esr100.exr,ReadingArea_rsl2-rcl100-esl29-rsm2-rcm2-esm100-rsr2-rcr100-esr100.npz,,,,,0,97,97,8,,left,green,1.23,448.462842941284,448.801600933075,,2,,AS,2,lightness,readingArea,mean,72,2023-03-10_14h54.01.506,tripletExp_regina_11082022,2022.2.4,120.183729666381
14,3,13,0,0.25,3.10526315789474,0,0.444444444444444,0.298245614035088,0,0.111111111111111,3.10526315789474,ReadingArea_rsl2-rcl25-esl310-rsm2-rcm44-esm29-rsr2-rcr11-esr310,exr/ReadingArea_rsl2-rcl25-esl310-rsm2-rcm44-esm29-rsr2-rcr11-esr310.exr,ReadingArea_rsl2-rcl25-esl310-rsm2-rcm44-esm29-rsr2-rcr11-esr310.npz,,,,,0,98,98,97,,right,red,0.94,450.499078035355,450.846405982971,,2,,AS,2,lightness,readingArea,mean,72,2023-03-10_14h54.01.506,tripletExp_regina_11082022,2022.2.4,120.183729666381
10,1,12,0,0.694444444444444,1.0,0,0.111111111111111,0.298245614035088,0,0.027777777777778,3.10526315789474,ReadingArea_rsl2-rcl69-esl100-rsm2-rcm11-esm29-rsr2-rcr2-esr310,exr/ReadingArea_rsl2-rcl69-esl100-rsm2-rcm11-esm29-rsr2-rcr2-esr310.exr,ReadingArea_rsl2-rcl69-esl100-rsm2-rcm11-esm29-rsr2-rcr2-esr310.npz,,,,,0,99,99,105,,right,red,0.89,452.54446387291,452.868501901627,,2,,AS,2,lightness,readingArea,mean,72,2023-03-10_14h54.01.506,tripletExp_regina_11082022,2022.2.4,120.183729666381
9,14,0,0,0.444444444444444,1.0,0,0.25,3.10526315789474,0,0.027777777777778,0.298245614035088,ReadingArea_rsl2-rcl44-esl100-rsm2-rcm25-esm310-rsr2-rcr2-esr29,exr/ReadingArea_rsl2-rcl44-esl100-rsm2-rcm25-esm310-rsr2-rcr2-esr29.exr,ReadingArea_rsl2-rcl44-esl100-rsm2-rcm25-esm310-rsr2-rcr2-esr29.npz,,,,,0,100,100,480,,left,green,1.29,454.577587842941,454.916354894638,,2,,AS,2,lightness,readingArea,mean,72,2023-03-10_14h54.01.506,tripletExp_regina_11082022,2022.2.4,120.183729666381
3,6,1,0,0.444444444444444,0.298245614035088,0,0.027777777777778,1.0,0,0.111111111111111,0.298245614035088,ReadingArea_rsl2-rcl44-esl29-rsm2-rcm2-esm100-rsr2-rcr11-esr29,exr/ReadingArea_rsl2-rcl44-esl29-rsm2-rcm2-esm100-rsr2-rcr11-esr29.exr,ReadingArea_rsl2-rcl44-esl29-rsm2-rcm2-esm100-rsr2-rcr11-esr29.npz,,,,,0,101,101,355,,right,red,1.02,456.615561008453,456.962126016617,,2,,AS,2,lightness,readingArea,mean,72,2023-03-10_14h54.01.506,tripletExp_regina_11082022,2022.2.4,120.183729666381
7,11,4,0,0.111111111111111,1.0,0,1.0,1.0,0,0.694444444444444,0.298245614035088,ReadingArea_rsl2-rcl11-esl100-rsm2-rcm100-esm100-rsr2-rcr69-esr29,exr/ReadingArea_rsl2-rcl11-esl100-rsm2-rcm100-esm100-rsr2-rcr69-esr29.exr,ReadingArea_rsl2-rcl11-esl100-rsm2-rcm100-esm100-rsr2-rcr69-esr29.npz,,,,,0,102,102,434,,right,red,1.05,458.686204910278,459.024803876877,,2,,AS,2,lightness,readingArea,mean,72,2023-03-10_14h54.01.506,tripletExp_regina_11082022,2022.2.4,120.183729666381
14,13,5,0,0.25,3.10526315789474,0,0.111111111111111,3.10526315789474,0,1.0,0.298245614035088,ReadingArea_rsl2-rcl25-esl310-rsm2-rcm11-esm310-rsr2-rcr100-esr29,exr/ReadingArea_rsl2-rcl25-esl310-rsm2-rcm11-esm310-rsr2-rcr100-esr29.exr,ReadingArea_rsl2-rcl25-esl310-rsm2-rcm11-esm310-rsr2-rcr100-esr29.npz,,,,,0,103,103,194,,right,red,0.84,460.728942871094,461.139819860458,,2,,AS,2,lightness,readingArea,mean,72,2023-03-10_14h54.01.506,tripletExp_regina_11082022,2022.2.4,120.183729666381
2,9,6,0,0.25,0.298245614035088,0,0.444444444444444,1.0,0,0.027777777777778,1.0,ReadingArea_rsl2-rcl25-esl29-rsm2-rcm44-esm100-rsr2-rcr2-esr100,exr/ReadingArea_rsl2-rcl25-esl29-rsm2-rcm44-esm100-rsr2-rcr2-esr100.exr,ReadingArea_rsl2-rcl25-esl29-rsm2-rcm44-esm100-rsr2-rcr2-esr100.npz,,,,,0,104,104,412,,left,green,2.86,464.626753807068,464.978088855743,,2,,AS,2,lightness,readingArea,mean,72,2023-03-10_14h54.01.506,tripletExp_regina_11082022,2022.2.4,120.183729666381
3,9,10,0,0.444444444444444,0.298245614035088,0,0.444444444444444,1.0,0,0.694444444444444,1.0,ReadingArea_rsl2-rcl44-esl29-rsm2-rcm44-esm100-rsr2-rcr69-esr100,exr/ReadingArea_rsl2-rcl44-esl29-rsm2-rcm44-esm100-rsr2-rcr69-esr100.exr,ReadingArea_rsl2-rcl44-esl29-rsm2-rcm44-esm100-rsr2-rcr69-esr100.npz,,,,,0,105,105,397,,right,red,0.95,466.674563884735,467.103842020035,,2,,AS,2,lightness,readingArea,mean,72,2023-03-10_14h54.01.506,tripletExp_regina_11082022,2022.2.4,120.183729666381
3,13,10,0,0.444444444444444,0.298245614035088,0,0.111111111111111,3.10526315789474,0,0.694444444444444,1.0,ReadingArea_rsl2-rcl44-esl29-rsm2-rcm11-esm310-rsr2-rcr69-esr100,exr/ReadingArea_rsl2-rcl44-esl29-rsm2-rcm11-esm310-rsr2-rcr69-esr100.exr,ReadingArea_rsl2-rcl44-esl29-rsm2-rcm11-esm310-rsr2-rcr69-esr100.npz,,,,,0,106,106,115,,left,green,1.55,468.806222915649,469.144901990891,,2,,AS,2,lightness,readingArea,mean,72,2023-03-10_14h54.01.506,tripletExp_regina_11082022,2022.2.4,120.183729666381
5,12,1,0,1.0,0.298245614035088,0,0.027777777777778,3.10526315789474,0,0.111111111111111,0.298245614035088,ReadingArea_rsl2-rcl100-esl29-rsm2-rcm2-esm310-rsr2-rcr11-esr29,exr/ReadingArea_rsl2-rcl100-esl29-rsm2-rcm2-esm310-rsr2-rcr11-esr29.exr,ReadingArea_rsl2-rcl100-esl29-rsm2-rcm2-esm310-rsr2-rcr11-esr29.npz,,,,,0,107,107,85,,right,red,1.07,470.850455999374,471.196928024292,,2,,AS,2,lightness,readingArea,mean,72,2023-03-10_14h54.01.506,tripletExp_regina_11082022,2022.2.4,120.183729666381
9,1,6,0,0.444444444444444,1.0,0,0.111111111111111,0.298245614035088,0,0.027777777777778,1.0,ReadingArea_rsl2-rcl44-esl100-rsm2-rcm11-esm29-rsr2-rcr2-esr100,exr/ReadingArea_rsl2-rcl44-esl100-rsm2-rcm11-esm29-rsr2-rcr2-esr100.exr,ReadingArea_rsl2-rcl44-esl100-rsm2-rcm11-esm29-rsr2-rcr2-esr100.npz,,,,,0,108,108,187,,right,red,1.23,472.899854898453,473.241034984589,,2,,AS,2,lightness,readingArea,mean,72,2023-03-10_14h54.01.506,tripletExp_regina_11082022,2022.2.4,120.183729666381
13,11,14,0,0.111111111111111,3.10526315789474,0,1.0,1.0,0,0.25,3.10526315789474,ReadingArea_rsl2-rcl11-esl310-rsm2-rcm100-esm100-rsr2-rcr25-esr310,exr/ReadingArea_rsl2-rcl11-esl310-rsm2-rcm100-esm100-rsr2-rcr25-esr310.exr,ReadingArea_rsl2-rcl11-esl310-rsm2-rcm100-esm100-rsr2-rcr25-esr310.npz,,,,,0,109,109,444,,right,red,1.29,474.961097002029,475.290500879288,,2,,AS,2,lightness,readingArea,mean,72,2023-03-10_14h54.01.506,tripletExp_regina_11082022,2022.2.4,120.183729666381
11,1,8,0,1.0,1.0,0,0.111111111111111,0.298245614035088,0,0.25,1.0,ReadingArea_rsl2-rcl100-esl100-rsm2-rcm11-esm29-rsr2-rcr25-esr100,exr/ReadingArea_rsl2-rcl100-esl100-rsm2-rcm11-esm29-rsr2-rcr25-esr100.exr,ReadingArea_rsl2-rcl100-esl100-rsm2-rcm11-esm29-rsr2-rcr25-esr100.npz,,,,,0,110,110,195,,right,red,0.97,476.995329856873,477.351948022842,,2,,AS,2,lightness,readingArea,mean,72,2023-03-10_14h54.01.506,tripletExp_regina_11082022,2022.2.4,120.183729666381
8,4,11,0,0.25,1.0,0,0.694444444444444,0.298245614035088,0,1.0,1.0,ReadingArea_rsl2-rcl25-esl100-rsm2-rcm69-esm29-rsr2-rcr100-esr100,exr/ReadingArea_rsl2-rcl25-esl100-rsm2-rcm69-esm29-rsr2-rcr100-esr100.exr,ReadingArea_rsl2-rcl25-esl100-rsm2-rcm69-esm29-rsr2-rcr100-esr100.npz,,,,,0,111,111,340,,left,green,1.04,479.047196865082,479.447223901749,,2,,AS,2,lightness,readingArea,mean,72,2023-03-10_14h54.01.506,tripletExp_regina_11082022,2022.2.4,120.183729666381
14,11,5,0,0.25,3.10526315789474,0,1.0,1.0,0,1.0,0.298245614035088,ReadingArea_rsl2-rcl25-esl310-rsm2-rcm100-esm100-rsr2-rcr100-esr29,exr/ReadingArea_rsl2-rcl25-esl310-rsm2-rcm100-esm100-rsr2-rcr100-esr29.exr,ReadingArea_rsl2-rcl25-esl310-rsm2-rcm100-esm100-rsr2-rcr100-esr29.npz,,,,,0,112,112,363,,left,green,1.66,481.151813030243,481.474822998047,,2,,AS,2,lightness,readingArea,mean,72,2023-03-10_14h54.01.506,tripletExp_regina_11082022,2022.2.4,120.183729666381
7,5,8,0,0.111111111111111,1.0,0,1.0,0.298245614035088,0,0.25,1.0,ReadingArea_rsl2-rcl11-esl100-rsm2-rcm100-esm29-rsr2-rcr25-esr100,exr/ReadingArea_rsl2-rcl11-esl100-rsm2-rcm100-esm29-rsr2-rcr25-esr100.exr,ReadingArea_rsl2-rcl11-esl100-rsm2-rcm100-esm29-rsr2-rcr25-esr100.npz,,,,,0,113,113,110,,right,red,1.39,483.197788000107,483.554126977921,,2,,AS,2,lightness,readingArea,mean,72,2023-03-10_14h54.01.506,tripletExp_regina_11082022,2022.2.4,120.183729666381
11,8,3,0,1.0,1.0,0,0.25,1.0,0,0.444444444444444,0.298245614035088,ReadingArea_rsl2-rcl100-esl100-rsm2-rcm25-esm100-rsr2-rcr44-esr29,exr/ReadingArea_rsl2-rcl100-esl100-rsm2-rcm25-esm100-rsr2-rcr44-esr29.exr,ReadingArea_rsl2-rcl100-esl100-rsm2-rcm25-esm100-rsr2-rcr44-esr29.npz,,,,,0,114,114,198,,right,red,0.91,485.249444007874,485.596721887589,,2,,AS,2,lightness,readingArea,mean,72,2023-03-10_14h54.01.506,tripletExp_regina_11082022,2022.2.4,120.183729666381
1,12,9,0,0.111111111111111,0.298245614035088,0,0.027777777777778,3.10526315789474,0,0.444444444444444,1.0,ReadingArea_rsl2-rcl11-esl29-rsm2-rcm2-esm310-rsr2-rcr44-esr100,exr/ReadingArea_rsl2-rcl11-esl29-rsm2-rcm2-esm310-rsr2-rcr44-esr100.exr,ReadingArea_rsl2-rcl11-esl29-rsm2-rcm2-esm310-rsr2-rcr44-esr100.npz,,,,,0,115,115,497,,left,green,0.9,487.284915924072,487.608417034149,,2,,AS,2,lightness,readingArea,mean,72,2023-03-10_14h54.01.506,tripletExp_regina_11082022,2022.2.4,120.183729666381
9,13,7,0,0.444444444444444,1.0,0,0.111111111111111,3.10526315789474,0,0.111111111111111,1.0,ReadingArea_rsl2-rcl44-esl100-rsm2-rcm11-esm310-rsr2-rcr11-esr100,exr/ReadingArea_rsl2-rcl44-esl100-rsm2-rcm11-esm310-rsr2-rcr11-esr100.exr,ReadingArea_rsl2-rcl44-esl100-rsm2-rcm11-esm310-rsr2-rcr11-esr100.npz,,,,,0,116,116,104,,right,red,1.27,489.330555915833,489.684114933014,,2,,AS,2,lightness,readingArea,mean,72,2023-03-10_14h54.01.506,tripletExp_regina_11082022,2022.2.4,120.183729666381
1,11,0,0,0.111111111111111,0.298245614035088,0,1.0,1.0,0,0.027777777777778,0.298245614035088,ReadingArea_rsl2-rcl11-esl29-rsm2-rcm100-esm100-rsr2-rcr2-esr29,exr/ReadingArea_rsl2-rcl11-esl29-rsm2-rcm100-esm100-rsr2-rcr2-esr29.exr,ReadingArea_rsl2-rcl11-esl29-rsm2-rcm100-esm100-rsr2-rcr2-esr29.npz,,,,,0,117,117,430,,left,green,2.27,493.182855844498,493.521083831787,,2,,AS,2,lightness,readingArea,mean,72,2023-03-10_14h54.01.506,tripletExp_regina_11082022,2022.2.4,120.183729666381
6,10,3,0,0.027777777777778,1.0,0,0.694444444444444,1.0,0,0.444444444444444,0.298245614035088,ReadingArea_rsl2-rcl2-esl100-rsm2-rcm69-esm100-rsr2-rcr44-esr29,exr/ReadingArea_rsl2-rcl2-esl100-rsm2-rcm69-esm100-rsr2-rcr44-esr29.exr,ReadingArea_rsl2-rcl2-esl100-rsm2-rcm69-esm100-rsr2-rcr44-esr29.npz,,,,,0,118,118,149,,right,red,1.59,495.228142023087,495.55500793457,,2,,AS,2,lightness,readingArea,mean,72,2023-03-10_14h54.01.506,tripletExp_regina_11082022,2022.2.4,120.183729666381
5,9,11,0,1.0,0.298245614035088,0,0.444444444444444,1.0,0,1.0,1.0,ReadingArea_rsl2-rcl100-esl29-rsm2-rcm44-esm100-rsr2-rcr100-esr100,exr/ReadingArea_rsl2-rcl100-esl29-rsm2-rcm44-esm100-rsr2-rcr100-esr100.exr,ReadingArea_rsl2-rcl100-esl29-rsm2-rcm44-esm100-rsr2-rcr100-esr100.npz,,,,,0,119,119,236,,left,green,2.07,499.026235818863,499.372377872467,,2,,AS,2,lightness,readingArea,mean,72,2023-03-10_14h54.01.506,tripletExp_regina_11082022,2022.2.4,120.183729666381
10,14,9,0,0.694444444444444,1.0,0,0.25,3.10526315789474,0,0.444444444444444,1.0,ReadingArea_rsl2-rcl69-esl100-rsm2-rcm25-esm310-rsr2-rcr44-esr100,exr/ReadingArea_rsl2-rcl69-esl100-rsm2-rcm25-esm310-rsr2-rcr44-esr100.exr,ReadingArea_rsl2-rcl69-esl100-rsm2-rcm25-esm310-rsr2-rcr44-esr100.npz,,,,,0,120,120,443,,right,red,1.31,501.068661928177,501.409520864487,,2,,AS,2,lightness,readingArea,mean,72,2023-03-10_14h54.01.506,tripletExp_regina_11082022,2022.2.4,120.183729666381
14,10,7,0,0.25,3.10526315789474,0,0.694444444444444,1.0,0,0.111111111111111,1.0,ReadingArea_rsl2-rcl25-esl310-rsm2-rcm69-esm100-rsr2-rcr11-esr100,exr/ReadingArea_rsl2-rcl25-esl310-rsm2-rcm69-esm100-rsr2-rcr11-esr100.exr,ReadingArea_rsl2-rcl25-esl310-rsm2-rcm69-esm100-rsr2-rcr11-esr100.npz,,,,,0,121,121,203,,left,green,0.89,503.136363983154,503.475694894791,,2,,AS,2,lightness,readingArea,mean,72,2023-03-10_14h54.01.506,tripletExp_regina_11082022,2022.2.4,120.183729666381
0,8,7,0,0.027777777777778,0.298245614035088,0,0.25,1.0,0,0.111111111111111,1.0,ReadingArea_rsl2-rcl2-esl29-rsm2-rcm25-esm100-rsr2-rcr11-esr100,exr/ReadingArea_rsl2-rcl2-esl29-rsm2-rcm25-esm100-rsr2-rcr11-esr100.exr,ReadingArea_rsl2-rcl2-esl29-rsm2-rcm25-esm100-rsr2-rcr11-esr100.npz,,,,,0,122,122,135,,right,red,0.96,505.175007820129,505.549862861633,,2,,AS,2,lightness,readingArea,mean,72,2023-03-10_14h54.01.506,tripletExp_regina_11082022,2022.2.4,120.183729666381
4,5,8,0,0.694444444444444,0.298245614035088,0,1.0,0.298245614035088,0,0.25,1.0,ReadingArea_rsl2-rcl69-esl29-rsm2-rcm100-esm29-rsr2-rcr25-esr100,exr/ReadingArea_rsl2-rcl69-esl29-rsm2-rcm100-esm29-rsr2-rcr25-esr100.exr,ReadingArea_rsl2-rcl69-esl29-rsm2-rcm100-esm29-rsr2-rcr25-esr100.npz,,,,,0,123,123,95,,left,green,3.1,509.013396024704,509.341725826263,,2,,AS,2,lightness,readingArea,mean,72,2023-03-10_14h54.01.506,tripletExp_regina_11082022,2022.2.4,120.183729666381
4,2,5,0,0.694444444444444,0.298245614035088,0,0.25,0.298245614035088,0,1.0,0.298245614035088,ReadingArea_rsl2-rcl69-esl29-rsm2-rcm25-esm29-rsr2-rcr100-esr29,exr/ReadingArea_rsl2-rcl69-esl29-rsm2-rcm25-esm29-rsr2-rcr100-esr29.exr,ReadingArea_rsl2-rcl69-esl29-rsm2-rcm25-esm29-rsr2-rcr100-esr29.npz,,,,,0,124,124,483,,left,green,1.45,511.046936035156,511.478672027588,,2,,AS,2,lightness,readingArea,mean,72,2023-03-10_14h54.01.506,tripletExp_regina_11082022,2022.2.4,120.183729666381
12,0,14,0,0.027777777777778,3.10526315789474,0,0.027777777777778,0.298245614035088,0,0.25,3.10526315789474,ReadingArea_rsl2-rcl2-esl310-rsm2-rcm2-esm29-rsr2-rcr25-esr310,exr/ReadingArea_rsl2-rcl2-esl310-rsm2-rcm2-esm29-rsr2-rcr25-esr310.exr,ReadingArea_rsl2-rcl2-esl310-rsm2-rcm2-esm29-rsr2-rcr25-esr310.npz,,,,,0,125,125,452,,left,green,1.15,513.178269863129,513.506536960602,,2,,AS,2,lightness,readingArea,mean,72,2023-03-10_14h54.01.506,tripletExp_regina_11082022,2022.2.4,120.183729666381
7,5,2,0,0.111111111111111,1.0,0,1.0,0.298245614035088,0,0.25,0.298245614035088,ReadingArea_rsl2-rcl11-esl100-rsm2-rcm100-esm29-rsr2-rcr25-esr29,exr/ReadingArea_rsl2-rcl11-esl100-rsm2-rcm100-esm29-rsr2-rcr25-esr29.exr,ReadingArea_rsl2-rcl11-esl100-rsm2-rcm100-esm29-rsr2-rcr25-esr29.npz,,,,,0,126,126,369,,left,green,2.72,517.005945920944,517.376485824585,,2,,AS,2,lightness,readingArea,mean,72,2023-03-10_14h54.01.506,tripletExp_regina_11082022,2022.2.4,120.183729666381
3,5,8,0,0.444444444444444,0.298245614035088,0,1.0,0.298245614035088,0,0.25,1.0,ReadingArea_rsl2-rcl44-esl29-rsm2-rcm100-esm29-rsr2-rcr25-esr100,exr/ReadingArea_rsl2-rcl44-esl29-rsm2-rcm100-esm29-rsr2-rcr25-esr100.exr,ReadingArea_rsl2-rcl44-esl29-rsm2-rcm100-esm29-rsr2-rcr25-esr100.npz,,,,,0,127,127,352,,right,red,1.18,519.077806949615,519.416584968567,,2,,AS,2,lightness,readingArea,mean,72,2023-03-10_14h54.01.506,tripletExp_regina_11082022,2022.2.4,120.183729666381
0,12,4,0,0.027777777777778,0.298245614035088,0,0.027777777777778,3.10526315789474,0,0.694444444444444,0.298245614035088,ReadingArea_rsl2-rcl2-esl29-rsm2-rcm2-esm310-rsr2-rcr69-esr29,exr/ReadingArea_rsl2-rcl2-esl29-rsm2-rcm2-esm310-rsr2-rcr69-esr29.exr,ReadingArea_rsl2-rcl2-esl29-rsm2-rcm2-esm310-rsr2-rcr69-esr29.npz,,,,,0,128,128,141,,right,red,2.22,522.910889863968,523.244376897812,,2,,AS,2,lightness,readingArea,mean,72,2023-03-10_14h54.01.506,tripletExp_regina_11082022,2022.2.4,120.183729666381
0,4,12,0,0.027777777777778,0.298245614035088,0,0.694444444444444,0.298245614035088,0,0.027777777777778,3.10526315789474,ReadingArea_rsl2-rcl2-esl29-rsm2-rcm69-esm29-rsr2-rcr2-esr310,exr/ReadingArea_rsl2-rcl2-esl29-rsm2-rcm69-esm29-rsr2-rcr2-esr310.exr,ReadingArea_rsl2-rcl2-esl29-rsm2-rcm69-esm29-rsr2-rcr2-esr310.npz,,,,,0,129,129,353,,right,red,2.41,526.719138860703,,,2,,AS,2,lightness,readingArea,mean,72,2023-03-10_14h54.01.506,tripletExp_regina_11082022,2022.2.4,120.183729666381
7,10,5,0,0.111111111111111,1.0,0,0.694444444444444,1.0,0,1.0,0.298245614035088,ReadingArea_rsl2-rcl11-esl100-rsm2-rcm69-esm100-rsr2-rcr100-esr29,exr/ReadingArea_rsl2-rcl11-esl100-rsm2-rcm69-esm100-rsr2-rcr100-esr29.exr,ReadingArea_rsl2-rcl11-esl100-rsm2-rcm69-esm100-rsr2-rcr100-esr29.npz,,,,,0,130,130,459,,right,red,4.15,532.302229881287,532.64156293869,,2,,AS,2,lightness,readingArea,mean,72,2023-03-10_14h54.01.506,tripletExp_regina_11082022,2022.2.4,120.183729666381
6,5,14,0,0.027777777777778,1.0,0,1.0,0.298245614035088,0,0.25,3.10526315789474,ReadingArea_rsl2-rcl2-esl100-rsm2-rcm100-esm29-rsr2-rcr25-esr310,exr/ReadingArea_rsl2-rcl2-esl100-rsm2-rcm100-esm29-rsr2-rcr25-esr310.exr,ReadingArea_rsl2-rcl2-esl100-rsm2-rcm100-esm29-rsr2-rcr25-esr310.npz,,,,,0,131,131,450,,right,red,3.01,536.110620975494,536.437018871307,,2,,AS,2,lightness,readingArea,mean,72,2023-03-10_14h54.01.506,tripletExp_regina_11082022,2022.2.4,120.183729666381
8,5,0,0,0.25,1.0,0,1.0,0.298245614035088,0,0.027777777777778,0.298245614035088,ReadingArea_rsl2-rcl25-esl100-rsm2-rcm100-esm29-rsr2-rcr2-esr29,exr/ReadingArea_rsl2-rcl25-esl100-rsm2-rcm100-esm29-rsr2-rcr2-esr29.exr,ReadingArea_rsl2-rcl25-esl100-rsm2-rcm100-esm29-rsr2-rcr2-esr29.npz,,,,,0,132,132,113,,left,green,1.08,538.143231868744,538.496649980545,,2,,AS,2,lightness,readingArea,mean,72,2023-03-10_14h54.01.506,tripletExp_regina_11082022,2022.2.4,120.183729666381
10,3,13,0,0.694444444444444,1.0,0,0.444444444444444,0.298245614035088,0,0.111111111111111,3.10526315789474,ReadingArea_rsl2-rcl69-esl100-rsm2-rcm44-esm29-rsr2-rcr11-esr310,exr/ReadingArea_rsl2-rcl69-esl100-rsm2-rcm44-esm29-rsr2-rcr11-esr310.exr,ReadingArea_rsl2-rcl69-esl100-rsm2-rcm44-esm29-rsr2-rcr11-esr310.npz,,,,,0,133,133,134,,right,red,1.12,540.206446886063,540.55278801918,,2,,AS,2,lightness,readingArea,mean,72,2023-03-10_14h54.01.506,tripletExp_regina_11082022,2022.2.4,120.183729666381
3,2,0,0,0.444444444444444,0.298245614035088,0,0.25,0.298245614035088,0,0.027777777777778,0.298245614035088,ReadingArea_rsl2-rcl44-esl29-rsm2-rcm25-esm29-rsr2-rcr2-esr29,exr/ReadingArea_rsl2-rcl44-esl29-rsm2-rcm25-esm29-rsr2-rcr2-esr29.exr,ReadingArea_rsl2-rcl44-esl29-rsm2-rcm25-esm29-rsr2-rcr2-esr29.npz,,,,,0,134,134,370,,left,green,1.13,542.271039962769,,,2,,AS,2,lightness,readingArea,mean,72,2023-03-10_14h54.01.506,tripletExp_regina_11082022,2022.2.4,120.183729666381
14,13,1,0,0.25,3.10526315789474,0,0.111111111111111,3.10526315789474,0,0.111111111111111,0.298245614035088,ReadingArea_rsl2-rcl25-esl310-rsm2-rcm11-esm310-rsr2-rcr11-esr29,exr/ReadingArea_rsl2-rcl25-esl310-rsm2-rcm11-esm310-rsr2-rcr11-esr29.exr,ReadingArea_rsl2-rcl25-esl310-rsm2-rcm11-esm310-rsr2-rcr11-esr29.npz,,,,,0,135,135,241,,right,red,3.09,546.154683828354,,,2,,AS,2,lightness,readingArea,mean,72,2023-03-10_14h54.01.506,tripletExp_regina_11082022,2022.2.4,120.183729666381
13,4,3,0,0.111111111111111,3.10526315789474,0,0.694444444444444,0.298245614035088,0,0.444444444444444,0.298245614035088,ReadingArea_rsl2-rcl11-esl310-rsm2-rcm69-esm29-rsr2-rcr44-esr29,exr/ReadingArea_rsl2-rcl11-esl310-rsm2-rcm69-esm29-rsr2-rcr44-esr29.exr,ReadingArea_rsl2-rcl11-esl310-rsm2-rcm69-esm29-rsr2-rcr44-esr29.npz,,,,,0,136,136,143,,right,red,1.61,548.215287923813,548.590996980667,,2,,AS,2,lightness,readingArea,mean,72,2023-03-10_14h54.01.506,tripletExp_regina_11082022,2022.2.4,120.183729666381
11,14,5,0,1.0,1.0,0,0.25,3.10526315789474,0,1.0,0.298245614035088,ReadingArea_rsl2-rcl100-esl100-rsm2-rcm25-esm310-rsr2-rcr100-esr29,exr/ReadingArea_rsl2-rcl100-esl100-rsm2-rcm25-esm310-rsr2-rcr100-esr29.exr,ReadingArea_rsl2-rcl100-esl100-rsm2-rcm25-esm310-rsr2-rcr100-esr29.npz,,,,,0,137,137,274,,left,green,1.21,550.29666185379,550.620627880096,,2,,AS,2,lightness,readingArea,mean,72,2023-03-10_14h54.01.506,tripletExp_regina_11082022,2022.2.4,120.183729666381
7,1,0,0,0.111111111111111,1.0,0,0.111111111111111,0.298245614035088,0,0.027777777777778,0.298245614035088,ReadingArea_rsl2-rcl11-esl100-rsm2-rcm11-esm29-rsr2-rcr2-esr29,exr/ReadingArea_rsl2-rcl11-esl100-rsm2-rcm11-esm29-rsr2-rcr2-esr29.exr,ReadingArea_rsl2-rcl11-esl100-rsm2-rcm11-esm29-rsr2-rcr2-esr29.npz,,,,,0,138,138,46,,left,green,3.21,554.108204841614,554.471109867096,,2,,AS,2,lightness,readingArea,mean,72,2023-03-10_14h54.01.506,tripletExp_regina_11082022,2022.2.4,120.183729666381
12,0,6,0,0.027777777777778,3.10526315789474,0,0.027777777777778,0.298245614035088,0,0.027777777777778,1.0,ReadingArea_rsl2-rcl2-esl310-rsm2-rcm2-esm29-rsr2-rcr2-esr100,exr/ReadingArea_rsl2-rcl2-esl310-rsm2-rcm2-esm29-rsr2-rcr2-esr100.exr,ReadingArea_rsl2-rcl2-esl310-rsm2-rcm2-esm29-rsr2-rcr2-esr100.npz,,,,,0,139,139,53,,right,red,2.12,557.954344034195,558.283829927445,,2,,AS,2,lightness,readingArea,mean,72,2023-03-10_14h54.01.506,tripletExp_regina_11082022,2022.2.4,120.183729666381
13,5,11,0,0.111111111111111,3.10526315789474,0,1.0,0.298245614035088,0,1.0,1.0,ReadingArea_rsl2-rcl11-esl310-rsm2-rcm100-esm29-rsr2-rcr100-esr100,exr/ReadingArea_rsl2-rcl11-esl310-rsm2-rcm100-esm29-rsr2-rcr100-esr100.exr,ReadingArea_rsl2-rcl11-esl310-rsm2-rcm100-esm29-rsr2-rcr100-esr100.npz,,,,,0,140,140,101,,left,green,1.19,559.990546941757,,,2,,AS,2,lightness,readingArea,mean,72,2023-03-10_14h54.01.506,tripletExp_regina_11082022,2022.2.4,120.183729666381
3,11,7,0,0.444444444444444,0.298245614035088,0,1.0,1.0,0,0.111111111111111,1.0,ReadingArea_rsl2-rcl44-esl29-rsm2-rcm100-esm100-rsr2-rcr11-esr100,exr/ReadingArea_rsl2-rcl44-esl29-rsm2-rcm100-esm100-rsr2-rcr11-esr100.exr,ReadingArea_rsl2-rcl44-esl29-rsm2-rcm100-esm100-rsr2-rcr11-esr100.npz,,,,,0,141,141,404,,left,green,1.79,563.796713829041,564.138381958008,,2,,AS,2,lightness,readingArea,mean,72,2023-03-10_14h54.01.506,tripletExp_regina_11082022,2022.2.4,120.183729666381
1,6,5,0,0.111111111111111,0.298245614035088,0,0.027777777777778,1.0,0,1.0,0.298245614035088,ReadingArea_rsl2-rcl11-esl29-rsm2-rcm2-esm100-rsr2-rcr100-esr29,exr/ReadingArea_rsl2-rcl11-esl29-rsm2-rcm2-esm100-rsr2-rcr100-esr29.exr,ReadingArea_rsl2-rcl11-esl29-rsm2-rcm2-esm100-rsr2-rcr100-esr29.npz,,,,,0,142,142,324,,left,green,1.16,565.831634998322,566.188913822174,,2,,AS,2,lightness,readingArea,mean,72,2023-03-10_14h54.01.506,tripletExp_regina_11082022,2022.2.4,120.183729666381
8,12,2,0,0.25,1.0,0,0.027777777777778,3.10526315789474,0,0.25,0.298245614035088,ReadingArea_rsl2-rcl25-esl100-rsm2-rcm2-esm310-rsr2-rcr25-esr29,exr/ReadingArea_rsl2-rcl25-esl100-rsm2-rcm2-esm310-rsr2-rcr25-esr29.exr,ReadingArea_rsl2-rcl25-esl100-rsm2-rcm2-esm310-rsr2-rcr25-esr29.npz,,,,,0,143,143,68,,right,red,0.89,567.908428907394,,,2,,AS,2,lightness,readingArea,mean,72,2023-03-10_14h54.01.506,tripletExp_regina_11082022,2022.2.4,120.183729666381
8,13,2,0,0.25,1.0,0,0.111111111111111,3.10526315789474,0,0.25,0.298245614035088,ReadingArea_rsl2-rcl25-esl100-rsm2-rcm11-esm310-rsr2-rcr25-esr29,exr/ReadingArea_rsl2-rcl25-esl100-rsm2-rcm11-esm310-rsr2-rcr25-esr29.exr,ReadingArea_rsl2-rcl25-esl100-rsm2-rcm11-esm310-rsr2-rcr25-esr29.npz,,,,,0,144,144,259,,left,green,1.28,581.729624986649,582.092346906662,,3,,AS,2,lightness,readingArea,mean,72,2023-03-10_14h54.01.506,tripletExp_regina_11082022,2022.2.4,120.183729666381
2,9,1,0,0.25,0.298245614035088,0,0.444444444444444,1.0,0,0.111111111111111,0.298245614035088,ReadingArea_rsl2-rcl25-esl29-rsm2-rcm44-esm100-rsr2-rcr11-esr29,exr/ReadingArea_rsl2-rcl25-esl29-rsm2-rcm44-esm100-rsr2-rcr11-esr29.exr,ReadingArea_rsl2-rcl25-esl29-rsm2-rcm44-esm100-rsr2-rcr11-esr29.npz,,,,,0,145,145,32,,left,green,2.05,585.562428951263,585.893800973892,,3,,AS,2,lightness,readingArea,mean,72,2023-03-10_14h54.01.506,tripletExp_regina_11082022,2022.2.4,120.183729666381
9,1,12,0,0.444444444444444,1.0,0,0.111111111111111,0.298245614035088,0,0.027777777777778,3.10526315789474,ReadingArea_rsl2-rcl44-esl100-rsm2-rcm11-esm29-rsr2-rcr2-esr310,exr/ReadingArea_rsl2-rcl44-esl100-rsm2-rcm11-esm29-rsr2-rcr2-esr310.exr,ReadingArea_rsl2-rcl44-esl100-rsm2-rcm11-esm29-rsr2-rcr2-esr310.npz,,,,,0,146,146,290,,right,red,1.05,587.591120958328,587.947073936462,,3,,AS,2,lightness,readingArea,mean,72,2023-03-10_14h54.01.506,tripletExp_regina_11082022,2022.2.4,120.183729666381
10,3,11,0,0.694444444444444,1.0,0,0.444444444444444,0.298245614035088,0,1.0,1.0,ReadingArea_rsl2-rcl69-esl100-rsm2-rcm44-esm29-rsr2-rcr100-esr100,exr/ReadingArea_rsl2-rcl69-esl100-rsm2-rcm44-esm29-rsr2-rcr100-esr100.exr,ReadingArea_rsl2-rcl69-esl100-rsm2-rcm44-esm29-rsr2-rcr100-esr100.npz,,,,,0,147,147,168,,left,green,3.01,591.426079034805,591.757256031036,,3,,AS,2,lightness,readingArea,mean,72,2023-03-10_14h54.01.506,tripletExp_regina_11082022,2022.2.4,120.183729666381
6,0,5,0,0.027777777777778,1.0,0,0.027777777777778,0.298245614035088,0,1.0,0.298245614035088,ReadingArea_rsl2-rcl2-esl100-rsm2-rcm2-esm29-rsr2-rcr100-esr29,exr/ReadingArea_rsl2-rcl2-esl100-rsm2-rcm2-esm29-rsr2-rcr100-esr29.exr,ReadingArea_rsl2-rcl2-esl100-rsm2-rcm2-esm29-rsr2-rcr100-esr29.npz,,,,,0,148,148,498,,left,green,1.05,593.469564914703,593.812456846237,,3,,AS,2,lightness,readingArea,mean,72,2023-03-10_14h54.01.506,tripletExp_regina_11082022,2022.2.4,120.183729666381
11,3,13,0,1.0,1.0,0,0.444444444444444,0.298245614035088,0,0.111111111111111,3.10526315789474,ReadingArea_rsl2-rcl100-esl100-rsm2-rcm44-esm29-rsr2-rcr11-esr310,exr/ReadingArea_rsl2-rcl100-esl100-rsm2-rcm44-esm29-rsr2-rcr11-esr310.exr,ReadingArea_rsl2-rcl100-esl100-rsm2-rcm44-esm29-rsr2-rcr11-esr310.npz,,,,,0,149,149,243,,right,red,1.19,595.529901981354,,,3,,AS,2,lightness,readingArea,mean,72,2023-03-10_14h54.01.506,tripletExp_regina_11082022,2022.2.4,120.183729666381
10,8,7,0,0.694444444444444,1.0,0,0.25,1.0,0,0.111111111111111,1.0,ReadingArea_rsl2-rcl69-esl100-rsm2-rcm25-esm100-rsr2-rcr11-esr100,exr/ReadingArea_rsl2-rcl69-esl100-rsm2-rcm25-esm100-rsr2-rcr11-esr100.exr,ReadingArea_rsl2-rcl69-esl100-rsm2-rcm25-esm100-rsr2-rcr11-esr100.npz,,,,,0,150,150,51,,right,red,1.15,597.58108997345,597.939038038254,,3,,AS,2,lightness,readingArea,mean,72,2023-03-10_14h54.01.506,tripletExp_regina_11082022,2022.2.4,120.183729666381
6,9,10,0,0.027777777777778,1.0,0,0.444444444444444,1.0,0,0.694444444444444,1.0,ReadingArea_rsl2-rcl2-esl100-rsm2-rcm44-esm100-rsr2-rcr69-esr100,exr/ReadingArea_rsl2-rcl2-esl100-rsm2-rcm44-esm100-rsr2-rcr69-esr100.exr,ReadingArea_rsl2-rcl2-esl100-rsm2-rcm44-esm100-rsr2-rcr69-esr100.npz,,,,,0,151,151,44,,right,red,2.06,601.395608901978,601.744558811188,,3,,AS,2,lightness,readingArea,mean,72,2023-03-10_14h54.01.506,tripletExp_regina_11082022,2022.2.4,120.183729666381
10,7,11,0,0.694444444444444,1.0,0,0.111111111111111,1.0,0,1.0,1.0,ReadingArea_rsl2-rcl69-esl100-rsm2-rcm11-esm100-rsr2-rcr100-esr100,exr/ReadingArea_rsl2-rcl69-esl100-rsm2-rcm11-esm100-rsr2-rcr100-esr100.exr,ReadingArea_rsl2-rcl69-esl100-rsm2-rcm11-esm100-rsr2-rcr100-esr100.npz,,,,,0,152,152,59,,left,green,1.45,603.458091020584,603.804065942764,,3,,AS,2,lightness,readingArea,mean,72,2023-03-10_14h54.01.506,tripletExp_regina_11082022,2022.2.4,120.183729666381
6,8,5,0,0.027777777777778,1.0,0,0.25,1.0,0,1.0,0.298245614035088,ReadingArea_rsl2-rcl2-esl100-rsm2-rcm25-esm100-rsr2-rcr100-esr29,exr/ReadingArea_rsl2-rcl2-esl100-rsm2-rcm25-esm100-rsr2-rcr100-esr29.exr,ReadingArea_rsl2-rcl2-esl100-rsm2-rcm25-esm100-rsr2-rcr100-esr29.npz,,,,,0,153,153,212,,right,red,2.7,607.302414894104,607.657794952393,,3,,AS,2,lightness,readingArea,mean,72,2023-03-10_14h54.01.506,tripletExp_regina_11082022,2022.2.4,120.183729666381
8,3,10,0,0.25,1.0,0,0.444444444444444,0.298245614035088,0,0.694444444444444,1.0,ReadingArea_rsl2-rcl25-esl100-rsm2-rcm44-esm29-rsr2-rcr69-esr100,exr/ReadingArea_rsl2-rcl25-esl100-rsm2-rcm44-esm29-rsr2-rcr69-esr100.exr,ReadingArea_rsl2-rcl25-esl100-rsm2-rcm44-esm29-rsr2-rcr69-esr100.npz,,,,,0,154,154,361,,left,green,1.19,609.351487874985,609.695591926575,,3,,AS,2,lightness,readingArea,mean,72,2023-03-10_14h54.01.506,tripletExp_regina_11082022,2022.2.4,120.183729666381
5,12,10,0,1.0,0.298245614035088,0,0.027777777777778,3.10526315789474,0,0.694444444444444,1.0,ReadingArea_rsl2-rcl100-esl29-rsm2-rcm2-esm310-rsr2-rcr69-esr100,exr/ReadingArea_rsl2-rcl100-esl29-rsm2-rcm2-esm310-rsr2-rcr69-esr100.exr,ReadingArea_rsl2-rcl100-esl29-rsm2-rcm2-esm310-rsr2-rcr69-esr100.npz,,,,,0,155,155,232,,left,green,1.13,611.401862859726,611.798682928085,,3,,AS,2,lightness,readingArea,mean,72,2023-03-10_14h54.01.506,tripletExp_regina_11082022,2022.2.4,120.183729666381
7,4,1,0,0.111111111111111,1.0,0,0.694444444444444,0.298245614035088,0,0.111111111111111,0.298245614035088,ReadingArea_rsl2-rcl11-esl100-rsm2-rcm69-esm29-rsr2-rcr11-esr29,exr/ReadingArea_rsl2-rcl11-esl100-rsm2-rcm69-esm29-rsr2-rcr11-esr29.exr,ReadingArea_rsl2-rcl11-esl100-rsm2-rcm69-esm29-rsr2-rcr11-esr29.npz,,,,,0,156,156,429,,left,green,1.32,613.500440835953,613.848733901978,,3,,AS,2,lightness,readingArea,mean,72,2023-03-10_14h54.01.506,tripletExp_regina_11082022,2022.2.4,120.183729666381
5,14,8,0,1.0,0.298245614035088,0,0.25,3.10526315789474,0,0.25,1.0,ReadingArea_rsl2-rcl100-esl29-rsm2-rcm25-esm310-rsr2-rcr25-esr100,exr/ReadingArea_rsl2-rcl100-esl29-rsm2-rcm25-esm310-rsr2-rcr25-esr100.exr,ReadingArea_rsl2-rcl100-esl29-rsm2-rcm25-esm310-rsr2-rcr25-esr100.npz,,,,,0,157,157,130,,left,green,2.92,617.337493896484,617.669195890427,,3,,AS,2,lightness,readingArea,mean,72,2023-03-10_14h54.01.506,tripletExp_regina_11082022,2022.2.4,120.183729666381
0,3,8,0,0.027777777777778,0.298245614035088,0,0.444444444444444,0.298245614035088,0,0.25,1.0,ReadingArea_rsl2-rcl2-esl29-rsm2-rcm44-esm29-rsr2-rcr25-esr100,exr/ReadingArea_rsl2-rcl2-esl29-rsm2-rcm44-esm29-rsr2-rcr25-esr100.exr,ReadingArea_rsl2-rcl2-esl29-rsm2-rcm44-esm29-rsr2-rcr25-esr100.npz,,,,,0,158,158,439,,right,red,0.99,619.366343975067,,,3,,AS,2,lightness,readingArea,mean,72,2023-03-10_14h54.01.506,tripletExp_regina_11082022,2022.2.4,120.183729666381
11,6,10,0,1.0,1.0,0,0.027777777777778,1.0,0,0.694444444444444,1.0,ReadingArea_rsl2-rcl100-esl100-rsm2-rcm2-esm100-rsr2-rcr69-esr100,exr/ReadingArea_rsl2-rcl100-esl100-rsm2-rcm2-esm100-rsr2-rcr69-esr100.exr,ReadingArea_rsl2-rcl100-esl100-rsm2-rcm2-esm100-rsr2-rcr69-esr100.npz,,,,,0,159,159,403,,right,red,1.31,621.415436983109,621.760074853897,,3,,AS,2,lightness,readingArea,mean,72,2023-03-10_14h54.01.506,tripletExp_regina_11082022,2022.2.4,120.183729666381
2,8,10,0,0.25,0.298245614035088,0,0.25,1.0,0,0.694444444444444,1.0,ReadingArea_rsl2-rcl25-esl29-rsm2-rcm25-esm100-rsr2-rcr69-esr100,exr/ReadingArea_rsl2-rcl25-esl29-rsm2-rcm25-esm100-rsr2-rcr69-esr100.exr,ReadingArea_rsl2-rcl25-esl29-rsm2-rcm25-esm100-rsr2-rcr69-esr100.npz,,,,,0,160,160,411,,left,green,1.33,623.460850000382,623.815603971481,,3,,AS,2,lightness,readingArea,mean,72,2023-03-10_14h54.01.506,tripletExp_regina_11082022,2022.2.4,120.183729666381
10,8,3,0,0.694444444444444,1.0,0,0.25,1.0,0,0.444444444444444,0.298245614035088,ReadingArea_rsl2-rcl69-esl100-rsm2-rcm25-esm100-rsr2-rcr44-esr29,exr/ReadingArea_rsl2-rcl69-esl100-rsm2-rcm25-esm100-rsr2-rcr44-esr29.exr,ReadingArea_rsl2-rcl69-esl100-rsm2-rcm25-esm100-rsr2-rcr44-esr29.npz,,,,,0,161,161,381,,right,red,1.07,625.534066915512,,,3,,AS,2,lightness,readingArea,mean,72,2023-03-10_14h54.01.506,tripletExp_regina_11082022,2022.2.4,120.183729666381
2,1,3,0,0.25,0.298245614035088,0,0.111111111111111,0.298245614035088,0,0.444444444444444,0.298245614035088,ReadingArea_rsl2-rcl25-esl29-rsm2-rcm11-esm29-rsr2-rcr44-esr29,exr/ReadingArea_rsl2-rcl25-esl29-rsm2-rcm11-esm29-rsr2-rcr44-esr29.exr,ReadingArea_rsl2-rcl25-esl29-rsm2-rcm11-esm29-rsr2-rcr44-esr29.npz,,,,,0,162,162,294,,left,green,2.94,629.369894981384,629.707043886185,,3,,AS,2,lightness,readingArea,mean,72,2023-03-10_14h54.01.506,tripletExp_regina_11082022,2022.2.4,120.183729666381
7,11,6,0,0.111111111111111,1.0,0,1.0,1.0,0,0.027777777777778,1.0,ReadingArea_rsl2-rcl11-esl100-rsm2-rcm100-esm100-rsr2-rcr2-esr100,exr/ReadingArea_rsl2-rcl11-esl100-rsm2-rcm100-esm100-rsr2-rcr2-esr100.exr,ReadingArea_rsl2-rcl11-esl100-rsm2-rcm100-esm100-rsr2-rcr2-esr100.npz,,,,,0,163,163,189,,left,green,1.22,631.408473968506,631.817816019058,,3,,AS,2,lightness,readingArea,mean,72,2023-03-10_14h54.01.506,tripletExp_regina_11082022,2022.2.4,120.183729666381
9,7,11,0,0.444444444444444,1.0,0,0.111111111111111,1.0,0,1.0,1.0,ReadingArea_rsl2-rcl44-esl100-rsm2-rcm11-esm100-rsr2-rcr100-esr100,exr/ReadingArea_rsl2-rcl44-esl100-rsm2-rcm11-esm100-rsr2-rcr100-esr100.exr,ReadingArea_rsl2-rcl44-esl100-rsm2-rcm11-esm100-rsr2-rcr100-esr100.npz,,,,,0,164,164,2,,left,green,1.22,633.515319824219,633.859483003616,,3,,AS,2,lightness,readingArea,mean,72,2023-03-10_14h54.01.506,tripletExp_regina_11082022,2022.2.4,120.183729666381
7,4,5,0,0.111111111111111,1.0,0,0.694444444444444,0.298245614035088,0,1.0,0.298245614035088,ReadingArea_rsl2-rcl11-esl100-rsm2-rcm69-esm29-rsr2-rcr100-esr29,exr/ReadingArea_rsl2-rcl11-esl100-rsm2-rcm69-esm29-rsr2-rcr100-esr29.exr,ReadingArea_rsl2-rcl11-esl100-rsm2-rcm69-esm29-rsr2-rcr100-esr29.npz,,,,,0,165,165,4,,right,red,3.06,637.338258981705,637.737608909607,,3,,AS,2,lightness,readingArea,mean,72,2023-03-10_14h54.01.506,tripletExp_regina_11082022,2022.2.4,120.183729666381
0,9,7,0,0.027777777777778,0.298245614035088,0,0.444444444444444,1.0,0,0.111111111111111,1.0,ReadingArea_rsl2-rcl2-esl29-rsm2-rcm44-esm100-rsr2-rcr11-esr100,exr/ReadingArea_rsl2-rcl2-esl29-rsm2-rcm44-esm100-rsr2-rcr11-esr100.exr,ReadingArea_rsl2-rcl2-esl29-rsm2-rcm44-esm100-rsr2-rcr11-esr100.npz,,,,,0,166,166,329,,right,red,1.24,639.44345998764,639.772971868515,,3,,AS,2,lightness,readingArea,mean,72,2023-03-10_14h54.01.506,tripletExp_regina_11082022,2022.2.4,120.183729666381
13,7,1,0,0.111111111111111,3.10526315789474,0,0.111111111111111,1.0,0,0.111111111111111,0.298245614035088,ReadingArea_rsl2-rcl11-esl310-rsm2-rcm11-esm100-rsr2-rcr11-esr29,exr/ReadingArea_rsl2-rcl11-esl310-rsm2-rcm11-esm100-rsr2-rcr11-esr29.exr,ReadingArea_rsl2-rcl11-esl310-rsm2-rcm11-esm100-rsr2-rcr11-esr29.npz,,,,,0,167,167,181,,right,red,1.93,643.260175943375,643.600961923599,,3,,AS,2,lightness,readingArea,mean,72,2023-03-10_14h54.01.506,tripletExp_regina_11082022,2022.2.4,120.183729666381
3,1,11,0,0.444444444444444,0.298245614035088,0,0.111111111111111,0.298245614035088,0,1.0,1.0,ReadingArea_rsl2-rcl44-esl29-rsm2-rcm11-esm29-rsr2-rcr100-esr100,exr/ReadingArea_rsl2-rcl44-esl29-rsm2-rcm11-esm29-rsr2-rcr100-esr100.exr,ReadingArea_rsl2-rcl44-esl29-rsm2-rcm11-esm29-rsr2-rcr100-esr100.npz,,,,,0,168,168,359,,left,green,1.18,645.314554929733,645.670475006104,,3,,AS,2,lightness,readingArea,mean,72,2023-03-10_14h54.01.506,tripletExp_regina_11082022,2022.2.4,120.183729666381
10,11,8,0,0.694444444444444,1.0,0,1.0,1.0,0,0.25,1.0,ReadingArea_rsl2-rcl69-esl100-rsm2-rcm100-esm100-rsr2-rcr25-esr100,exr/ReadingArea_rsl2-rcl69-esl100-rsm2-rcm100-esm100-rsr2-rcr25-esr100.exr,ReadingArea_rsl2-rcl69-esl100-rsm2-rcm100-esm100-rsr2-rcr25-esr100.npz,,,,,0,169,169,313,,left,green,1.12,647.394814014435,647.740039825439,,3,,AS,2,lightness,readingArea,mean,72,2023-03-10_14h54.01.506,tripletExp_regina_11082022,2022.2.4,120.183729666381
2,8,13,0,0.25,0.298245614035088,0,0.25,1.0,0,0.111111111111111,3.10526315789474,ReadingArea_rsl2-rcl25-esl29-rsm2-rcm25-esm100-rsr2-rcr11-esr310,exr/ReadingArea_rsl2-rcl25-esl29-rsm2-rcm25-esm100-rsr2-rcr11-esr310.exr,ReadingArea_rsl2-rcl25-esl29-rsm2-rcm25-esm100-rsr2-rcr11-esr310.npz,,,,,0,170,170,240,,right,red,1.55,649.433017969132,649.777896881104,,3,,AS,2,lightness,readingArea,mean,72,2023-03-10_14h54.01.506,tripletExp_regina_11082022,2022.2.4,120.183729666381
11,1,3,0,1.0,1.0,0,0.111111111111111,0.298245614035088,0,0.444444444444444,0.298245614035088,ReadingArea_rsl2-rcl100-esl100-rsm2-rcm11-esm29-rsr2-rcr44-esr29,exr/ReadingArea_rsl2-rcl100-esl100-rsm2-rcm11-esm29-rsr2-rcr44-esr29.exr,ReadingArea_rsl2-rcl100-esl100-rsm2-rcm11-esm29-rsr2-rcr44-esr29.npz,,,,,0,171,171,398,,right,red,1.01,651.496114969254,651.838073015213,,3,,AS,2,lightness,readingArea,mean,72,2023-03-10_14h54.01.506,tripletExp_regina_11082022,2022.2.4,120.183729666381
3,5,2,0,0.444444444444444,0.298245614035088,0,1.0,0.298245614035088,0,0.25,0.298245614035088,ReadingArea_rsl2-rcl44-esl29-rsm2-rcm100-esm29-rsr2-rcr25-esr29,exr/ReadingArea_rsl2-rcl44-esl29-rsm2-rcm100-esm29-rsr2-rcr25-esr29.exr,ReadingArea_rsl2-rcl44-esl29-rsm2-rcm100-esm29-rsr2-rcr25-esr29.npz,,,,,0,172,172,415,,left,green,1.1,653.534225940704,653.97481584549,,3,,AS,2,lightness,readingArea,mean,72,2023-03-10_14h54.01.506,tripletExp_regina_11082022,2022.2.4,120.183729666381
10,13,11,0,0.694444444444444,1.0,0,0.111111111111111,3.10526315789474,0,1.0,1.0,ReadingArea_rsl2-rcl69-esl100-rsm2-rcm11-esm310-rsr2-rcr100-esr100,exr/ReadingArea_rsl2-rcl69-esl100-rsm2-rcm11-esm310-rsr2-rcr100-esr100.exr,ReadingArea_rsl2-rcl69-esl100-rsm2-rcm11-esm310-rsr2-rcr100-esr100.npz,,,,,0,173,173,235,,left,green,1.41,655.685015916824,656.040288925171,,3,,AS,2,lightness,readingArea,mean,72,2023-03-10_14h54.01.506,tripletExp_regina_11082022,2022.2.4,120.183729666381
7,1,14,0,0.111111111111111,1.0,0,0.111111111111111,0.298245614035088,0,0.25,3.10526315789474,ReadingArea_rsl2-rcl11-esl100-rsm2-rcm11-esm29-rsr2-rcr25-esr310,exr/ReadingArea_rsl2-rcl11-esl100-rsm2-rcm11-esm29-rsr2-rcr25-esr310.exr,ReadingArea_rsl2-rcl11-esl100-rsm2-rcm11-esm29-rsr2-rcr25-esr310.npz,,,,,0,174,174,145,,left,green,0.99,657.750486850739,658.09850692749,,3,,AS,2,lightness,readingArea,mean,72,2023-03-10_14h54.01.506,tripletExp_regina_11082022,2022.2.4,120.183729666381
14,2,0,0,0.25,3.10526315789474,0,0.25,0.298245614035088,0,0.027777777777778,0.298245614035088,ReadingArea_rsl2-rcl25-esl310-rsm2-rcm25-esm29-rsr2-rcr2-esr29,exr/ReadingArea_rsl2-rcl25-esl310-rsm2-rcm25-esm29-rsr2-rcr2-esr29.exr,ReadingArea_rsl2-rcl25-esl310-rsm2-rcm25-esm29-rsr2-rcr2-esr29.npz,,,,,0,175,175,218,,left,green,2.03,661.560763835907,661.904762983322,,3,,AS,2,lightness,readingArea,mean,72,2023-03-10_14h54.01.506,tripletExp_regina_11082022,2022.2.4,120.183729666381
3,13,9,0,0.444444444444444,0.298245614035088,0,0.111111111111111,3.10526315789474,0,0.444444444444444,1.0,ReadingArea_rsl2-rcl44-esl29-rsm2-rcm11-esm310-rsr2-rcr44-esr100,exr/ReadingArea_rsl2-rcl44-esl29-rsm2-rcm11-esm310-rsr2-rcr44-esr100.exr,ReadingArea_rsl2-rcl44-esl29-rsm2-rcm11-esm310-rsr2-rcr44-esr100.npz,,,,,0,176,176,295,,left,green,2.75,665.365200996399,,,3,,AS,2,lightness,readingArea,mean,72,2023-03-10_14h54.01.506,tripletExp_regina_11082022,2022.2.4,120.183729666381
0,7,8,0,0.027777777777778,0.298245614035088,0,0.111111111111111,1.0,0,0.25,1.0,ReadingArea_rsl2-rcl2-esl29-rsm2-rcm11-esm100-rsr2-rcr25-esr100,exr/ReadingArea_rsl2-rcl2-esl29-rsm2-rcm11-esm100-rsr2-rcr25-esr100.exr,ReadingArea_rsl2-rcl2-esl29-rsm2-rcm11-esm100-rsr2-rcr25-esr100.npz,,,,,0,177,177,284,,right,red,1.07,667.429931879044,667.759644031525,,3,,AS,2,lightness,readingArea,mean,72,2023-03-10_14h54.01.506,tripletExp_regina_11082022,2022.2.4,120.183729666381
3,2,14,0,0.444444444444444,0.298245614035088,0,0.25,0.298245614035088,0,0.25,3.10526315789474,ReadingArea_rsl2-rcl44-esl29-rsm2-rcm25-esm29-rsr2-rcr25-esr310,exr/ReadingArea_rsl2-rcl44-esl29-rsm2-rcm25-esm29-rsr2-rcr25-esr310.exr,ReadingArea_rsl2-rcl44-esl29-rsm2-rcm25-esm29-rsr2-rcr25-esr310.npz,,,,,0,178,178,472,,left,green,0.89,669.447132825851,669.88099694252,,3,,AS,2,lightness,readingArea,mean,72,2023-03-10_14h54.01.506,tripletExp_regina_11082022,2022.2.4,120.183729666381
1,0,9,0,0.111111111111111,0.298245614035088,0,0.027777777777778,0.298245614035088,0,0.444444444444444,1.0,ReadingArea_rsl2-rcl11-esl29-rsm2-rcm2-esm29-rsr2-rcr44-esr100,exr/ReadingArea_rsl2-rcl11-esl29-rsm2-rcm2-esm29-rsr2-rcr44-esr100.exr,ReadingArea_rsl2-rcl11-esl29-rsm2-rcm2-esm29-rsr2-rcr44-esr100.npz,,,,,0,179,179,487,,left,green,1.17,671.582182884216,671.941983938217,,3,,AS,2,lightness,readingArea,mean,72,2023-03-10_14h54.01.506,tripletExp_regina_11082022,2022.2.4,120.183729666381
8,14,1,0,0.25,1.0,0,0.25,3.10526315789474,0,0.111111111111111,0.298245614035088,ReadingArea_rsl2-rcl25-esl100-rsm2-rcm25-esm310-rsr2-rcr11-esr29,exr/ReadingArea_rsl2-rcl25-esl100-rsm2-rcm25-esm310-rsr2-rcr11-esr29.exr,ReadingArea_rsl2-rcl25-esl100-rsm2-rcm25-esm310-rsr2-rcr11-esr29.npz,,,,,0,180,180,18,,left,green,1.1,673.62770485878,673.961069822311,,3,,AS,2,lightness,readingArea,mean,72,2023-03-10_14h54.01.506,tripletExp_regina_11082022,2022.2.4,120.183729666381
0,8,3,0,0.027777777777778,0.298245614035088,0,0.25,1.0,0,0.444444444444444,0.298245614035088,ReadingArea_rsl2-rcl2-esl29-rsm2-rcm25-esm100-rsr2-rcr44-esr29,exr/ReadingArea_rsl2-rcl2-esl29-rsm2-rcm25-esm100-rsr2-rcr44-esr29.exr,ReadingArea_rsl2-rcl2-esl29-rsm2-rcm25-esm100-rsr2-rcr44-esr29.npz,,,,,0,181,181,491,,right,red,1.19,675.660921812058,676.013216018677,,3,,AS,2,lightness,readingArea,mean,72,2023-03-10_14h54.01.506,tripletExp_regina_11082022,2022.2.4,120.183729666381
9,1,10,0,0.444444444444444,1.0,0,0.111111111111111,0.298245614035088,0,0.694444444444444,1.0,ReadingArea_rsl2-rcl44-esl100-rsm2-rcm11-esm29-rsr2-rcr69-esr100,exr/ReadingArea_rsl2-rcl44-esl100-rsm2-rcm11-esm29-rsr2-rcr69-esr100.exr,ReadingArea_rsl2-rcl44-esl100-rsm2-rcm11-esm29-rsr2-rcr69-esr100.npz,,,,,0,182,182,211,,left,green,1.2,677.728643894196,678.177855968475,,3,,AS,2,lightness,readingArea,mean,72,2023-03-10_14h54.01.506,tripletExp_regina_11082022,2022.2.4,120.183729666381
13,8,4,0,0.111111111111111,3.10526315789474,0,0.25,1.0,0,0.694444444444444,0.298245614035088,ReadingArea_rsl2-rcl11-esl310-rsm2-rcm25-esm100-rsr2-rcr69-esr29,exr/ReadingArea_rsl2-rcl11-esl310-rsm2-rcm25-esm100-rsr2-rcr69-esr29.exr,ReadingArea_rsl2-rcl11-esl310-rsm2-rcm25-esm100-rsr2-rcr69-esr29.npz,,,,,0,183,183,9,,right,red,4.08,683.442795038223,683.875141859055,,3,,AS,2,lightness,readingArea,mean,72,2023-03-10_14h54.01.506,tripletExp_regina_11082022,2022.2.4,120.183729666381
10,5,12,0,0.694444444444444,1.0,0,1.0,0.298245614035088,0,0.027777777777778,3.10526315789474,ReadingArea_rsl2-rcl69-esl100-rsm2-rcm100-esm29-rsr2-rcr2-esr310,exr/ReadingArea_rsl2-rcl69-esl100-rsm2-rcm100-esm29-rsr2-rcr2-esr310.exr,ReadingArea_rsl2-rcl69-esl100-rsm2-rcm100-esm29-rsr2-rcr2-esr310.npz,,,,,0,184,184,330,,right,red,1.31,685.577903985977,685.926497936249,,3,,AS,2,lightness,readingArea,mean,72,2023-03-10_14h54.01.506,tripletExp_regina_11082022,2022.2.4,120.183729666381
5,9,10,0,1.0,0.298245614035088,0,0.444444444444444,1.0,0,0.694444444444444,1.0,ReadingArea_rsl2-rcl100-esl29-rsm2-rcm44-esm100-rsr2-rcr69-esr100,exr/ReadingArea_rsl2-rcl100-esl29-rsm2-rcm44-esm100-rsr2-rcr69-esr100.exr,ReadingArea_rsl2-rcl100-esl29-rsm2-rcm44-esm100-rsr2-rcr69-esr100.npz,,,,,0,185,185,343,,left,green,1.21,687.634486913681,687.974586963654,,3,,AS,2,lightness,readingArea,mean,72,2023-03-10_14h54.01.506,tripletExp_regina_11082022,2022.2.4,120.183729666381
2,11,7,0,0.25,0.298245614035088,0,1.0,1.0,0,0.111111111111111,1.0,ReadingArea_rsl2-rcl25-esl29-rsm2-rcm100-esm100-rsr2-rcr11-esr100,exr/ReadingArea_rsl2-rcl25-esl29-rsm2-rcm100-esm100-rsr2-rcr11-esr100.exr,ReadingArea_rsl2-rcl25-esl29-rsm2-rcm100-esm100-rsr2-rcr11-esr100.npz,,,,,0,186,186,121,,right,red,4.4,693.22319483757,693.570875883102,,3,,AS,2,lightness,readingArea,mean,72,2023-03-10_14h54.01.506,tripletExp_regina_11082022,2022.2.4,120.183729666381
3,5,12,0,0.444444444444444,0.298245614035088,0,1.0,0.298245614035088,0,0.027777777777778,3.10526315789474,ReadingArea_rsl2-rcl44-esl29-rsm2-rcm100-esm29-rsr2-rcr2-esr310,exr/ReadingArea_rsl2-rcl44-esl29-rsm2-rcm100-esm29-rsr2-rcr2-esr310.exr,ReadingArea_rsl2-rcl44-esl29-rsm2-rcm100-esm29-rsr2-rcr2-esr310.npz,,,,,0,187,187,154,,right,red,4.63,698.823400974274,699.170574903488,,3,,AS,2,lightness,readingArea,mean,72,2023-03-10_14h54.01.506,tripletExp_regina_11082022,2022.2.4,120.183729666381
1,13,8,0,0.111111111111111,0.298245614035088,0,0.111111111111111,3.10526315789474,0,0.25,1.0,ReadingArea_rsl2-rcl11-esl29-rsm2-rcm11-esm310-rsr2-rcr25-esr100,exr/ReadingArea_rsl2-rcl11-esl29-rsm2-rcm11-esm310-rsr2-rcr25-esr100.exr,ReadingArea_rsl2-rcl11-esl29-rsm2-rcm11-esm310-rsr2-rcr25-esr100.npz,,,,,0,188,188,245,,right,red,1.37,700.865119934082,701.213505983353,,3,,AS,2,lightness,readingArea,mean,72,2023-03-10_14h54.01.506,tripletExp_regina_11082022,2022.2.4,120.183729666381
6,9,14,0,0.027777777777778,1.0,0,0.444444444444444,1.0,0,0.25,3.10526315789474,ReadingArea_rsl2-rcl2-esl100-rsm2-rcm44-esm100-rsr2-rcr25-esr310,exr/ReadingArea_rsl2-rcl2-esl100-rsm2-rcm44-esm100-rsr2-rcr25-esr310.exr,ReadingArea_rsl2-rcl2-esl100-rsm2-rcm44-esm100-rsr2-rcr25-esr310.npz,,,,,0,189,189,282,,right,red,1.25,702.913369894028,703.251312971115,,3,,AS,2,lightness,readingArea,mean,72,2023-03-10_14h54.01.506,tripletExp_regina_11082022,2022.2.4,120.183729666381
5,1,0,0,1.0,0.298245614035088,0,0.111111111111111,0.298245614035088,0,0.027777777777778,0.298245614035088,ReadingArea_rsl2-rcl100-esl29-rsm2-rcm11-esm29-rsr2-rcr2-esr29,exr/ReadingArea_rsl2-rcl100-esl29-rsm2-rcm11-esm29-rsr2-rcr2-esr29.exr,ReadingArea_rsl2-rcl100-esl29-rsm2-rcm11-esm29-rsr2-rcr2-esr29.npz,,,,,0,190,190,494,,right,red,3.24,706.712785959244,707.042572975159,,3,,AS,2,lightness,readingArea,mean,72,2023-03-10_14h54.01.506,tripletExp_regina_11082022,2022.2.4,120.183729666381
5,14,12,0,1.0,0.298245614035088,0,0.25,3.10526315789474,0,0.027777777777778,3.10526315789474,ReadingArea_rsl2-rcl100-esl29-rsm2-rcm25-esm310-rsr2-rcr2-esr310,exr/ReadingArea_rsl2-rcl100-esl29-rsm2-rcm25-esm310-rsr2-rcr2-esr310.exr,ReadingArea_rsl2-rcl100-esl29-rsm2-rcm25-esm310-rsr2-rcr2-esr310.npz,,,,,0,191,191,389,,left,green,1.38,708.759593963623,709.113363981247,,3,,AS,2,lightness,readingArea,mean,72,2023-03-10_14h54.01.506,tripletExp_regina_11082022,2022.2.4,120.183729666381
4,7,5,0,0.694444444444444,0.298245614035088,0,0.111111111111111,1.0,0,1.0,0.298245614035088,ReadingArea_rsl2-rcl69-esl29-rsm2-rcm11-esm100-rsr2-rcr100-esr29,exr/ReadingArea_rsl2-rcl69-esl29-rsm2-rcm11-esm100-rsr2-rcr100-esr29.exr,ReadingArea_rsl2-rcl69-esl29-rsm2-rcm11-esm100-rsr2-rcr100-esr29.npz,,,,,0,192,192,200,,left,green,1.31,710.80995798111,711.165264844894,,3,,AS,2,lightness,readingArea,mean,72,2023-03-10_14h54.01.506,tripletExp_regina_11082022,2022.2.4,120.183729666381
2,0,5,0,0.25,0.298245614035088,0,0.027777777777778,0.298245614035088,0,1.0,0.298245614035088,ReadingArea_rsl2-rcl25-esl29-rsm2-rcm2-esm29-rsr2-rcr100-esr29,exr/ReadingArea_rsl2-rcl25-esl29-rsm2-rcm2-esm29-rsr2-rcr100-esr29.exr,ReadingArea_rsl2-rcl25-esl29-rsm2-rcm2-esm29-rsr2-rcr100-esr29.npz,,,,,0,193,193,122,,left,green,2.29,714.645869016647,714.989678859711,,3,,AS,2,lightness,readingArea,mean,72,2023-03-10_14h54.01.506,tripletExp_regina_11082022,2022.2.4,120.183729666381
11,3,1,0,1.0,1.0,0,0.444444444444444,0.298245614035088,0,0.111111111111111,0.298245614035088,ReadingArea_rsl2-rcl100-esl100-rsm2-rcm44-esm29-rsr2-rcr11-esr29,exr/ReadingArea_rsl2-rcl100-esl100-rsm2-rcm44-esm29-rsr2-rcr11-esr29.exr,ReadingArea_rsl2-rcl100-esl100-rsm2-rcm44-esm29-rsr2-rcr11-esr29.npz,,,,,0,194,194,299,,right,red,2.97,718.477402925491,718.832008838654,,3,,AS,2,lightness,readingArea,mean,72,2023-03-10_14h54.01.506,tripletExp_regina_11082022,2022.2.4,120.183729666381
6,1,8,0,0.027777777777778,1.0,0,0.111111111111111,0.298245614035088,0,0.25,1.0,ReadingArea_rsl2-rcl2-esl100-rsm2-rcm11-esm29-rsr2-rcr25-esr100,exr/ReadingArea_rsl2-rcl2-esl100-rsm2-rcm11-esm29-rsr2-rcr25-esr100.exr,ReadingArea_rsl2-rcl2-esl100-rsm2-rcm11-esm29-rsr2-rcr25-esr100.npz,,,,,0,195,195,302,,left,green,2.92,722.308367967606,722.661607027054,,3,,AS,2,lightness,readingArea,mean,72,2023-03-10_14h54.01.506,tripletExp_regina_11082022,2022.2.4,120.183729666381
14,1,9,0,0.25,3.10526315789474,0,0.111111111111111,0.298245614035088,0,0.444444444444444,1.0,ReadingArea_rsl2-rcl25-esl310-rsm2-rcm11-esm29-rsr2-rcr44-esr100,exr/ReadingArea_rsl2-rcl25-esl310-rsm2-rcm11-esm29-rsr2-rcr44-esr100.exr,ReadingArea_rsl2-rcl25-esl310-rsm2-rcm11-esm29-rsr2-rcr44-esr100.npz,,,,,0,196,196,84,,right,red,1.38,724.359416007996,724.707681894302,,3,,AS,2,lightness,readingArea,mean,72,2023-03-10_14h54.01.506,tripletExp_regina_11082022,2022.2.4,120.183729666381
0,14,2,0,0.027777777777778,0.298245614035088,0,0.25,3.10526315789474,0,0.25,0.298245614035088,ReadingArea_rsl2-rcl2-esl29-rsm2-rcm25-esm310-rsr2-rcr25-esr29,exr/ReadingArea_rsl2-rcl2-esl29-rsm2-rcm25-esm310-rsr2-rcr25-esr29.exr,ReadingArea_rsl2-rcl2-esl29-rsm2-rcm25-esm310-rsr2-rcr25-esr29.npz,,,,,0,197,197,289,,right,red,3.59,729.918975830078,730.277213811874,,3,,AS,2,lightness,readingArea,mean,72,2023-03-10_14h54.01.506,tripletExp_regina_11082022,2022.2.4,120.183729666381
14,2,5,0,0.25,3.10526315789474,0,0.25,0.298245614035088,0,1.0,0.298245614035088,ReadingArea_rsl2-rcl25-esl310-rsm2-rcm25-esm29-rsr2-rcr100-esr29,exr/ReadingArea_rsl2-rcl25-esl310-rsm2-rcm25-esm29-rsr2-rcr100-esr29.exr,ReadingArea_rsl2-rcl25-esl310-rsm2-rcm25-esm29-rsr2-rcr100-esr29.npz,,,,,0,198,198,205,,right,red,3.06,733.750463962555,734.098536968231,,3,,AS,2,lightness,readingArea,mean,72,2023-03-10_14h54.01.506,tripletExp_regina_11082022,2022.2.4,120.183729666381
8,0,2,0,0.25,1.0,0,0.027777777777778,0.298245614035088,0,0.25,0.298245614035088,ReadingArea_rsl2-rcl25-esl100-rsm2-rcm2-esm29-rsr2-rcr25-esr29,exr/ReadingArea_rsl2-rcl25-esl100-rsm2-rcm2-esm29-rsr2-rcr25-esr29.exr,ReadingArea_rsl2-rcl25-esl100-rsm2-rcm2-esm29-rsr2-rcr25-esr29.npz,,,,,0,199,199,214,,right,red,2.62,737.547930955887,737.892174005508,,3,,AS,2,lightness,readingArea,mean,72,2023-03-10_14h54.01.506,tripletExp_regina_11082022,2022.2.4,120.183729666381
9,2,5,0,0.444444444444444,1.0,0,0.25,0.298245614035088,0,1.0,0.298245614035088,ReadingArea_rsl2-rcl44-esl100-rsm2-rcm25-esm29-rsr2-rcr100-esr29,exr/ReadingArea_rsl2-rcl44-esl100-rsm2-rcm25-esm29-rsr2-rcr100-esr29.exr,ReadingArea_rsl2-rcl44-esl100-rsm2-rcm25-esm29-rsr2-rcr100-esr29.npz,,,,,0,200,200,395,,right,red,2.82,741.375348806381,741.722585916519,,3,,AS,2,lightness,readingArea,mean,72,2023-03-10_14h54.01.506,tripletExp_regina_11082022,2022.2.4,120.183729666381
1,7,8,0,0.111111111111111,0.298245614035088,0,0.111111111111111,1.0,0,0.25,1.0,ReadingArea_rsl2-rcl11-esl29-rsm2-rcm11-esm100-rsr2-rcr25-esr100,exr/ReadingArea_rsl2-rcl11-esl29-rsm2-rcm11-esm100-rsr2-rcr25-esr100.exr,ReadingArea_rsl2-rcl11-esl29-rsm2-rcm11-esm100-rsr2-rcr25-esr100.npz,,,,,0,201,201,69,,,red,2.82,746.976286888123,747.382861852646,,3,746.668633675575,AS,2,lightness,readingArea,mean,72,2023-03-10_14h54.01.506,tripletExp_regina_11082022,2022.2.4,120.183729666381
5,13,0,0,1.0,0.298245614035088,0,0.111111111111111,3.10526315789474,0,0.027777777777778,0.298245614035088,ReadingArea_rsl2-rcl100-esl29-rsm2-rcm11-esm310-rsr2-rcr2-esr29,exr/ReadingArea_rsl2-rcl100-esl29-rsm2-rcm11-esm310-rsr2-rcr2-esr29.exr,ReadingArea_rsl2-rcl100-esl29-rsm2-rcm11-esm310-rsr2-rcr2-esr29.npz,,,,,0,202,202,437,,left,green,1.27,749.083878040314,749.419659852982,,3,,AS,2,lightness,readingArea,mean,72,2023-03-10_14h54.01.506,tripletExp_regina_11082022,2022.2.4,120.183729666381
2,8,11,0,0.25,0.298245614035088,0,0.25,1.0,0,1.0,1.0,ReadingArea_rsl2-rcl25-esl29-rsm2-rcm25-esm100-rsr2-rcr100-esr100,exr/ReadingArea_rsl2-rcl25-esl29-rsm2-rcm25-esm100-rsr2-rcr100-esr100.exr,ReadingArea_rsl2-rcl25-esl29-rsm2-rcm25-esm100-rsr2-rcr100-esr100.npz,,,,,0,203,203,382,,left,green,1.71,751.125602006912,751.473904848099,,3,,AS,2,lightness,readingArea,mean,72,2023-03-10_14h54.01.506,tripletExp_regina_11082022,2022.2.4,120.183729666381
13,5,4,0,0.111111111111111,3.10526315789474,0,1.0,0.298245614035088,0,0.694444444444444,0.298245614035088,ReadingArea_rsl2-rcl11-esl310-rsm2-rcm100-esm29-rsr2-rcr69-esr29,exr/ReadingArea_rsl2-rcl11-esl310-rsm2-rcm100-esm29-rsr2-rcr69-esr29.exr,ReadingArea_rsl2-rcl11-esl310-rsm2-rcm100-esm29-rsr2-rcr69-esr29.npz,,,,,0,204,204,322,,right,red,2.76,754.963158845901,,,3,,AS,2,lightness,readingArea,mean,72,2023-03-10_14h54.01.506,tripletExp_regina_11082022,2022.2.4,120.183729666381
2,11,4,0,0.25,0.298245614035088,0,1.0,1.0,0,0.694444444444444,0.298245614035088,ReadingArea_rsl2-rcl25-esl29-rsm2-rcm100-esm100-rsr2-rcr69-esr29,exr/ReadingArea_rsl2-rcl25-esl29-rsm2-rcm100-esm100-rsr2-rcr69-esr29.exr,ReadingArea_rsl2-rcl25-esl29-rsm2-rcm100-esm100-rsr2-rcr69-esr29.npz,,,,,0,205,205,94,,right,red,1.31,757.019086837769,757.363453865051,,3,,AS,2,lightness,readingArea,mean,72,2023-03-10_14h54.01.506,tripletExp_regina_11082022,2022.2.4,120.183729666381
5,1,12,0,1.0,0.298245614035088,0,0.111111111111111,0.298245614035088,0,0.027777777777778,3.10526315789474,ReadingArea_rsl2-rcl100-esl29-rsm2-rcm11-esm29-rsr2-rcr2-esr310,exr/ReadingArea_rsl2-rcl100-esl29-rsm2-rcm11-esm29-rsr2-rcr2-esr310.exr,ReadingArea_rsl2-rcl100-esl29-rsm2-rcm11-esm29-rsr2-rcr2-esr310.npz,,,,,0,206,206,447,,right,red,0.9,759.070170879364,759.408430814743,,3,,AS,2,lightness,readingArea,mean,72,2023-03-10_14h54.01.506,tripletExp_regina_11082022,2022.2.4,120.183729666381
7,5,1,0,0.111111111111111,1.0,0,1.0,0.298245614035088,0,0.111111111111111,0.298245614035088,ReadingArea_rsl2-rcl11-esl100-rsm2-rcm100-esm29-rsr2-rcr11-esr29,exr/ReadingArea_rsl2-rcl11-esl100-rsm2-rcm100-esm29-rsr2-rcr11-esr29.exr,ReadingArea_rsl2-rcl11-esl100-rsm2-rcm100-esm29-rsr2-rcr11-esr29.npz,,,,,0,207,207,474,,left,green,2.91,762.88772892952,763.2218708992,,3,,AS,2,lightness,readingArea,mean,72,2023-03-10_14h54.01.506,tripletExp_regina_11082022,2022.2.4,120.183729666381
