index_left,index_middle,index_right,reflectance_surround_left,reflectance_center_left,emission_spot_left,reflectance_surround_middle,reflectance_center_middle,emission_spot_middle,reflectance_surround_right,reflectance_center_right,emission_spot_right,ImageName,ImageExr,ImageNpy,trials_2.thisRepN,trials_2.thisTrialN,trials_2.thisN,trials_2.thisIndex,trials.thisRepN,trials.thisTrialN,trials.thisN,trials.thisIndex,sound_1.started,BB_Trial.resp,BB_Trial.color,BB_Trial.rt,text.started,text.stopped,sound_2.started,block,sound_4.started,participant,session,L/B,scene,condition,nTrialsPerBlock,date,expName,psychopyVersion,frameRate,Unnamed: 42
2,4,6,0,0.25,0.298245614035088,0,0.694444444444444,0.298245614035088,0,0.027777777777778,1.0,ReadingArea_rsl0-rcl25-esl29-rsm0-rcm69-esm29-rsr0-rcr2-esr100,exr/ReadingArea_rsl0-rcl25-esl29-rsm0-rcm69-esm29-rsr0-rcr2-esr100.exr,ReadingArea_rsl0-rcl25-esl29-rsm0-rcm69-esm29-rsr0-rcr2-esr100.npz,,,,,0,0,0,563,498.4954120397568,left,green,4.17,532.6149039268494,498.9327368736267,419.0705229520798,1,,2,6,lightness,readingArea,realistic,75,2023-03-21_10h50.07.036,tripletExp_regina_11082022,2022.2.4,120.24126780267412,
5,9,12,0,1.0,0.298245614035088,0,0.444444444444444,1.0,0,0.027777777777778,3.10526315789474,ReadingArea_rsl0-rcl100-esl29-rsm0-rcm44-esm100-rsr0-rcr2-esr310,exr/ReadingArea_rsl0-rcl100-esl29-rsm0-rcm44-esm100-rsr0-rcr2-esr310.exr,ReadingArea_rsl0-rcl100-esl29-rsm0-rcm44-esm100-rsr0-rcr2-esr310.npz,,,,,0,1,1,539,,left,green,1.46,534.8734350204468,,,1,,2,6,lightness,readingArea,realistic,75,2023-03-21_10h50.07.036,tripletExp_regina_11082022,2022.2.4,120.24126780267412,
6,7,3,0,0.027777777777778,1.0,0,0.111111111111111,1.0,0,0.444444444444444,0.298245614035088,ReadingArea_rsl0-rcl2-esl100-rsm0-rcm11-esm100-rsr0-rcr44-esr29,exr/ReadingArea_rsl0-rcl2-esl100-rsm0-rcm11-esm100-rsr0-rcr44-esr29.exr,ReadingArea_rsl0-rcl2-esl100-rsm0-rcm11-esm100-rsr0-rcr44-esr29.npz,,,,,0,2,2,47,,right,red,1.71,537.0746428966522,537.484258890152,,1,,2,6,lightness,readingArea,realistic,75,2023-03-21_10h50.07.036,tripletExp_regina_11082022,2022.2.4,120.24126780267412,
3,5,7,0,0.444444444444444,0.298245614035088,0,1.0,0.298245614035088,0,0.111111111111111,1.0,ReadingArea_rsl0-rcl44-esl29-rsm0-rcm100-esm29-rsr0-rcr11-esr100,exr/ReadingArea_rsl0-rcl44-esl29-rsm0-rcm100-esm29-rsr0-rcr11-esr100.exr,ReadingArea_rsl0-rcl44-esl29-rsm0-rcm100-esm29-rsr0-rcr11-esr100.npz,,,,,0,3,3,474,,left,green,3.25,540.9812500476837,541.4028739929199,,1,,2,6,lightness,readingArea,realistic,75,2023-03-21_10h50.07.036,tripletExp_regina_11082022,2022.2.4,120.24126780267412,
2,3,6,0,0.25,0.298245614035088,0,0.444444444444444,0.298245614035088,0,0.027777777777778,1.0,ReadingArea_rsl0-rcl25-esl29-rsm0-rcm44-esm29-rsr0-rcr2-esr100,exr/ReadingArea_rsl0-rcl25-esl29-rsm0-rcm44-esm29-rsr0-rcr2-esr100.exr,ReadingArea_rsl0-rcl25-esl29-rsm0-rcm44-esm29-rsr0-rcr2-esr100.npz,,,,,0,4,4,357,,left,green,2.95,544.8707149028778,545.2847230434418,,1,,2,6,lightness,readingArea,realistic,75,2023-03-21_10h50.07.036,tripletExp_regina_11082022,2022.2.4,120.24126780267412,
14,2,0,0,0.25,3.10526315789474,0,0.25,0.298245614035088,0,0.027777777777778,0.298245614035088,ReadingArea_rsl0-rcl25-esl310-rsm0-rcm25-esm29-rsr0-rcr2-esr29,exr/ReadingArea_rsl0-rcl25-esl310-rsm0-rcm25-esm29-rsr0-rcr2-esr29.exr,ReadingArea_rsl0-rcl25-esl310-rsm0-rcm25-esm29-rsr0-rcr2-esr29.npz,,,,,0,5,5,460,,left,green,4.41,550.5467448234558,550.9976999759674,,1,,2,6,lightness,readingArea,realistic,75,2023-03-21_10h50.07.036,tripletExp_regina_11082022,2022.2.4,120.24126780267412,
13,10,9,0,0.111111111111111,3.10526315789474,0,0.694444444444444,1.0,0,0.444444444444444,1.0,ReadingArea_rsl0-rcl11-esl310-rsm0-rcm69-esm100-rsr0-rcr44-esr100,exr/ReadingArea_rsl0-rcl11-esl310-rsm0-rcm69-esm100-rsr0-rcr44-esr100.exr,ReadingArea_rsl0-rcl11-esl310-rsm0-rcm69-esm100-rsr0-rcr44-esr100.npz,,,,,0,6,6,330,,right,red,4.35,556.2562789916992,556.7648119926453,,1,,2,6,lightness,readingArea,realistic,75,2023-03-21_10h50.07.036,tripletExp_regina_11082022,2022.2.4,120.24126780267412,
1,5,13,0,0.111111111111111,0.298245614035088,0,1.0,0.298245614035088,0,0.111111111111111,3.10526315789474,ReadingArea_rsl0-rcl11-esl29-rsm0-rcm100-esm29-rsr0-rcr11-esr310,exr/ReadingArea_rsl0-rcl11-esl29-rsm0-rcm100-esm29-rsr0-rcr11-esr310.exr,ReadingArea_rsl0-rcl11-esl29-rsm0-rcm100-esm29-rsr0-rcr11-esr310.npz,,,,,0,7,7,598,,right,red,4.27,562.0128488540649,562.4631109237671,,1,,2,6,lightness,readingArea,realistic,75,2023-03-21_10h50.07.036,tripletExp_regina_11082022,2022.2.4,120.24126780267412,
6,1,10,0,0.027777777777778,1.0,0,0.111111111111111,0.298245614035088,0,0.694444444444444,1.0,ReadingArea_rsl0-rcl2-esl100-rsm0-rcm11-esm29-rsr0-rcr69-esr100,exr/ReadingArea_rsl0-rcl2-esl100-rsm0-rcm11-esm29-rsr0-rcr69-esr100.exr,ReadingArea_rsl0-rcl2-esl100-rsm0-rcm11-esm29-rsr0-rcr69-esr100.npz,,,,,0,8,8,561,,left,green,1.63,564.1645519733429,564.5917570590973,,1,,2,6,lightness,readingArea,realistic,75,2023-03-21_10h50.07.036,tripletExp_regina_11082022,2022.2.4,120.24126780267412,
11,12,1,0,1.0,1.0,0,0.027777777777778,3.10526315789474,0,0.111111111111111,0.298245614035088,ReadingArea_rsl0-rcl100-esl100-rsm0-rcm2-esm310-rsr0-rcr11-esr29,exr/ReadingArea_rsl0-rcl100-esl100-rsm0-rcm2-esm310-rsr0-rcr11-esr29.exr,ReadingArea_rsl0-rcl100-esl100-rsm0-rcm2-esm310-rsr0-rcr11-esr29.npz,,,,,0,9,9,140,,right,red,1.28,566.3044190406799,566.7444958686829,,1,,2,6,lightness,readingArea,realistic,75,2023-03-21_10h50.07.036,tripletExp_regina_11082022,2022.2.4,120.24126780267412,
14,6,11,0,0.25,3.10526315789474,0,0.027777777777778,1.0,0,1.0,1.0,ReadingArea_rsl0-rcl25-esl310-rsm0-rcm2-esm100-rsr0-rcr100-esr100,exr/ReadingArea_rsl0-rcl25-esl310-rsm0-rcm2-esm100-rsr0-rcr100-esr100.exr,ReadingArea_rsl0-rcl25-esl310-rsm0-rcm2-esm100-rsr0-rcr100-esr100.npz,,,,,0,10,10,337,,left,green,4.93,572.0006229877472,572.4435679912567,,1,,2,6,lightness,readingArea,realistic,75,2023-03-21_10h50.07.036,tripletExp_regina_11082022,2022.2.4,120.24126780267412,
1,14,5,0,0.111111111111111,0.298245614035088,0,0.25,3.10526315789474,0,1.0,0.298245614035088,ReadingArea_rsl0-rcl11-esl29-rsm0-rcm25-esm310-rsr0-rcr100-esr29,exr/ReadingArea_rsl0-rcl11-esl29-rsm0-rcm25-esm310-rsr0-rcr100-esr29.exr,ReadingArea_rsl0-rcl11-esl29-rsm0-rcm25-esm310-rsr0-rcr100-esr29.npz,,,,,0,11,11,509,,right,red,1.23,574.1564178466797,574.584774017334,,1,,2,6,lightness,readingArea,realistic,75,2023-03-21_10h50.07.036,tripletExp_regina_11082022,2022.2.4,120.24126780267412,
1,11,14,0,0.111111111111111,0.298245614035088,0,1.0,1.0,0,0.25,3.10526315789474,ReadingArea_rsl0-rcl11-esl29-rsm0-rcm100-esm100-rsr0-rcr25-esr310,exr/ReadingArea_rsl0-rcl11-esl29-rsm0-rcm100-esm100-rsr0-rcr25-esr310.exr,ReadingArea_rsl0-rcl11-esl29-rsm0-rcm100-esm100-rsr0-rcr25-esr310.npz,,,,,0,12,12,399,,right,red,4.6,579.7911579608917,580.2354629039764,,1,,2,6,lightness,readingArea,realistic,75,2023-03-21_10h50.07.036,tripletExp_regina_11082022,2022.2.4,120.24126780267412,
12,8,6,0,0.027777777777778,3.10526315789474,0,0.25,1.0,0,0.027777777777778,1.0,ReadingArea_rsl0-rcl2-esl310-rsm0-rcm25-esm100-rsr0-rcr2-esr100,exr/ReadingArea_rsl0-rcl2-esl310-rsm0-rcm25-esm100-rsr0-rcr2-esr100.exr,ReadingArea_rsl0-rcl2-esl310-rsm0-rcm25-esm100-rsr0-rcr2-esr100.npz,,,,,0,13,13,281,,left,green,4.89,585.4475748538971,,,1,,2,6,lightness,readingArea,realistic,75,2023-03-21_10h50.07.036,tripletExp_regina_11082022,2022.2.4,120.24126780267412,
1,2,12,0,0.111111111111111,0.298245614035088,0,0.25,0.298245614035088,0,0.027777777777778,3.10526315789474,ReadingArea_rsl0-rcl11-esl29-rsm0-rcm25-esm29-rsr0-rcr2-esr310,exr/ReadingArea_rsl0-rcl11-esl29-rsm0-rcm25-esm29-rsr0-rcr2-esr310.exr,ReadingArea_rsl0-rcl11-esl29-rsm0-rcm25-esm29-rsr0-rcr2-esr310.npz,,,,,0,14,14,229,,left,green,4.65,591.1321239471436,591.5942950248718,,1,,2,6,lightness,readingArea,realistic,75,2023-03-21_10h50.07.036,tripletExp_regina_11082022,2022.2.4,120.24126780267412,
3,6,5,0,0.444444444444444,0.298245614035088,0,0.027777777777778,1.0,0,1.0,0.298245614035088,ReadingArea_rsl0-rcl44-esl29-rsm0-rcm2-esm100-rsr0-rcr100-esr29,exr/ReadingArea_rsl0-rcl44-esl29-rsm0-rcm2-esm100-rsr0-rcr100-esr29.exr,ReadingArea_rsl0-rcl44-esl29-rsm0-rcm2-esm100-rsr0-rcr100-esr29.npz,,,,,0,15,15,274,,left,green,4.6,596.854691028595,597.2793669700623,,1,,2,6,lightness,readingArea,realistic,75,2023-03-21_10h50.07.036,tripletExp_regina_11082022,2022.2.4,120.24126780267412,
0,13,12,0,0.027777777777778,0.298245614035088,0,0.111111111111111,3.10526315789474,0,0.027777777777778,3.10526315789474,ReadingArea_rsl0-rcl2-esl29-rsm0-rcm11-esm310-rsr0-rcr2-esr310,exr/ReadingArea_rsl0-rcl2-esl29-rsm0-rcm11-esm310-rsr0-rcr2-esr310.exr,ReadingArea_rsl0-rcl2-esl29-rsm0-rcm11-esm310-rsr0-rcr2-esr310.npz,,,,,0,16,16,501,,right,red,4.18,602.5481460094452,603.0609879493713,,1,,2,6,lightness,readingArea,realistic,75,2023-03-21_10h50.07.036,tripletExp_regina_11082022,2022.2.4,120.24126780267412,
11,5,8,0,1.0,1.0,0,1.0,0.298245614035088,0,0.25,1.0,ReadingArea_rsl0-rcl100-esl100-rsm0-rcm100-esm29-rsr0-rcr25-esr100,exr/ReadingArea_rsl0-rcl100-esl100-rsm0-rcm100-esm29-rsr0-rcr25-esr100.exr,ReadingArea_rsl0-rcl100-esl100-rsm0-rcm100-esm29-rsr0-rcr25-esr100.npz,,,,,0,17,17,86,,,red,4.18,608.2839169502258,,,1,607.948705124855,2,6,lightness,readingArea,realistic,75,2023-03-21_10h50.07.036,tripletExp_regina_11082022,2022.2.4,120.24126780267412,
8,6,0,0,0.25,1.0,0,0.027777777777778,1.0,0,0.027777777777778,0.298245614035088,ReadingArea_rsl0-rcl25-esl100-rsm0-rcm2-esm100-rsr0-rcr2-esr29,exr/ReadingArea_rsl0-rcl25-esl100-rsm0-rcm2-esm100-rsr0-rcr2-esr29.exr,ReadingArea_rsl0-rcl25-esl100-rsm0-rcm2-esm100-rsr0-rcr2-esr29.npz,,,,,0,18,18,187,,left,green,3.01,612.2305788993835,612.6671988964081,,1,,2,6,lightness,readingArea,realistic,75,2023-03-21_10h50.07.036,tripletExp_regina_11082022,2022.2.4,120.24126780267412,
8,11,1,0,0.25,1.0,0,1.0,1.0,0,0.111111111111111,0.298245614035088,ReadingArea_rsl0-rcl25-esl100-rsm0-rcm100-esm100-rsr0-rcr11-esr29,exr/ReadingArea_rsl0-rcl25-esl100-rsm0-rcm100-esm100-rsr0-rcr11-esr29.exr,ReadingArea_rsl0-rcl25-esl100-rsm0-rcm100-esm100-rsr0-rcr11-esr29.npz,,,,,0,19,19,132,,left,green,3.05,616.1148388385773,616.5629999637604,,1,,2,6,lightness,readingArea,realistic,75,2023-03-21_10h50.07.036,tripletExp_regina_11082022,2022.2.4,120.24126780267412,
13,6,0,0,0.111111111111111,3.10526315789474,0,0.027777777777778,1.0,0,0.027777777777778,0.298245614035088,ReadingArea_rsl0-rcl11-esl310-rsm0-rcm2-esm100-rsr0-rcr2-esr29,exr/ReadingArea_rsl0-rcl11-esl310-rsm0-rcm2-esm100-rsr0-rcr2-esr29.exr,ReadingArea_rsl0-rcl11-esl310-rsm0-rcm2-esm100-rsr0-rcr2-esr29.npz,,,,,0,20,20,309,,right,red,1.51,618.2782309055328,618.6995439529419,,1,,2,6,lightness,readingArea,realistic,75,2023-03-21_10h50.07.036,tripletExp_regina_11082022,2022.2.4,120.24126780267412,
2,9,10,0,0.25,0.298245614035088,0,0.444444444444444,1.0,0,0.694444444444444,1.0,ReadingArea_rsl0-rcl25-esl29-rsm0-rcm44-esm100-rsr0-rcr69-esr100,exr/ReadingArea_rsl0-rcl25-esl29-rsm0-rcm44-esm100-rsr0-rcr69-esr100.exr,ReadingArea_rsl0-rcl25-esl29-rsm0-rcm44-esm100-rsr0-rcr69-esr100.npz,,,,,0,21,21,117,,right,red,4.31,623.9214639663696,624.3702290058136,,1,,2,6,lightness,readingArea,realistic,75,2023-03-21_10h50.07.036,tripletExp_regina_11082022,2022.2.4,120.24126780267412,
5,4,1,0,1.0,0.298245614035088,0,0.694444444444444,0.298245614035088,0,0.111111111111111,0.298245614035088,ReadingArea_rsl0-rcl100-esl29-rsm0-rcm69-esm29-rsr0-rcr11-esr29,exr/ReadingArea_rsl0-rcl100-esl29-rsm0-rcm69-esm29-rsr0-rcr11-esr29.exr,ReadingArea_rsl0-rcl100-esl29-rsm0-rcm69-esm29-rsr0-rcr11-esr29.npz,,,,,0,22,22,560,,left,green,4.4,629.5976519584656,630.0548138618469,,1,,2,6,lightness,readingArea,realistic,75,2023-03-21_10h50.07.036,tripletExp_regina_11082022,2022.2.4,120.24126780267412,
11,2,8,0,1.0,1.0,0,0.25,0.298245614035088,0,0.25,1.0,ReadingArea_rsl0-rcl100-esl100-rsm0-rcm25-esm29-rsr0-rcr25-esr100,exr/ReadingArea_rsl0-rcl100-esl100-rsm0-rcm25-esm29-rsr0-rcr25-esr100.exr,ReadingArea_rsl0-rcl100-esl100-rsm0-rcm25-esm29-rsr0-rcr25-esr100.npz,,,,,0,23,23,214,,right,red,1.6,631.7680239677429,632.2049129009247,,1,,2,6,lightness,readingArea,realistic,75,2023-03-21_10h50.07.036,tripletExp_regina_11082022,2022.2.4,120.24126780267412,
4,13,1,0,0.694444444444444,0.298245614035088,0,0.111111111111111,3.10526315789474,0,0.111111111111111,0.298245614035088,ReadingArea_rsl0-rcl69-esl29-rsm0-rcm11-esm310-rsr0-rcr11-esr29,exr/ReadingArea_rsl0-rcl69-esl29-rsm0-rcm11-esm310-rsr0-rcr11-esr29.exr,ReadingArea_rsl0-rcl69-esl29-rsm0-rcm11-esm310-rsr0-rcr11-esr29.npz,,,,,0,24,24,192,,right,red,2.93,635.6754250526428,636.2190718650818,,1,,2,6,lightness,readingArea,realistic,75,2023-03-21_10h50.07.036,tripletExp_regina_11082022,2022.2.4,120.24126780267412,
7,8,12,0,0.111111111111111,1.0,0,0.25,1.0,0,0.027777777777778,3.10526315789474,ReadingArea_rsl0-rcl11-esl100-rsm0-rcm25-esm100-rsr0-rcr2-esr310,exr/ReadingArea_rsl0-rcl11-esl100-rsm0-rcm25-esm100-rsr0-rcr2-esr310.exr,ReadingArea_rsl0-rcl11-esl100-rsm0-rcm25-esm100-rsr0-rcr2-esr310.npz,,,,,0,25,25,271,,left,green,4.46,641.4496459960938,641.9809169769287,,1,,2,6,lightness,readingArea,realistic,75,2023-03-21_10h50.07.036,tripletExp_regina_11082022,2022.2.4,120.24126780267412,
4,1,3,0,0.694444444444444,0.298245614035088,0,0.111111111111111,0.298245614035088,0,0.444444444444444,0.298245614035088,ReadingArea_rsl0-rcl69-esl29-rsm0-rcm11-esm29-rsr0-rcr44-esr29,exr/ReadingArea_rsl0-rcl69-esl29-rsm0-rcm11-esm29-rsr0-rcr44-esr29.exr,ReadingArea_rsl0-rcl69-esl29-rsm0-rcm11-esm29-rsr0-rcr44-esr29.npz,,,,,0,26,26,70,,,green,4.46,647.2413058280945,647.6864399909973,,1,646.8348161458969,2,6,lightness,readingArea,realistic,75,2023-03-21_10h50.07.036,tripletExp_regina_11082022,2022.2.4,120.24126780267412,
12,5,10,0,0.027777777777778,3.10526315789474,0,1.0,0.298245614035088,0,0.694444444444444,1.0,ReadingArea_rsl0-rcl2-esl310-rsm0-rcm100-esm29-rsr0-rcr69-esr100,exr/ReadingArea_rsl0-rcl2-esl310-rsm0-rcm100-esm29-rsr0-rcr69-esr100.exr,ReadingArea_rsl0-rcl2-esl310-rsm0-rcm100-esm29-rsr0-rcr69-esr100.npz,,,,,0,27,27,493,,right,red,3.84,652.9082639217377,,,1,,2,6,lightness,readingArea,realistic,75,2023-03-21_10h50.07.036,tripletExp_regina_11082022,2022.2.4,120.24126780267412,
6,4,13,0,0.027777777777778,1.0,0,0.694444444444444,0.298245614035088,0,0.111111111111111,3.10526315789474,ReadingArea_rsl0-rcl2-esl100-rsm0-rcm69-esm29-rsr0-rcr11-esr310,exr/ReadingArea_rsl0-rcl2-esl100-rsm0-rcm69-esm29-rsr0-rcr11-esr310.exr,ReadingArea_rsl0-rcl2-esl100-rsm0-rcm69-esm29-rsr0-rcr11-esr310.npz,,,,,0,28,28,202,,right,red,2.77,656.842649936676,657.3546988964081,,1,,2,6,lightness,readingArea,realistic,75,2023-03-21_10h50.07.036,tripletExp_regina_11082022,2022.2.4,120.24126780267412,
7,4,2,0,0.111111111111111,1.0,0,0.694444444444444,0.298245614035088,0,0.25,0.298245614035088,ReadingArea_rsl0-rcl11-esl100-rsm0-rcm69-esm29-rsr0-rcr25-esr29,exr/ReadingArea_rsl0-rcl11-esl100-rsm0-rcm69-esm29-rsr0-rcr25-esr29.exr,ReadingArea_rsl0-rcl11-esl100-rsm0-rcm69-esm29-rsr0-rcr25-esr29.npz,,,,,0,29,29,146,,left,green,3.32,660.8455679416656,661.2829558849335,,1,,2,6,lightness,readingArea,realistic,75,2023-03-21_10h50.07.036,tripletExp_regina_11082022,2022.2.4,120.24126780267412,
4,8,11,0,0.694444444444444,0.298245614035088,0,0.25,1.0,0,1.0,1.0,ReadingArea_rsl0-rcl69-esl29-rsm0-rcm25-esm100-rsr0-rcr100-esr100,exr/ReadingArea_rsl0-rcl69-esl29-rsm0-rcm25-esm100-rsr0-rcr100-esr100.exr,ReadingArea_rsl0-rcl69-esl29-rsm0-rcm25-esm100-rsr0-rcr100-esr100.npz,,,,,0,30,30,403,,left,green,2.81,664.7492299079895,665.1834590435028,,1,,2,6,lightness,readingArea,realistic,75,2023-03-21_10h50.07.036,tripletExp_regina_11082022,2022.2.4,120.24126780267412,
7,8,3,0,0.111111111111111,1.0,0,0.25,1.0,0,0.444444444444444,0.298245614035088,ReadingArea_rsl0-rcl11-esl100-rsm0-rcm25-esm100-rsr0-rcr44-esr29,exr/ReadingArea_rsl0-rcl11-esl100-rsm0-rcm25-esm100-rsr0-rcr44-esr29.exr,ReadingArea_rsl0-rcl11-esl100-rsm0-rcm25-esm100-rsr0-rcr44-esr29.npz,,,,,0,31,31,459,,left,green,3.06,668.6466228961945,669.0879368782043,,1,,2,6,lightness,readingArea,realistic,75,2023-03-21_10h50.07.036,tripletExp_regina_11082022,2022.2.4,120.24126780267412,
8,12,13,0,0.25,1.0,0,0.027777777777778,3.10526315789474,0,0.111111111111111,3.10526315789474,ReadingArea_rsl0-rcl25-esl100-rsm0-rcm2-esm310-rsr0-rcr11-esr310,exr/ReadingArea_rsl0-rcl25-esl100-rsm0-rcm2-esm310-rsr0-rcr11-esr310.exr,ReadingArea_rsl0-rcl25-esl100-rsm0-rcm2-esm310-rsr0-rcr11-esr310.npz,,,,,0,32,32,275,,left,green,4.96,674.3651900291443,674.8181040287018,,1,,2,6,lightness,readingArea,realistic,75,2023-03-21_10h50.07.036,tripletExp_regina_11082022,2022.2.4,120.24126780267412,
0,10,12,0,0.027777777777778,0.298245614035088,0,0.694444444444444,1.0,0,0.027777777777778,3.10526315789474,ReadingArea_rsl0-rcl2-esl29-rsm0-rcm69-esm100-rsr0-rcr2-esr310,exr/ReadingArea_rsl0-rcl2-esl29-rsm0-rcm69-esm100-rsr0-rcr2-esr310.exr,ReadingArea_rsl0-rcl2-esl29-rsm0-rcm69-esm100-rsr0-rcr2-esr310.npz,,,,,0,33,33,531,,right,red,4.78,680.0618870258331,,,1,,2,6,lightness,readingArea,realistic,75,2023-03-21_10h50.07.036,tripletExp_regina_11082022,2022.2.4,120.24126780267412,
4,11,12,0,0.694444444444444,0.298245614035088,0,1.0,1.0,0,0.027777777777778,3.10526315789474,ReadingArea_rsl0-rcl69-esl29-rsm0-rcm100-esm100-rsr0-rcr2-esr310,exr/ReadingArea_rsl0-rcl69-esl29-rsm0-rcm100-esm100-rsr0-rcr2-esr310.exr,ReadingArea_rsl0-rcl69-esl29-rsm0-rcm100-esm100-rsr0-rcr2-esr310.npz,,,,,0,34,34,109,,left,green,3.19,683.9670388698578,684.41694688797,,1,,2,6,lightness,readingArea,realistic,75,2023-03-21_10h50.07.036,tripletExp_regina_11082022,2022.2.4,120.24126780267412,
5,2,10,0,1.0,0.298245614035088,0,0.25,0.298245614035088,0,0.694444444444444,1.0,ReadingArea_rsl0-rcl100-esl29-rsm0-rcm25-esm29-rsr0-rcr69-esr100,exr/ReadingArea_rsl0-rcl100-esl29-rsm0-rcm25-esm29-rsr0-rcr69-esr100.exr,ReadingArea_rsl0-rcl100-esl29-rsm0-rcm25-esm29-rsr0-rcr69-esr100.npz,,,,,0,35,35,595,,right,red,3.2,687.890496969223,688.3233678340912,,1,,2,6,lightness,readingArea,realistic,75,2023-03-21_10h50.07.036,tripletExp_regina_11082022,2022.2.4,120.24126780267412,
5,2,7,0,1.0,0.298245614035088,0,0.25,0.298245614035088,0,0.111111111111111,1.0,ReadingArea_rsl0-rcl100-esl29-rsm0-rcm25-esm29-rsr0-rcr11-esr100,exr/ReadingArea_rsl0-rcl100-esl29-rsm0-rcm25-esm29-rsr0-rcr11-esr100.exr,ReadingArea_rsl0-rcl100-esl29-rsm0-rcm25-esm29-rsr0-rcr11-esr100.npz,,,,,0,36,36,179,,right,red,2.46,691.8075459003448,692.2663269042969,,1,,2,6,lightness,readingArea,realistic,75,2023-03-21_10h50.07.036,tripletExp_regina_11082022,2022.2.4,120.24126780267412,
9,7,2,0,0.444444444444444,1.0,0,0.111111111111111,1.0,0,0.25,0.298245614035088,ReadingArea_rsl0-rcl44-esl100-rsm0-rcm11-esm100-rsr0-rcr25-esr29,exr/ReadingArea_rsl0-rcl44-esl100-rsm0-rcm11-esm100-rsr0-rcr25-esr29.exr,ReadingArea_rsl0-rcl44-esl100-rsm0-rcm11-esm100-rsr0-rcr25-esr29.npz,,,,,0,37,37,428,,right,red,1.77,693.9818758964539,694.4304389953613,,1,,2,6,lightness,readingArea,realistic,75,2023-03-21_10h50.07.036,tripletExp_regina_11082022,2022.2.4,120.24126780267412,
3,13,10,0,0.444444444444444,0.298245614035088,0,0.111111111111111,3.10526315789474,0,0.694444444444444,1.0,ReadingArea_rsl0-rcl44-esl29-rsm0-rcm11-esm310-rsr0-rcr69-esr100,exr/ReadingArea_rsl0-rcl44-esl29-rsm0-rcm11-esm310-rsr0-rcr69-esr100.exr,ReadingArea_rsl0-rcl44-esl29-rsm0-rcm11-esm310-rsr0-rcr69-esr100.npz,,,,,0,38,38,416,,left,green,3.57,697.8929710388184,698.3357510566711,,1,,2,6,lightness,readingArea,realistic,75,2023-03-21_10h50.07.036,tripletExp_regina_11082022,2022.2.4,120.24126780267412,
10,3,6,0,0.694444444444444,1.0,0,0.444444444444444,0.298245614035088,0,0.027777777777778,1.0,ReadingArea_rsl0-rcl69-esl100-rsm0-rcm44-esm29-rsr0-rcr2-esr100,exr/ReadingArea_rsl0-rcl69-esl100-rsm0-rcm44-esm29-rsr0-rcr2-esr100.exr,ReadingArea_rsl0-rcl69-esl100-rsm0-rcm44-esm29-rsr0-rcr2-esr100.npz,,,,,0,39,39,261,,right,red,4.12,703.5670080184937,704.0979619026184,,1,,2,6,lightness,readingArea,realistic,75,2023-03-21_10h50.07.036,tripletExp_regina_11082022,2022.2.4,120.24126780267412,
7,10,4,0,0.111111111111111,1.0,0,0.694444444444444,1.0,0,0.694444444444444,0.298245614035088,ReadingArea_rsl0-rcl11-esl100-rsm0-rcm69-esm100-rsr0-rcr69-esr29,exr/ReadingArea_rsl0-rcl11-esl100-rsm0-rcm69-esm100-rsr0-rcr69-esr29.exr,ReadingArea_rsl0-rcl11-esl100-rsm0-rcm69-esm100-rsr0-rcr69-esr29.npz,,,,,0,40,40,46,,left,green,4.39,709.3544368743896,709.8369309902191,,1,,2,6,lightness,readingArea,realistic,75,2023-03-21_10h50.07.036,tripletExp_regina_11082022,2022.2.4,120.24126780267412,
5,13,12,0,1.0,0.298245614035088,0,0.111111111111111,3.10526315789474,0,0.027777777777778,3.10526315789474,ReadingArea_rsl0-rcl100-esl29-rsm0-rcm11-esm310-rsr0-rcr2-esr310,exr/ReadingArea_rsl0-rcl100-esl29-rsm0-rcm11-esm310-rsr0-rcr2-esr310.exr,ReadingArea_rsl0-rcl100-esl29-rsm0-rcm11-esm310-rsr0-rcr2-esr310.npz,,,,,0,41,41,389,,right,red,4.76,715.0594780445099,,,1,,2,6,lightness,readingArea,realistic,75,2023-03-21_10h50.07.036,tripletExp_regina_11082022,2022.2.4,120.24126780267412,
4,12,5,0,0.694444444444444,0.298245614035088,0,0.027777777777778,3.10526315789474,0,1.0,0.298245614035088,ReadingArea_rsl0-rcl69-esl29-rsm0-rcm2-esm310-rsr0-rcr100-esr29,exr/ReadingArea_rsl0-rcl69-esl29-rsm0-rcm2-esm310-rsr0-rcr100-esr29.exr,ReadingArea_rsl0-rcl69-esl29-rsm0-rcm2-esm310-rsr0-rcr100-esr29.npz,,,,,0,42,42,296,,left,green,4.01,720.7182500362396,,,1,,2,6,lightness,readingArea,realistic,75,2023-03-21_10h50.07.036,tripletExp_regina_11082022,2022.2.4,120.24126780267412,
5,9,0,0,1.0,0.298245614035088,0,0.444444444444444,1.0,0,0.027777777777778,0.298245614035088,ReadingArea_rsl0-rcl100-esl29-rsm0-rcm44-esm100-rsr0-rcr2-esr29,exr/ReadingArea_rsl0-rcl100-esl29-rsm0-rcm44-esm100-rsr0-rcr2-esr29.exr,ReadingArea_rsl0-rcl100-esl29-rsm0-rcm44-esm100-rsr0-rcr2-esr29.npz,,,,,0,43,43,575,,left,green,4.59,726.479640007019,726.943363904953,,1,,2,6,lightness,readingArea,realistic,75,2023-03-21_10h50.07.036,tripletExp_regina_11082022,2022.2.4,120.24126780267412,
7,4,1,0,0.111111111111111,1.0,0,0.694444444444444,0.298245614035088,0,0.111111111111111,0.298245614035088,ReadingArea_rsl0-rcl11-esl100-rsm0-rcm69-esm29-rsr0-rcr11-esr29,exr/ReadingArea_rsl0-rcl11-esl100-rsm0-rcm69-esm29-rsr0-rcr11-esr29.exr,ReadingArea_rsl0-rcl11-esl100-rsm0-rcm69-esm29-rsr0-rcr11-esr29.npz,,,,,0,44,44,369,,left,green,4.6,732.1650500297546,732.6864669322968,,1,,2,6,lightness,readingArea,realistic,75,2023-03-21_10h50.07.036,tripletExp_regina_11082022,2022.2.4,120.24126780267412,
6,12,0,0,0.027777777777778,1.0,0,0.027777777777778,3.10526315789474,0,0.027777777777778,0.298245614035088,ReadingArea_rsl0-rcl2-esl100-rsm0-rcm2-esm310-rsr0-rcr2-esr29,exr/ReadingArea_rsl0-rcl2-esl100-rsm0-rcm2-esm310-rsr0-rcr2-esr29.exr,ReadingArea_rsl0-rcl2-esl100-rsm0-rcm2-esm310-rsr0-rcr2-esr29.npz,,,,,0,45,45,23,,left,green,3.16,736.142863035202,736.5991480350494,,1,,2,6,lightness,readingArea,realistic,75,2023-03-21_10h50.07.036,tripletExp_regina_11082022,2022.2.4,120.24126780267412,
1,5,8,0,0.111111111111111,0.298245614035088,0,1.0,0.298245614035088,0,0.25,1.0,ReadingArea_rsl0-rcl11-esl29-rsm0-rcm100-esm29-rsr0-rcr25-esr100,exr/ReadingArea_rsl0-rcl11-esl29-rsm0-rcm100-esm29-rsr0-rcr25-esr100.exr,ReadingArea_rsl0-rcl11-esl29-rsm0-rcm100-esm29-rsr0-rcr25-esr100.npz,,,,,0,46,46,238,,right,red,2.9,740.1065559387207,740.5573978424072,,1,,2,6,lightness,readingArea,realistic,75,2023-03-21_10h50.07.036,tripletExp_regina_11082022,2022.2.4,120.24126780267412,
13,4,7,0,0.111111111111111,3.10526315789474,0,0.694444444444444,0.298245614035088,0,0.111111111111111,1.0,ReadingArea_rsl0-rcl11-esl310-rsm0-rcm69-esm29-rsr0-rcr11-esr100,exr/ReadingArea_rsl0-rcl11-esl310-rsm0-rcm69-esm29-rsr0-rcr11-esr100.exr,ReadingArea_rsl0-rcl11-esl310-rsm0-rcm69-esm29-rsr0-rcr11-esr100.npz,,,,,0,47,47,282,,right,red,3.12,744.0491309165955,744.4650499820709,,1,,2,6,lightness,readingArea,realistic,75,2023-03-21_10h50.07.036,tripletExp_regina_11082022,2022.2.4,120.24126780267412,
3,1,0,0,0.444444444444444,0.298245614035088,0,0.111111111111111,0.298245614035088,0,0.027777777777778,0.298245614035088,ReadingArea_rsl0-rcl44-esl29-rsm0-rcm11-esm29-rsr0-rcr2-esr29,exr/ReadingArea_rsl0-rcl44-esl29-rsm0-rcm11-esm29-rsr0-rcr2-esr29.exr,ReadingArea_rsl0-rcl44-esl29-rsm0-rcm11-esm29-rsr0-rcr2-esr29.npz,,,,,0,48,48,343,,left,green,4.56,749.6762959957123,750.1011579036713,,1,,2,6,lightness,readingArea,realistic,75,2023-03-21_10h50.07.036,tripletExp_regina_11082022,2022.2.4,120.24126780267412,
3,6,11,0,0.444444444444444,0.298245614035088,0,0.027777777777778,1.0,0,1.0,1.0,ReadingArea_rsl0-rcl44-esl29-rsm0-rcm2-esm100-rsr0-rcr100-esr100,exr/ReadingArea_rsl0-rcl44-esl29-rsm0-rcm2-esm100-rsr0-rcr100-esr100.exr,ReadingArea_rsl0-rcl44-esl29-rsm0-rcm2-esm100-rsr0-rcr100-esr100.npz,,,,,0,49,49,155,,left,green,1.69,751.809828042984,752.2506468296051,,1,,2,6,lightness,readingArea,realistic,75,2023-03-21_10h50.07.036,tripletExp_regina_11082022,2022.2.4,120.24126780267412,
5,13,6,0,1.0,0.298245614035088,0,0.111111111111111,3.10526315789474,0,0.027777777777778,1.0,ReadingArea_rsl0-rcl100-esl29-rsm0-rcm11-esm310-rsr0-rcr2-esr100,exr/ReadingArea_rsl0-rcl100-esl29-rsm0-rcm11-esm310-rsr0-rcr2-esr100.exr,ReadingArea_rsl0-rcl100-esl29-rsm0-rcm11-esm310-rsr0-rcr2-esr100.npz,,,,,0,50,50,263,,left,green,4.49,757.475250005722,758.023099899292,,1,,2,6,lightness,readingArea,realistic,75,2023-03-21_10h50.07.036,tripletExp_regina_11082022,2022.2.4,120.24126780267412,
7,12,0,0,0.111111111111111,1.0,0,0.027777777777778,3.10526315789474,0,0.027777777777778,0.298245614035088,ReadingArea_rsl0-rcl11-esl100-rsm0-rcm2-esm310-rsr0-rcr2-esr29,exr/ReadingArea_rsl0-rcl11-esl100-rsm0-rcm2-esm310-rsr0-rcr2-esr29.exr,ReadingArea_rsl0-rcl11-esl100-rsm0-rcm2-esm310-rsr0-rcr2-esr29.npz,,,,,0,51,51,425,,left,green,3.52,761.4622068405151,761.9020128250122,,1,,2,6,lightness,readingArea,realistic,75,2023-03-21_10h50.07.036,tripletExp_regina_11082022,2022.2.4,120.24126780267412,
1,6,11,0,0.111111111111111,0.298245614035088,0,0.027777777777778,1.0,0,1.0,1.0,ReadingArea_rsl0-rcl11-esl29-rsm0-rcm2-esm100-rsr0-rcr100-esr100,exr/ReadingArea_rsl0-rcl11-esl29-rsm0-rcm2-esm100-rsr0-rcr100-esr100.exr,ReadingArea_rsl0-rcl11-esl29-rsm0-rcm2-esm100-rsr0-rcr100-esr100.npz,,,,,0,52,52,39,,left,green,2.64,765.40256690979,765.8347320556641,,1,,2,6,lightness,readingArea,realistic,75,2023-03-21_10h50.07.036,tripletExp_regina_11082022,2022.2.4,120.24126780267412,
13,8,5,0,0.111111111111111,3.10526315789474,0,0.25,1.0,0,1.0,0.298245614035088,ReadingArea_rsl0-rcl11-esl310-rsm0-rcm25-esm100-rsr0-rcr100-esr29,exr/ReadingArea_rsl0-rcl11-esl310-rsm0-rcm25-esm100-rsr0-rcr100-esr29.exr,ReadingArea_rsl0-rcl11-esl310-rsm0-rcm25-esm100-rsr0-rcr100-esr29.npz,,,,,0,53,53,209,,right,red,4.89,771.0678579807281,,,1,,2,6,lightness,readingArea,realistic,75,2023-03-21_10h50.07.036,tripletExp_regina_11082022,2022.2.4,120.24126780267412,
14,9,0,0,0.25,3.10526315789474,0,0.444444444444444,1.0,0,0.027777777777778,0.298245614035088,ReadingArea_rsl0-rcl25-esl310-rsm0-rcm44-esm100-rsr0-rcr2-esr29,exr/ReadingArea_rsl0-rcl25-esl310-rsm0-rcm44-esm100-rsr0-rcr2-esr29.exr,ReadingArea_rsl0-rcl25-esl310-rsm0-rcm44-esm100-rsr0-rcr2-esr29.npz,,,,,0,54,54,313,,left,green,2.88,775.0730068683624,775.5130889415741,,1,,2,6,lightness,readingArea,realistic,75,2023-03-21_10h50.07.036,tripletExp_regina_11082022,2022.2.4,120.24126780267412,
10,14,1,0,0.694444444444444,1.0,0,0.25,3.10526315789474,0,0.111111111111111,0.298245614035088,ReadingArea_rsl0-rcl69-esl100-rsm0-rcm25-esm310-rsr0-rcr11-esr29,exr/ReadingArea_rsl0-rcl69-esl100-rsm0-rcm25-esm310-rsr0-rcr11-esr29.exr,ReadingArea_rsl0-rcl69-esl100-rsm0-rcm25-esm310-rsr0-rcr11-esr29.npz,,,,,0,55,55,544,,left,green,4.19,780.7732949256897,781.213634967804,,1,,2,6,lightness,readingArea,realistic,75,2023-03-21_10h50.07.036,tripletExp_regina_11082022,2022.2.4,120.24126780267412,
13,8,14,0,0.111111111111111,3.10526315789474,0,0.25,1.0,0,0.25,3.10526315789474,ReadingArea_rsl0-rcl11-esl310-rsm0-rcm25-esm100-rsr0-rcr25-esr310,exr/ReadingArea_rsl0-rcl11-esl310-rsm0-rcm25-esm100-rsr0-rcr25-esr310.exr,ReadingArea_rsl0-rcl11-esl310-rsm0-rcm25-esm100-rsr0-rcr25-esr310.npz,,,,,0,56,56,345,,left,green,1.51,782.9087889194489,783.3387508392334,,1,,2,6,lightness,readingArea,realistic,75,2023-03-21_10h50.07.036,tripletExp_regina_11082022,2022.2.4,120.24126780267412,
10,1,13,0,0.694444444444444,1.0,0,0.111111111111111,0.298245614035088,0,0.111111111111111,3.10526315789474,ReadingArea_rsl0-rcl69-esl100-rsm0-rcm11-esm29-rsr0-rcr11-esr310,exr/ReadingArea_rsl0-rcl69-esl100-rsm0-rcm11-esm29-rsr0-rcr11-esr310.exr,ReadingArea_rsl0-rcl69-esl100-rsm0-rcm11-esm29-rsr0-rcr11-esr310.npz,,,,,0,57,57,45,,right,red,1.43,785.0358619689941,785.4588649272919,,1,,2,6,lightness,readingArea,realistic,75,2023-03-21_10h50.07.036,tripletExp_regina_11082022,2022.2.4,120.24126780267412,
2,13,0,0,0.25,0.298245614035088,0,0.111111111111111,3.10526315789474,0,0.027777777777778,0.298245614035088,ReadingArea_rsl0-rcl25-esl29-rsm0-rcm11-esm310-rsr0-rcr2-esr29,exr/ReadingArea_rsl0-rcl25-esl29-rsm0-rcm11-esm310-rsr0-rcr2-esr29.exr,ReadingArea_rsl0-rcl25-esl29-rsm0-rcm11-esm310-rsr0-rcr2-esr29.npz,,,,,0,58,58,454,,left,green,4.28,790.7004280090332,791.1348419189453,,1,,2,6,lightness,readingArea,realistic,75,2023-03-21_10h50.07.036,tripletExp_regina_11082022,2022.2.4,120.24126780267412,
8,6,5,0,0.25,1.0,0,0.027777777777778,1.0,0,1.0,0.298245614035088,ReadingArea_rsl0-rcl25-esl100-rsm0-rcm2-esm100-rsr0-rcr100-esr29,exr/ReadingArea_rsl0-rcl25-esl100-rsm0-rcm2-esm100-rsr0-rcr100-esr29.exr,ReadingArea_rsl0-rcl25-esl100-rsm0-rcm2-esm100-rsr0-rcr100-esr29.npz,,,,,0,59,59,241,,left,green,3.1,794.5834360122681,795.0016469955444,,1,,2,6,lightness,readingArea,realistic,75,2023-03-21_10h50.07.036,tripletExp_regina_11082022,2022.2.4,120.24126780267412,
0,9,6,0,0.027777777777778,0.298245614035088,0,0.444444444444444,1.0,0,0.027777777777778,1.0,ReadingArea_rsl0-rcl2-esl29-rsm0-rcm44-esm100-rsr0-rcr2-esr100,exr/ReadingArea_rsl0-rcl2-esl29-rsm0-rcm44-esm100-rsr0-rcr2-esr100.exr,ReadingArea_rsl0-rcl2-esl29-rsm0-rcm44-esm100-rsr0-rcr2-esr100.npz,,,,,0,60,60,365,,right,red,2.87,798.5136339664459,,,1,,2,6,lightness,readingArea,realistic,75,2023-03-21_10h50.07.036,tripletExp_regina_11082022,2022.2.4,120.24126780267412,
4,10,9,0,0.694444444444444,0.298245614035088,0,0.694444444444444,1.0,0,0.444444444444444,1.0,ReadingArea_rsl0-rcl69-esl29-rsm0-rcm69-esm100-rsr0-rcr44-esr100,exr/ReadingArea_rsl0-rcl69-esl29-rsm0-rcm69-esm100-rsr0-rcr44-esr100.exr,ReadingArea_rsl0-rcl69-esl29-rsm0-rcm69-esm100-rsr0-rcr44-esr100.npz,,,,,0,61,61,516,,right,red,2.94,802.4225559234619,,,1,,2,6,lightness,readingArea,realistic,75,2023-03-21_10h50.07.036,tripletExp_regina_11082022,2022.2.4,120.24126780267412,
3,12,4,0,0.444444444444444,0.298245614035088,0,0.027777777777778,3.10526315789474,0,0.694444444444444,0.298245614035088,ReadingArea_rsl0-rcl44-esl29-rsm0-rcm2-esm310-rsr0-rcr69-esr29,exr/ReadingArea_rsl0-rcl44-esl29-rsm0-rcm2-esm310-rsr0-rcr69-esr29.exr,ReadingArea_rsl0-rcl44-esl29-rsm0-rcm2-esm310-rsr0-rcr69-esr29.npz,,,,,0,62,62,426,,left,green,3.17,806.3579800128937,806.8090789318085,,1,,2,6,lightness,readingArea,realistic,75,2023-03-21_10h50.07.036,tripletExp_regina_11082022,2022.2.4,120.24126780267412,
4,6,3,0,0.694444444444444,0.298245614035088,0,0.027777777777778,1.0,0,0.444444444444444,0.298245614035088,ReadingArea_rsl0-rcl69-esl29-rsm0-rcm2-esm100-rsr0-rcr44-esr29,exr/ReadingArea_rsl0-rcl69-esl29-rsm0-rcm2-esm100-rsr0-rcr44-esr29.exr,ReadingArea_rsl0-rcl69-esl29-rsm0-rcm2-esm100-rsr0-rcr44-esr29.npz,,,,,0,63,63,344,,right,red,1.81,808.5304770469666,809.0221450328827,,1,,2,6,lightness,readingArea,realistic,75,2023-03-21_10h50.07.036,tripletExp_regina_11082022,2022.2.4,120.24126780267412,
3,2,8,0,0.444444444444444,0.298245614035088,0,0.25,0.298245614035088,0,0.25,1.0,ReadingArea_rsl0-rcl44-esl29-rsm0-rcm25-esm29-rsr0-rcr25-esr100,exr/ReadingArea_rsl0-rcl44-esl29-rsm0-rcm25-esm29-rsr0-rcr25-esr100.exr,ReadingArea_rsl0-rcl44-esl29-rsm0-rcm25-esm29-rsr0-rcr25-esr100.npz,,,,,0,64,64,181,,left,green,1.51,810.7146780490875,811.1410028934479,,1,,2,6,lightness,readingArea,realistic,75,2023-03-21_10h50.07.036,tripletExp_regina_11082022,2022.2.4,120.24126780267412,
14,7,0,0,0.25,3.10526315789474,0,0.111111111111111,1.0,0,0.027777777777778,0.298245614035088,ReadingArea_rsl0-rcl25-esl310-rsm0-rcm11-esm100-rsr0-rcr2-esr29,exr/ReadingArea_rsl0-rcl25-esl310-rsm0-rcm11-esm100-rsr0-rcr2-esr29.exr,ReadingArea_rsl0-rcl25-esl310-rsm0-rcm11-esm100-rsr0-rcr2-esr29.npz,,,,,0,65,65,412,,right,red,1.68,812.8311548233032,813.2695159912109,,1,,2,6,lightness,readingArea,realistic,75,2023-03-21_10h50.07.036,tripletExp_regina_11082022,2022.2.4,120.24126780267412,
7,8,14,0,0.111111111111111,1.0,0,0.25,1.0,0,0.25,3.10526315789474,ReadingArea_rsl0-rcl11-esl100-rsm0-rcm25-esm100-rsr0-rcr25-esr310,exr/ReadingArea_rsl0-rcl11-esl100-rsm0-rcm25-esm100-rsr0-rcr25-esr310.exr,ReadingArea_rsl0-rcl11-esl100-rsm0-rcm25-esm100-rsr0-rcr25-esr310.npz,,,,,0,66,66,300,,left,green,3.39,816.7376019954681,817.1881489753723,,1,,2,6,lightness,readingArea,realistic,75,2023-03-21_10h50.07.036,tripletExp_regina_11082022,2022.2.4,120.24126780267412,
4,2,0,0,0.694444444444444,0.298245614035088,0,0.25,0.298245614035088,0,0.027777777777778,0.298245614035088,ReadingArea_rsl0-rcl69-esl29-rsm0-rcm25-esm29-rsr0-rcr2-esr29,exr/ReadingArea_rsl0-rcl69-esl29-rsm0-rcm25-esm29-rsr0-rcr2-esr29.exr,ReadingArea_rsl0-rcl69-esl29-rsm0-rcm25-esm29-rsr0-rcr2-esr29.npz,,,,,0,67,67,71,,,green,3.39,822.4063940048218,822.935436964035,,1,822.0355350255966,2,6,lightness,readingArea,realistic,75,2023-03-21_10h50.07.036,tripletExp_regina_11082022,2022.2.4,120.24126780267412,
9,6,13,0,0.444444444444444,1.0,0,0.027777777777778,1.0,0,0.111111111111111,3.10526315789474,ReadingArea_rsl0-rcl44-esl100-rsm0-rcm2-esm100-rsr0-rcr11-esr310,exr/ReadingArea_rsl0-rcl44-esl100-rsm0-rcm2-esm100-rsr0-rcr11-esr310.exr,ReadingArea_rsl0-rcl44-esl100-rsm0-rcm2-esm100-rsr0-rcr11-esr310.npz,,,,,0,68,68,285,,right,red,1.69,824.6607849597931,825.1245858669281,,1,,2,6,lightness,readingArea,realistic,75,2023-03-21_10h50.07.036,tripletExp_regina_11082022,2022.2.4,120.24126780267412,
13,11,2,0,0.111111111111111,3.10526315789474,0,1.0,1.0,0,0.25,0.298245614035088,ReadingArea_rsl0-rcl11-esl310-rsm0-rcm100-esm100-rsr0-rcr25-esr29,exr/ReadingArea_rsl0-rcl11-esl310-rsm0-rcm100-esm100-rsr0-rcr25-esr29.exr,ReadingArea_rsl0-rcl11-esl310-rsm0-rcm100-esm100-rsr0-rcr25-esr29.npz,,,,,0,69,69,55,,left,green,3.0,828.585590839386,,,1,,2,6,lightness,readingArea,realistic,75,2023-03-21_10h50.07.036,tripletExp_regina_11082022,2022.2.4,120.24126780267412,
10,0,3,0,0.694444444444444,1.0,0,0.027777777777778,0.298245614035088,0,0.444444444444444,0.298245614035088,ReadingArea_rsl0-rcl69-esl100-rsm0-rcm2-esm29-rsr0-rcr44-esr29,exr/ReadingArea_rsl0-rcl69-esl100-rsm0-rcm2-esm29-rsr0-rcr44-esr29.exr,ReadingArea_rsl0-rcl69-esl100-rsm0-rcm2-esm29-rsr0-rcr44-esr29.npz,,,,,0,70,70,87,,right,red,2.87,832.5409450531006,833.3480038642883,,1,,2,6,lightness,readingArea,realistic,75,2023-03-21_10h50.07.036,tripletExp_regina_11082022,2022.2.4,120.24126780267412,
11,8,2,0,1.0,1.0,0,0.25,1.0,0,0.25,0.298245614035088,ReadingArea_rsl0-rcl100-esl100-rsm0-rcm25-esm100-rsr0-rcr25-esr29,exr/ReadingArea_rsl0-rcl100-esl100-rsm0-rcm25-esm100-rsr0-rcr25-esr29.exr,ReadingArea_rsl0-rcl100-esl100-rsm0-rcm25-esm100-rsr0-rcr25-esr29.npz,,,,,0,71,71,406,,right,red,3.45,836.812656879425,837.2994589805603,,1,,2,6,lightness,readingArea,realistic,75,2023-03-21_10h50.07.036,tripletExp_regina_11082022,2022.2.4,120.24126780267412,
3,2,11,0,0.444444444444444,0.298245614035088,0,0.25,0.298245614035088,0,1.0,1.0,ReadingArea_rsl0-rcl44-esl29-rsm0-rcm25-esm29-rsr0-rcr100-esr100,exr/ReadingArea_rsl0-rcl44-esl29-rsm0-rcm25-esm29-rsr0-rcr100-esr100.exr,ReadingArea_rsl0-rcl44-esl29-rsm0-rcm25-esm29-rsr0-rcr100-esr100.npz,,,,,0,72,72,257,,left,green,2.83,840.7714450359344,841.230870962143,,1,,2,6,lightness,readingArea,realistic,75,2023-03-21_10h50.07.036,tripletExp_regina_11082022,2022.2.4,120.24126780267412,
0,14,10,0,0.027777777777778,0.298245614035088,0,0.25,3.10526315789474,0,0.694444444444444,1.0,ReadingArea_rsl0-rcl2-esl29-rsm0-rcm25-esm310-rsr0-rcr69-esr100,exr/ReadingArea_rsl0-rcl2-esl29-rsm0-rcm25-esm310-rsr0-rcr69-esr100.exr,ReadingArea_rsl0-rcl2-esl29-rsm0-rcm25-esm310-rsr0-rcr69-esr100.npz,,,,,0,73,73,128,,left,green,3.19,844.700886964798,845.145495891571,,1,,2,6,lightness,readingArea,realistic,75,2023-03-21_10h50.07.036,tripletExp_regina_11082022,2022.2.4,120.24126780267412,
7,9,3,0,0.111111111111111,1.0,0,0.444444444444444,1.0,0,0.444444444444444,0.298245614035088,ReadingArea_rsl0-rcl11-esl100-rsm0-rcm44-esm100-rsr0-rcr44-esr29,exr/ReadingArea_rsl0-rcl11-esl100-rsm0-rcm44-esm100-rsr0-rcr44-esr29.exr,ReadingArea_rsl0-rcl11-esl100-rsm0-rcm44-esm100-rsr0-rcr44-esr29.npz,,,,,0,74,74,311,,left,green,3.24,848.612951040268,848.8122899532318,,1,,2,6,lightness,readingArea,realistic,75,2023-03-21_10h50.07.036,tripletExp_regina_11082022,2022.2.4,120.24126780267412,
12,5,2,0,0.027777777777778,3.10526315789474,0,1.0,0.298245614035088,0,0.25,0.298245614035088,ReadingArea_rsl0-rcl2-esl310-rsm0-rcm100-esm29-rsr0-rcr25-esr29,exr/ReadingArea_rsl0-rcl2-esl310-rsm0-rcm100-esm29-rsr0-rcr25-esr29.exr,ReadingArea_rsl0-rcl2-esl310-rsm0-rcm100-esm29-rsr0-rcr25-esr29.npz,,,,,0,75,75,415,,right,red,4.64,869.0104720592499,869.5257239341736,,2,,2,6,lightness,readingArea,realistic,75,2023-03-21_10h50.07.036,tripletExp_regina_11082022,2022.2.4,120.24126780267412,
10,7,3,0,0.694444444444444,1.0,0,0.111111111111111,1.0,0,0.444444444444444,0.298245614035088,ReadingArea_rsl0-rcl69-esl100-rsm0-rcm11-esm100-rsr0-rcr44-esr29,exr/ReadingArea_rsl0-rcl69-esl100-rsm0-rcm11-esm100-rsr0-rcr44-esr29.exr,ReadingArea_rsl0-rcl69-esl100-rsm0-rcm11-esm100-rsr0-rcr44-esr29.npz,,,,,0,76,76,582,,right,red,1.73,871.2435858249664,871.698098897934,,2,,2,6,lightness,readingArea,realistic,75,2023-03-21_10h50.07.036,tripletExp_regina_11082022,2022.2.4,120.24126780267412,
2,12,6,0,0.25,0.298245614035088,0,0.027777777777778,3.10526315789474,0,0.027777777777778,1.0,ReadingArea_rsl0-rcl25-esl29-rsm0-rcm2-esm310-rsr0-rcr2-esr100,exr/ReadingArea_rsl0-rcl25-esl29-rsm0-rcm2-esm310-rsr0-rcr2-esr100.exr,ReadingArea_rsl0-rcl25-esl29-rsm0-rcm2-esm310-rsr0-rcr2-esr100.npz,,,,,0,77,77,400,,right,red,2.87,875.1518309116364,875.5996470451355,,2,,2,6,lightness,readingArea,realistic,75,2023-03-21_10h50.07.036,tripletExp_regina_11082022,2022.2.4,120.24126780267412,
4,3,9,0,0.694444444444444,0.298245614035088,0,0.444444444444444,0.298245614035088,0,0.444444444444444,1.0,ReadingArea_rsl0-rcl69-esl29-rsm0-rcm44-esm29-rsr0-rcr44-esr100,exr/ReadingArea_rsl0-rcl69-esl29-rsm0-rcm44-esm29-rsr0-rcr44-esr100.exr,ReadingArea_rsl0-rcl69-esl29-rsm0-rcm44-esm29-rsr0-rcr44-esr100.npz,,,,,0,78,78,451,,left,green,2.95,879.0619678497314,879.6679840087891,,2,,2,6,lightness,readingArea,realistic,75,2023-03-21_10h50.07.036,tripletExp_regina_11082022,2022.2.4,120.24126780267412,
4,3,1,0,0.694444444444444,0.298245614035088,0,0.444444444444444,0.298245614035088,0,0.111111111111111,0.298245614035088,ReadingArea_rsl0-rcl69-esl29-rsm0-rcm44-esm29-rsr0-rcr11-esr29,exr/ReadingArea_rsl0-rcl69-esl29-rsm0-rcm44-esm29-rsr0-rcr11-esr29.exr,ReadingArea_rsl0-rcl69-esl29-rsm0-rcm44-esm29-rsr0-rcr11-esr29.npz,,,,,0,79,79,60,,left,green,3.08,883.12792801857,,,2,,2,6,lightness,readingArea,realistic,75,2023-03-21_10h50.07.036,tripletExp_regina_11082022,2022.2.4,120.24126780267412,
9,0,3,0,0.444444444444444,1.0,0,0.027777777777778,0.298245614035088,0,0.444444444444444,0.298245614035088,ReadingArea_rsl0-rcl44-esl100-rsm0-rcm2-esm29-rsr0-rcr44-esr29,exr/ReadingArea_rsl0-rcl44-esl100-rsm0-rcm2-esm29-rsr0-rcr44-esr29.exr,ReadingArea_rsl0-rcl44-esl100-rsm0-rcm2-esm29-rsr0-rcr44-esr29.npz,,,,,0,80,80,2,,right,red,2.88,887.0563719272614,887.5025000572205,,2,,2,6,lightness,readingArea,realistic,75,2023-03-21_10h50.07.036,tripletExp_regina_11082022,2022.2.4,120.24126780267412,
5,1,4,0,1.0,0.298245614035088,0,0.111111111111111,0.298245614035088,0,0.694444444444444,0.298245614035088,ReadingArea_rsl0-rcl100-esl29-rsm0-rcm11-esm29-rsr0-rcr69-esr29,exr/ReadingArea_rsl0-rcl100-esl29-rsm0-rcm11-esm29-rsr0-rcr69-esr29.exr,ReadingArea_rsl0-rcl100-esl29-rsm0-rcm11-esm29-rsr0-rcr69-esr29.npz,,,,,0,81,81,287,,right,red,1.55,889.2083728313446,889.6232328414917,,2,,2,6,lightness,readingArea,realistic,75,2023-03-21_10h50.07.036,tripletExp_regina_11082022,2022.2.4,120.24126780267412,
5,10,0,0,1.0,0.298245614035088,0,0.694444444444444,1.0,0,0.027777777777778,0.298245614035088,ReadingArea_rsl0-rcl100-esl29-rsm0-rcm69-esm100-rsr0-rcr2-esr29,exr/ReadingArea_rsl0-rcl100-esl29-rsm0-rcm69-esm100-rsr0-rcr2-esr29.exr,ReadingArea_rsl0-rcl100-esl29-rsm0-rcm69-esm100-rsr0-rcr2-esr29.npz,,,,,0,82,82,293,,left,green,4.33,894.8570668697357,895.3838858604431,,2,,2,6,lightness,readingArea,realistic,75,2023-03-21_10h50.07.036,tripletExp_regina_11082022,2022.2.4,120.24126780267412,
13,10,3,0,0.111111111111111,3.10526315789474,0,0.694444444444444,1.0,0,0.444444444444444,0.298245614035088,ReadingArea_rsl0-rcl11-esl310-rsm0-rcm69-esm100-rsr0-rcr44-esr29,exr/ReadingArea_rsl0-rcl11-esl310-rsm0-rcm69-esm100-rsr0-rcr44-esr29.exr,ReadingArea_rsl0-rcl11-esl310-rsm0-rcm69-esm100-rsr0-rcr44-esr29.npz,,,,,0,83,83,224,,left,green,3.01,898.8314828872681,899.2850539684296,,2,,2,6,lightness,readingArea,realistic,75,2023-03-21_10h50.07.036,tripletExp_regina_11082022,2022.2.4,120.24126780267412,
3,9,13,0,0.444444444444444,0.298245614035088,0,0.444444444444444,1.0,0,0.111111111111111,3.10526315789474,ReadingArea_rsl0-rcl44-esl29-rsm0-rcm44-esm100-rsr0-rcr11-esr310,exr/ReadingArea_rsl0-rcl44-esl29-rsm0-rcm44-esm100-rsr0-rcr11-esr310.exr,ReadingArea_rsl0-rcl44-esl29-rsm0-rcm44-esm100-rsr0-rcr11-esr310.npz,,,,,0,84,84,341,,right,red,3.03,902.7395389080048,903.2298409938812,,2,,2,6,lightness,readingArea,realistic,75,2023-03-21_10h50.07.036,tripletExp_regina_11082022,2022.2.4,120.24126780267412,
11,13,1,0,1.0,1.0,0,0.111111111111111,3.10526315789474,0,0.111111111111111,0.298245614035088,ReadingArea_rsl0-rcl100-esl100-rsm0-rcm11-esm310-rsr0-rcr11-esr29,exr/ReadingArea_rsl0-rcl100-esl100-rsm0-rcm11-esm310-rsr0-rcr11-esr29.exr,ReadingArea_rsl0-rcl100-esl100-rsm0-rcm11-esm310-rsr0-rcr11-esr29.npz,,,,,0,85,85,185,,right,red,2.87,906.6842589378356,907.1409289836884,,2,,2,6,lightness,readingArea,realistic,75,2023-03-21_10h50.07.036,tripletExp_regina_11082022,2022.2.4,120.24126780267412,
14,10,9,0,0.25,3.10526315789474,0,0.694444444444444,1.0,0,0.444444444444444,1.0,ReadingArea_rsl0-rcl25-esl310-rsm0-rcm69-esm100-rsr0-rcr44-esr100,exr/ReadingArea_rsl0-rcl25-esl310-rsm0-rcm69-esm100-rsr0-rcr44-esr100.exr,ReadingArea_rsl0-rcl25-esl310-rsm0-rcm69-esm100-rsr0-rcr44-esr100.npz,,,,,0,86,86,402,,right,red,3.01,910.592962026596,911.1488540172576,,2,,2,6,lightness,readingArea,realistic,75,2023-03-21_10h50.07.036,tripletExp_regina_11082022,2022.2.4,120.24126780267412,
6,5,13,0,0.027777777777778,1.0,0,1.0,0.298245614035088,0,0.111111111111111,3.10526315789474,ReadingArea_rsl0-rcl2-esl100-rsm0-rcm100-esm29-rsr0-rcr11-esr310,exr/ReadingArea_rsl0-rcl2-esl100-rsm0-rcm100-esm29-rsr0-rcr11-esr310.exr,ReadingArea_rsl0-rcl2-esl100-rsm0-rcm100-esm29-rsr0-rcr11-esr310.npz,,,,,0,87,87,450,,,red,3.01,916.3782608509064,916.8253638744354,,2,915.8918229818344,2,6,lightness,readingArea,realistic,75,2023-03-21_10h50.07.036,tripletExp_regina_11082022,2022.2.4,120.24126780267412,
11,7,9,0,1.0,1.0,0,0.111111111111111,1.0,0,0.444444444444444,1.0,ReadingArea_rsl0-rcl100-esl100-rsm0-rcm11-esm100-rsr0-rcr44-esr100,exr/ReadingArea_rsl0-rcl100-esl100-rsm0-rcm11-esm100-rsr0-rcr44-esr100.exr,ReadingArea_rsl0-rcl100-esl100-rsm0-rcm11-esm100-rsr0-rcr44-esr100.npz,,,,,0,88,88,521,,right,red,2.26,920.328353881836,920.7695138454436,,2,,2,6,lightness,readingArea,realistic,75,2023-03-21_10h50.07.036,tripletExp_regina_11082022,2022.2.4,120.24126780267412,
11,4,0,0,1.0,1.0,0,0.694444444444444,0.298245614035088,0,0.027777777777778,0.298245614035088,ReadingArea_rsl0-rcl100-esl100-rsm0-rcm69-esm29-rsr0-rcr2-esr29,exr/ReadingArea_rsl0-rcl100-esl100-rsm0-rcm69-esm29-rsr0-rcr2-esr29.exr,ReadingArea_rsl0-rcl100-esl100-rsm0-rcm69-esm29-rsr0-rcr2-esr29.npz,,,,,0,89,89,219,,right,red,2.59,924.2390739917756,924.6906008720398,,2,,2,6,lightness,readingArea,realistic,75,2023-03-21_10h50.07.036,tripletExp_regina_11082022,2022.2.4,120.24126780267412,
10,4,13,0,0.694444444444444,1.0,0,0.694444444444444,0.298245614035088,0,0.111111111111111,3.10526315789474,ReadingArea_rsl0-rcl69-esl100-rsm0-rcm69-esm29-rsr0-rcr11-esr310,exr/ReadingArea_rsl0-rcl69-esl100-rsm0-rcm69-esm29-rsr0-rcr11-esr310.exr,ReadingArea_rsl0-rcl69-esl100-rsm0-rcm69-esm29-rsr0-rcr11-esr310.npz,,,,,0,90,90,24,,right,red,2.98,928.1862609386444,928.632241010666,,2,,2,6,lightness,readingArea,realistic,75,2023-03-21_10h50.07.036,tripletExp_regina_11082022,2022.2.4,120.24126780267412,
13,2,4,0,0.111111111111111,3.10526315789474,0,0.25,0.298245614035088,0,0.694444444444444,0.298245614035088,ReadingArea_rsl0-rcl11-esl310-rsm0-rcm25-esm29-rsr0-rcr69-esr29,exr/ReadingArea_rsl0-rcl11-esl310-rsm0-rcm25-esm29-rsr0-rcr69-esr29.exr,ReadingArea_rsl0-rcl11-esl310-rsm0-rcm25-esm29-rsr0-rcr69-esr29.npz,,,,,0,91,91,307,,right,red,2.8,932.114189863205,932.5652258396148,,2,,2,6,lightness,readingArea,realistic,75,2023-03-21_10h50.07.036,tripletExp_regina_11082022,2022.2.4,120.24126780267412,
1,14,7,0,0.111111111111111,0.298245614035088,0,0.25,3.10526315789474,0,0.111111111111111,1.0,ReadingArea_rsl0-rcl11-esl29-rsm0-rcm25-esm310-rsr0-rcr11-esr100,exr/ReadingArea_rsl0-rcl11-esl29-rsm0-rcm25-esm310-rsr0-rcr11-esr100.exr,ReadingArea_rsl0-rcl11-esl29-rsm0-rcm25-esm310-rsr0-rcr11-esr100.npz,,,,,0,92,92,583,,right,red,3.04,936.010398864746,,,2,,2,6,lightness,readingArea,realistic,75,2023-03-21_10h50.07.036,tripletExp_regina_11082022,2022.2.4,120.24126780267412,
8,14,6,0,0.25,1.0,0,0.25,3.10526315789474,0,0.027777777777778,1.0,ReadingArea_rsl0-rcl25-esl100-rsm0-rcm25-esm310-rsr0-rcr2-esr100,exr/ReadingArea_rsl0-rcl25-esl100-rsm0-rcm25-esm310-rsr0-rcr2-esr100.exr,ReadingArea_rsl0-rcl25-esl100-rsm0-rcm25-esm310-rsr0-rcr2-esr100.npz,,,,,0,93,93,469,,left,green,3.2,939.9585828781128,940.3988180160522,,2,,2,6,lightness,readingArea,realistic,75,2023-03-21_10h50.07.036,tripletExp_regina_11082022,2022.2.4,120.24126780267412,
3,9,0,0,0.444444444444444,0.298245614035088,0,0.444444444444444,1.0,0,0.027777777777778,0.298245614035088,ReadingArea_rsl0-rcl44-esl29-rsm0-rcm44-esm100-rsr0-rcr2-esr29,exr/ReadingArea_rsl0-rcl44-esl29-rsm0-rcm44-esm100-rsr0-rcr2-esr29.exr,ReadingArea_rsl0-rcl44-esl29-rsm0-rcm44-esm100-rsr0-rcr2-esr29.npz,,,,,0,94,94,551,,left,green,1.34,942.0952348709106,,,2,,2,6,lightness,readingArea,realistic,75,2023-03-21_10h50.07.036,tripletExp_regina_11082022,2022.2.4,120.24126780267412,
6,10,11,0,0.027777777777778,1.0,0,0.694444444444444,1.0,0,1.0,1.0,ReadingArea_rsl0-rcl2-esl100-rsm0-rcm69-esm100-rsr0-rcr100-esr100,exr/ReadingArea_rsl0-rcl2-esl100-rsm0-rcm69-esm100-rsr0-rcr100-esr100.exr,ReadingArea_rsl0-rcl2-esl100-rsm0-rcm69-esm100-rsr0-rcr100-esr100.npz,,,,,0,95,95,116,,right,red,3.21,946.0117599964142,946.4897499084472,,2,,2,6,lightness,readingArea,realistic,75,2023-03-21_10h50.07.036,tripletExp_regina_11082022,2022.2.4,120.24126780267412,
2,12,13,0,0.25,0.298245614035088,0,0.027777777777778,3.10526315789474,0,0.111111111111111,3.10526315789474,ReadingArea_rsl0-rcl25-esl29-rsm0-rcm2-esm310-rsr0-rcr11-esr310,exr/ReadingArea_rsl0-rcl25-esl29-rsm0-rcm2-esm310-rsr0-rcr11-esr310.exr,ReadingArea_rsl0-rcl25-esl29-rsm0-rcm2-esm310-rsr0-rcr11-esr310.npz,,,,,0,96,96,232,,left,green,2.87,949.943202972412,950.3984570503236,,2,,2,6,lightness,readingArea,realistic,75,2023-03-21_10h50.07.036,tripletExp_regina_11082022,2022.2.4,120.24126780267412,
11,1,12,0,1.0,1.0,0,0.111111111111111,0.298245614035088,0,0.027777777777778,3.10526315789474,ReadingArea_rsl0-rcl100-esl100-rsm0-rcm11-esm29-rsr0-rcr2-esr310,exr/ReadingArea_rsl0-rcl100-esl100-rsm0-rcm11-esm29-rsr0-rcr2-esr310.exr,ReadingArea_rsl0-rcl100-esl100-rsm0-rcm11-esm29-rsr0-rcr2-esr310.npz,,,,,0,97,97,339,,right,red,3.07,953.8862969875336,954.3377969264984,,2,,2,6,lightness,readingArea,realistic,75,2023-03-21_10h50.07.036,tripletExp_regina_11082022,2022.2.4,120.24126780267412,
2,0,13,0,0.25,0.298245614035088,0,0.027777777777778,0.298245614035088,0,0.111111111111111,3.10526315789474,ReadingArea_rsl0-rcl25-esl29-rsm0-rcm2-esm29-rsr0-rcr11-esr310,exr/ReadingArea_rsl0-rcl25-esl29-rsm0-rcm2-esm29-rsr0-rcr11-esr310.exr,ReadingArea_rsl0-rcl25-esl29-rsm0-rcm2-esm29-rsr0-rcr11-esr310.npz,,,,,0,98,98,50,,left,green,1.22,956.0330228805542,956.5435538291932,,2,,2,6,lightness,readingArea,realistic,75,2023-03-21_10h50.07.036,tripletExp_regina_11082022,2022.2.4,120.24126780267412,
3,8,7,0,0.444444444444444,0.298245614035088,0,0.25,1.0,0,0.111111111111111,1.0,ReadingArea_rsl0-rcl44-esl29-rsm0-rcm25-esm100-rsr0-rcr11-esr100,exr/ReadingArea_rsl0-rcl44-esl29-rsm0-rcm25-esm100-rsr0-rcr11-esr100.exr,ReadingArea_rsl0-rcl44-esl29-rsm0-rcm25-esm100-rsr0-rcr11-esr100.npz,,,,,0,99,99,484,,left,green,4.47,961.7815599441528,,,2,,2,6,lightness,readingArea,realistic,75,2023-03-21_10h50.07.036,tripletExp_regina_11082022,2022.2.4,120.24126780267412,
5,2,0,0,1.0,0.298245614035088,0,0.25,0.298245614035088,0,0.027777777777778,0.298245614035088,ReadingArea_rsl0-rcl100-esl29-rsm0-rcm25-esm29-rsr0-rcr2-esr29,exr/ReadingArea_rsl0-rcl100-esl29-rsm0-rcm25-esm29-rsr0-rcr2-esr29.exr,ReadingArea_rsl0-rcl100-esl29-rsm0-rcm25-esm29-rsr0-rcr2-esr29.npz,,,,,0,100,100,476,,right,red,4.43,967.4464600086212,967.9867210388184,,2,,2,6,lightness,readingArea,realistic,75,2023-03-21_10h50.07.036,tripletExp_regina_11082022,2022.2.4,120.24126780267412,
2,11,7,0,0.25,0.298245614035088,0,1.0,1.0,0,0.111111111111111,1.0,ReadingArea_rsl0-rcl25-esl29-rsm0-rcm100-esm100-rsr0-rcr11-esr100,exr/ReadingArea_rsl0-rcl25-esl29-rsm0-rcm100-esm100-rsr0-rcr11-esr100.exr,ReadingArea_rsl0-rcl25-esl29-rsm0-rcm100-esm100-rsr0-rcr11-esr100.npz,,,,,0,101,101,576,,right,red,3.11,971.4452998638152,971.896780014038,,2,,2,6,lightness,readingArea,realistic,75,2023-03-21_10h50.07.036,tripletExp_regina_11082022,2022.2.4,120.24126780267412,
10,3,0,0,0.694444444444444,1.0,0,0.444444444444444,0.298245614035088,0,0.027777777777778,0.298245614035088,ReadingArea_rsl0-rcl69-esl100-rsm0-rcm44-esm29-rsr0-rcr2-esr29,exr/ReadingArea_rsl0-rcl69-esl100-rsm0-rcm44-esm29-rsr0-rcr2-esr29.exr,ReadingArea_rsl0-rcl69-esl100-rsm0-rcm44-esm29-rsr0-rcr2-esr29.npz,,,,,0,102,102,203,,right,red,2.91,975.385262966156,975.8491480350494,,2,,2,6,lightness,readingArea,realistic,75,2023-03-21_10h50.07.036,tripletExp_regina_11082022,2022.2.4,120.24126780267412,
11,9,4,0,1.0,1.0,0,0.444444444444444,1.0,0,0.694444444444444,0.298245614035088,ReadingArea_rsl0-rcl100-esl100-rsm0-rcm44-esm100-rsr0-rcr69-esr29,exr/ReadingArea_rsl0-rcl100-esl100-rsm0-rcm44-esm100-rsr0-rcr69-esr29.exr,ReadingArea_rsl0-rcl100-esl100-rsm0-rcm44-esm100-rsr0-rcr69-esr29.npz,,,,,0,103,103,26,,right,red,2.81,979.322940826416,979.880961894989,,2,,2,6,lightness,readingArea,realistic,75,2023-03-21_10h50.07.036,tripletExp_regina_11082022,2022.2.4,120.24126780267412,
2,9,8,0,0.25,0.298245614035088,0,0.444444444444444,1.0,0,0.25,1.0,ReadingArea_rsl0-rcl25-esl29-rsm0-rcm44-esm100-rsr0-rcr25-esr100,exr/ReadingArea_rsl0-rcl25-esl29-rsm0-rcm44-esm100-rsr0-rcr25-esr100.exr,ReadingArea_rsl0-rcl25-esl29-rsm0-rcm44-esm100-rsr0-rcr25-esr100.npz,,,,,0,104,104,407,,right,red,1.33,981.5835700035096,982.0104868412018,,2,,2,6,lightness,readingArea,realistic,75,2023-03-21_10h50.07.036,tripletExp_regina_11082022,2022.2.4,120.24126780267412,
9,14,7,0,0.444444444444444,1.0,0,0.25,3.10526315789474,0,0.111111111111111,1.0,ReadingArea_rsl0-rcl44-esl100-rsm0-rcm25-esm310-rsr0-rcr11-esr100,exr/ReadingArea_rsl0-rcl44-esl100-rsm0-rcm25-esm310-rsr0-rcr11-esr100.exr,ReadingArea_rsl0-rcl44-esl100-rsm0-rcm25-esm310-rsr0-rcr11-esr100.npz,,,,,0,105,105,44,,left,green,3.16,985.4842629432678,985.9380948543547,,2,,2,6,lightness,readingArea,realistic,75,2023-03-21_10h50.07.036,tripletExp_regina_11082022,2022.2.4,120.24126780267412,
11,8,10,0,1.0,1.0,0,0.25,1.0,0,0.694444444444444,1.0,ReadingArea_rsl0-rcl100-esl100-rsm0-rcm25-esm100-rsr0-rcr69-esr100,exr/ReadingArea_rsl0-rcl100-esl100-rsm0-rcm25-esm100-rsr0-rcr69-esr100.exr,ReadingArea_rsl0-rcl100-esl100-rsm0-rcm25-esm100-rsr0-rcr69-esr100.npz,,,,,0,106,106,67,,right,red,3.09,989.4010848999023,989.8442740440368,,2,,2,6,lightness,readingArea,realistic,75,2023-03-21_10h50.07.036,tripletExp_regina_11082022,2022.2.4,120.24126780267412,
9,6,11,0,0.444444444444444,1.0,0,0.027777777777778,1.0,0,1.0,1.0,ReadingArea_rsl0-rcl44-esl100-rsm0-rcm2-esm100-rsr0-rcr100-esr100,exr/ReadingArea_rsl0-rcl44-esl100-rsm0-rcm2-esm100-rsr0-rcr100-esr100.exr,ReadingArea_rsl0-rcl44-esl100-rsm0-rcm2-esm100-rsr0-rcr100-esr100.npz,,,,,0,107,107,572,,left,green,2.69,993.331696987152,993.7677519321442,,2,,2,6,lightness,readingArea,realistic,75,2023-03-21_10h50.07.036,tripletExp_regina_11082022,2022.2.4,120.24126780267412,
11,7,13,0,1.0,1.0,0,0.111111111111111,1.0,0,0.111111111111111,3.10526315789474,ReadingArea_rsl0-rcl100-esl100-rsm0-rcm11-esm100-rsr0-rcr11-esr310,exr/ReadingArea_rsl0-rcl100-esl100-rsm0-rcm11-esm100-rsr0-rcr11-esr310.exr,ReadingArea_rsl0-rcl100-esl100-rsm0-rcm11-esm100-rsr0-rcr11-esr310.npz,,,,,0,108,108,431,,right,red,2.64,997.2331600189208,997.6836760044098,,2,,2,6,lightness,readingArea,realistic,75,2023-03-21_10h50.07.036,tripletExp_regina_11082022,2022.2.4,120.24126780267412,
3,6,13,0,0.444444444444444,0.298245614035088,0,0.027777777777778,1.0,0,0.111111111111111,3.10526315789474,ReadingArea_rsl0-rcl44-esl29-rsm0-rcm2-esm100-rsr0-rcr11-esr310,exr/ReadingArea_rsl0-rcl44-esl29-rsm0-rcm2-esm100-rsr0-rcr11-esr310.exr,ReadingArea_rsl0-rcl44-esl29-rsm0-rcm2-esm100-rsr0-rcr11-esr310.npz,,,,,0,109,109,449,,left,green,2.92,1001.1328630447388,1001.5851929187776,,2,,2,6,lightness,readingArea,realistic,75,2023-03-21_10h50.07.036,tripletExp_regina_11082022,2022.2.4,120.24126780267412,
11,5,2,0,1.0,1.0,0,1.0,0.298245614035088,0,0.25,0.298245614035088,ReadingArea_rsl0-rcl100-esl100-rsm0-rcm100-esm29-rsr0-rcr25-esr29,exr/ReadingArea_rsl0-rcl100-esl100-rsm0-rcm100-esm29-rsr0-rcr25-esr29.exr,ReadingArea_rsl0-rcl100-esl100-rsm0-rcm100-esm29-rsr0-rcr25-esr29.npz,,,,,0,110,110,596,,right,red,1.89,1005.0453989505768,1005.6034009456636,,2,,2,6,lightness,readingArea,realistic,75,2023-03-21_10h50.07.036,tripletExp_regina_11082022,2022.2.4,120.24126780267412,
0,9,10,0,0.027777777777778,0.298245614035088,0,0.444444444444444,1.0,0,0.694444444444444,1.0,ReadingArea_rsl0-rcl2-esl29-rsm0-rcm44-esm100-rsr0-rcr69-esr100,exr/ReadingArea_rsl0-rcl2-esl29-rsm0-rcm44-esm100-rsr0-rcr69-esr100.exr,ReadingArea_rsl0-rcl2-esl29-rsm0-rcm44-esm100-rsr0-rcr69-esr100.npz,,,,,0,111,111,434,,right,red,3.12,1009.0688798427582,1009.6262118816376,,2,,2,6,lightness,readingArea,realistic,75,2023-03-21_10h50.07.036,tripletExp_regina_11082022,2022.2.4,120.24126780267412,
5,4,12,0,1.0,0.298245614035088,0,0.694444444444444,0.298245614035088,0,0.027777777777778,3.10526315789474,ReadingArea_rsl0-rcl100-esl29-rsm0-rcm69-esm29-rsr0-rcr2-esr310,exr/ReadingArea_rsl0-rcl100-esl29-rsm0-rcm69-esm29-rsr0-rcr2-esr310.exr,ReadingArea_rsl0-rcl100-esl29-rsm0-rcm69-esm29-rsr0-rcr2-esr310.npz,,,,,0,112,112,82,,left,green,4.53,1014.8555278778076,1015.3009948730468,,2,,2,6,lightness,readingArea,realistic,75,2023-03-21_10h50.07.036,tripletExp_regina_11082022,2022.2.4,120.24126780267412,
13,6,1,0,0.111111111111111,3.10526315789474,0,0.027777777777778,1.0,0,0.111111111111111,0.298245614035088,ReadingArea_rsl0-rcl11-esl310-rsm0-rcm2-esm100-rsr0-rcr11-esr29,exr/ReadingArea_rsl0-rcl11-esl310-rsm0-rcm2-esm100-rsr0-rcr11-esr29.exr,ReadingArea_rsl0-rcl11-esl310-rsm0-rcm2-esm100-rsr0-rcr11-esr29.npz,,,,,0,113,113,486,,right,red,1.67,1017.00776386261,1017.4439740180968,,2,,2,6,lightness,readingArea,realistic,75,2023-03-21_10h50.07.036,tripletExp_regina_11082022,2022.2.4,120.24126780267412,
1,13,2,0,0.111111111111111,0.298245614035088,0,0.111111111111111,3.10526315789474,0,0.25,0.298245614035088,ReadingArea_rsl0-rcl11-esl29-rsm0-rcm11-esm310-rsr0-rcr25-esr29,exr/ReadingArea_rsl0-rcl11-esl29-rsm0-rcm11-esm310-rsr0-rcr25-esr29.exr,ReadingArea_rsl0-rcl11-esl29-rsm0-rcm11-esm310-rsr0-rcr25-esr29.npz,,,,,0,114,114,118,,left,green,3.14,1020.9026029109956,1021.5303809642792,,2,,2,6,lightness,readingArea,realistic,75,2023-03-21_10h50.07.036,tripletExp_regina_11082022,2022.2.4,120.24126780267412,
6,2,5,0,0.027777777777778,1.0,0,0.25,0.298245614035088,0,1.0,0.298245614035088,ReadingArea_rsl0-rcl2-esl100-rsm0-rcm25-esm29-rsr0-rcr100-esr29,exr/ReadingArea_rsl0-rcl2-esl100-rsm0-rcm25-esm29-rsr0-rcr100-esr29.exr,ReadingArea_rsl0-rcl2-esl100-rsm0-rcm25-esm29-rsr0-rcr100-esr29.npz,,,,,0,115,115,504,,,green,3.14,1026.7574210166931,1027.1873588562012,,2,1026.2021369218826,2,6,lightness,readingArea,realistic,75,2023-03-21_10h50.07.036,tripletExp_regina_11082022,2022.2.4,120.24126780267412,
7,9,8,0,0.111111111111111,1.0,0,0.444444444444444,1.0,0,0.25,1.0,ReadingArea_rsl0-rcl11-esl100-rsm0-rcm44-esm100-rsr0-rcr25-esr100,exr/ReadingArea_rsl0-rcl11-esl100-rsm0-rcm44-esm100-rsr0-rcr25-esr100.exr,ReadingArea_rsl0-rcl11-esl100-rsm0-rcm44-esm100-rsr0-rcr25-esr100.npz,,,,,0,116,116,515,,right,red,1.4,1028.9010119438171,1029.3523609638214,,2,,2,6,lightness,readingArea,realistic,75,2023-03-21_10h50.07.036,tripletExp_regina_11082022,2022.2.4,120.24126780267412,
5,13,7,0,1.0,0.298245614035088,0,0.111111111111111,3.10526315789474,0,0.111111111111111,1.0,ReadingArea_rsl0-rcl100-esl29-rsm0-rcm11-esm310-rsr0-rcr11-esr100,exr/ReadingArea_rsl0-rcl100-esl29-rsm0-rcm11-esm310-rsr0-rcr11-esr100.exr,ReadingArea_rsl0-rcl100-esl29-rsm0-rcm11-esm310-rsr0-rcr11-esr100.npz,,,,,0,117,117,189,,right,red,3.11,1032.833289861679,1033.274818897247,,2,,2,6,lightness,readingArea,realistic,75,2023-03-21_10h50.07.036,tripletExp_regina_11082022,2022.2.4,120.24126780267412,
6,4,2,0,0.027777777777778,1.0,0,0.694444444444444,0.298245614035088,0,0.25,0.298245614035088,ReadingArea_rsl0-rcl2-esl100-rsm0-rcm69-esm29-rsr0-rcr25-esr29,exr/ReadingArea_rsl0-rcl2-esl100-rsm0-rcm69-esm29-rsr0-rcr25-esr29.exr,ReadingArea_rsl0-rcl2-esl100-rsm0-rcm69-esm29-rsr0-rcr25-esr29.npz,,,,,0,118,118,134,,right,red,1.3,1034.9960489273071,1035.4476900100708,,2,,2,6,lightness,readingArea,realistic,75,2023-03-21_10h50.07.036,tripletExp_regina_11082022,2022.2.4,120.24126780267412,
10,5,4,0,0.694444444444444,1.0,0,1.0,0.298245614035088,0,0.694444444444444,0.298245614035088,ReadingArea_rsl0-rcl69-esl100-rsm0-rcm100-esm29-rsr0-rcr69-esr29,exr/ReadingArea_rsl0-rcl69-esl100-rsm0-rcm100-esm29-rsr0-rcr69-esr29.exr,ReadingArea_rsl0-rcl69-esl100-rsm0-rcm100-esm29-rsr0-rcr69-esr29.npz,,,,,0,119,119,455,,right,red,1.23,1037.1555390357971,1037.5979130268097,,2,,2,6,lightness,readingArea,realistic,75,2023-03-21_10h50.07.036,tripletExp_regina_11082022,2022.2.4,120.24126780267412,
10,13,1,0,0.694444444444444,1.0,0,0.111111111111111,3.10526315789474,0,0.111111111111111,0.298245614035088,ReadingArea_rsl0-rcl69-esl100-rsm0-rcm11-esm310-rsr0-rcr11-esr29,exr/ReadingArea_rsl0-rcl69-esl100-rsm0-rcm11-esm310-rsr0-rcr11-esr29.exr,ReadingArea_rsl0-rcl69-esl100-rsm0-rcm11-esm310-rsr0-rcr11-esr29.npz,,,,,0,120,120,149,,right,red,2.83,1041.0654828548431,1041.505676984787,,2,,2,6,lightness,readingArea,realistic,75,2023-03-21_10h50.07.036,tripletExp_regina_11082022,2022.2.4,120.24126780267412,
6,0,10,0,0.027777777777778,1.0,0,0.027777777777778,0.298245614035088,0,0.694444444444444,1.0,ReadingArea_rsl0-rcl2-esl100-rsm0-rcm2-esm29-rsr0-rcr69-esr100,exr/ReadingArea_rsl0-rcl2-esl100-rsm0-rcm2-esm29-rsr0-rcr69-esr100.exr,ReadingArea_rsl0-rcl2-esl100-rsm0-rcm2-esm29-rsr0-rcr69-esr100.npz,,,,,0,121,121,532,,left,green,1.2,1043.1991930007937,1043.720566987991,,2,,2,6,lightness,readingArea,realistic,75,2023-03-21_10h50.07.036,tripletExp_regina_11082022,2022.2.4,120.24126780267412,
10,14,13,0,0.694444444444444,1.0,0,0.25,3.10526315789474,0,0.111111111111111,3.10526315789474,ReadingArea_rsl0-rcl69-esl100-rsm0-rcm25-esm310-rsr0-rcr11-esr310,exr/ReadingArea_rsl0-rcl69-esl100-rsm0-rcm25-esm310-rsr0-rcr11-esr310.exr,ReadingArea_rsl0-rcl69-esl100-rsm0-rcm25-esm310-rsr0-rcr11-esr310.npz,,,,,0,122,122,168,,right,red,3.08,1047.1840200424194,1047.624806880951,,2,,2,6,lightness,readingArea,realistic,75,2023-03-21_10h50.07.036,tripletExp_regina_11082022,2022.2.4,120.24126780267412,
12,3,13,0,0.027777777777778,3.10526315789474,0,0.444444444444444,0.298245614035088,0,0.111111111111111,3.10526315789474,ReadingArea_rsl0-rcl2-esl310-rsm0-rcm44-esm29-rsr0-rcr11-esr310,exr/ReadingArea_rsl0-rcl2-esl310-rsm0-rcm44-esm29-rsr0-rcr11-esr310.exr,ReadingArea_rsl0-rcl2-esl310-rsm0-rcm44-esm29-rsr0-rcr11-esr310.npz,,,,,0,123,123,383,,right,red,4.36,1052.8453290462494,,,2,,2,6,lightness,readingArea,realistic,75,2023-03-21_10h50.07.036,tripletExp_regina_11082022,2022.2.4,120.24126780267412,
9,6,1,0,0.444444444444444,1.0,0,0.027777777777778,1.0,0,0.111111111111111,0.298245614035088,ReadingArea_rsl0-rcl44-esl100-rsm0-rcm2-esm100-rsr0-rcr11-esr29,exr/ReadingArea_rsl0-rcl44-esl100-rsm0-rcm2-esm100-rsr0-rcr11-esr29.exr,ReadingArea_rsl0-rcl44-esl100-rsm0-rcm2-esm100-rsr0-rcr11-esr29.npz,,,,,0,124,124,526,,right,red,3.08,1056.758643865585,1057.21298289299,,2,,2,6,lightness,readingArea,realistic,75,2023-03-21_10h50.07.036,tripletExp_regina_11082022,2022.2.4,120.24126780267412,
7,10,13,0,0.111111111111111,1.0,0,0.694444444444444,1.0,0,0.111111111111111,3.10526315789474,ReadingArea_rsl0-rcl11-esl100-rsm0-rcm69-esm100-rsr0-rcr11-esr310,exr/ReadingArea_rsl0-rcl11-esl100-rsm0-rcm69-esm100-rsr0-rcr11-esr310.exr,ReadingArea_rsl0-rcl11-esl100-rsm0-rcm69-esm100-rsr0-rcr11-esr310.npz,,,,,0,125,125,446,,right,red,3.15,1060.6755919456482,1061.1210939884186,,2,,2,6,lightness,readingArea,realistic,75,2023-03-21_10h50.07.036,tripletExp_regina_11082022,2022.2.4,120.24126780267412,
6,2,12,0,0.027777777777778,1.0,0,0.25,0.298245614035088,0,0.027777777777778,3.10526315789474,ReadingArea_rsl0-rcl2-esl100-rsm0-rcm25-esm29-rsr0-rcr2-esr310,exr/ReadingArea_rsl0-rcl2-esl100-rsm0-rcm25-esm29-rsr0-rcr2-esr310.exr,ReadingArea_rsl0-rcl2-esl100-rsm0-rcm25-esm29-rsr0-rcr2-esr310.npz,,,,,0,126,126,480,,right,red,2.99,1064.5713248252869,1065.0271549224854,,2,,2,6,lightness,readingArea,realistic,75,2023-03-21_10h50.07.036,tripletExp_regina_11082022,2022.2.4,120.24126780267412,
14,8,9,0,0.25,3.10526315789474,0,0.25,1.0,0,0.444444444444444,1.0,ReadingArea_rsl0-rcl25-esl310-rsm0-rcm25-esm100-rsr0-rcr44-esr100,exr/ReadingArea_rsl0-rcl25-esl310-rsm0-rcm25-esm100-rsr0-rcr44-esr100.exr,ReadingArea_rsl0-rcl25-esl310-rsm0-rcm25-esm100-rsr0-rcr44-esr100.npz,,,,,0,127,127,518,,right,red,1.59,1066.7215428352356,1067.1725640296936,,2,,2,6,lightness,readingArea,realistic,75,2023-03-21_10h50.07.036,tripletExp_regina_11082022,2022.2.4,120.24126780267412,
9,7,10,0,0.444444444444444,1.0,0,0.111111111111111,1.0,0,0.694444444444444,1.0,ReadingArea_rsl0-rcl44-esl100-rsm0-rcm11-esm100-rsr0-rcr69-esr100,exr/ReadingArea_rsl0-rcl44-esl100-rsm0-rcm11-esm100-rsr0-rcr69-esr100.exr,ReadingArea_rsl0-rcl44-esl100-rsm0-rcm11-esm100-rsr0-rcr69-esr100.npz,,,,,0,128,128,508,,left,green,2.65,1070.6382179260254,1071.17041182518,,2,,2,6,lightness,readingArea,realistic,75,2023-03-21_10h50.07.036,tripletExp_regina_11082022,2022.2.4,120.24126780267412,
1,0,4,0,0.111111111111111,0.298245614035088,0,0.027777777777778,0.298245614035088,0,0.694444444444444,0.298245614035088,ReadingArea_rsl0-rcl11-esl29-rsm0-rcm2-esm29-rsr0-rcr69-esr29,exr/ReadingArea_rsl0-rcl11-esl29-rsm0-rcm2-esm29-rsr0-rcr69-esr29.exr,ReadingArea_rsl0-rcl11-esl29-rsm0-rcm2-esm29-rsr0-rcr69-esr29.npz,,,,,0,129,129,494,,left,green,2.62,1074.624794960022,1075.0633149147034,,2,,2,6,lightness,readingArea,realistic,75,2023-03-21_10h50.07.036,tripletExp_regina_11082022,2022.2.4,120.24126780267412,
0,14,11,0,0.027777777777778,0.298245614035088,0,0.25,3.10526315789474,0,1.0,1.0,ReadingArea_rsl0-rcl2-esl29-rsm0-rcm25-esm310-rsr0-rcr100-esr100,exr/ReadingArea_rsl0-rcl2-esl29-rsm0-rcm25-esm310-rsr0-rcr100-esr100.exr,ReadingArea_rsl0-rcl2-esl29-rsm0-rcm25-esm310-rsr0-rcr100-esr100.npz,,,,,0,130,130,557,,right,red,4.66,1080.3169589042664,,,2,,2,6,lightness,readingArea,realistic,75,2023-03-21_10h50.07.036,tripletExp_regina_11082022,2022.2.4,120.24126780267412,
1,9,11,0,0.111111111111111,0.298245614035088,0,0.444444444444444,1.0,0,1.0,1.0,ReadingArea_rsl0-rcl11-esl29-rsm0-rcm44-esm100-rsr0-rcr100-esr100,exr/ReadingArea_rsl0-rcl11-esl29-rsm0-rcm44-esm100-rsr0-rcr100-esr100.exr,ReadingArea_rsl0-rcl11-esl29-rsm0-rcm44-esm100-rsr0-rcr100-esr100.npz,,,,,0,131,131,215,,left,green,4.59,1086.0072729587555,1086.5984959602356,,2,,2,6,lightness,readingArea,realistic,75,2023-03-21_10h50.07.036,tripletExp_regina_11082022,2022.2.4,120.24126780267412,
13,8,0,0,0.111111111111111,3.10526315789474,0,0.25,1.0,0,0.027777777777778,0.298245614035088,ReadingArea_rsl0-rcl11-esl310-rsm0-rcm25-esm100-rsr0-rcr2-esr29,exr/ReadingArea_rsl0-rcl11-esl310-rsm0-rcm25-esm100-rsr0-rcr2-esr29.exr,ReadingArea_rsl0-rcl11-esl310-rsm0-rcm25-esm100-rsr0-rcr2-esr29.npz,,,,,0,132,132,429,,left,green,3.01,1090.069121837616,1090.51495885849,,2,,2,6,lightness,readingArea,realistic,75,2023-03-21_10h50.07.036,tripletExp_regina_11082022,2022.2.4,120.24126780267412,
5,4,10,0,1.0,0.298245614035088,0,0.694444444444444,0.298245614035088,0,0.694444444444444,1.0,ReadingArea_rsl0-rcl100-esl29-rsm0-rcm69-esm29-rsr0-rcr69-esr100,exr/ReadingArea_rsl0-rcl100-esl29-rsm0-rcm69-esm29-rsr0-rcr69-esr100.exr,ReadingArea_rsl0-rcl100-esl29-rsm0-rcm69-esm29-rsr0-rcr69-esr100.npz,,,,,0,133,133,536,,left,green,1.71,1092.21022605896,,,2,,2,6,lightness,readingArea,realistic,75,2023-03-21_10h50.07.036,tripletExp_regina_11082022,2022.2.4,120.24126780267412,
12,10,9,0,0.027777777777778,3.10526315789474,0,0.694444444444444,1.0,0,0.444444444444444,1.0,ReadingArea_rsl0-rcl2-esl310-rsm0-rcm69-esm100-rsr0-rcr44-esr100,exr/ReadingArea_rsl0-rcl2-esl310-rsm0-rcm69-esm100-rsr0-rcr44-esr100.exr,ReadingArea_rsl0-rcl2-esl310-rsm0-rcm69-esm100-rsr0-rcr44-esr100.npz,,,,,0,134,134,126,,right,red,4.5,1097.9056448936462,1098.369884967804,,2,,2,6,lightness,readingArea,realistic,75,2023-03-21_10h50.07.036,tripletExp_regina_11082022,2022.2.4,120.24126780267412,
2,9,11,0,0.25,0.298245614035088,0,0.444444444444444,1.0,0,1.0,1.0,ReadingArea_rsl0-rcl25-esl29-rsm0-rcm44-esm100-rsr0-rcr100-esr100,exr/ReadingArea_rsl0-rcl25-esl29-rsm0-rcm44-esm100-rsr0-rcr100-esr100.exr,ReadingArea_rsl0-rcl25-esl29-rsm0-rcm44-esm100-rsr0-rcr100-esr100.npz,,,,,0,135,135,164,,left,green,2.94,1101.835343837738,1102.3522579669952,,2,,2,6,lightness,readingArea,realistic,75,2023-03-21_10h50.07.036,tripletExp_regina_11082022,2022.2.4,120.24126780267412,
5,0,11,0,1.0,0.298245614035088,0,0.027777777777778,0.298245614035088,0,1.0,1.0,ReadingArea_rsl0-rcl100-esl29-rsm0-rcm2-esm29-rsr0-rcr100-esr100,exr/ReadingArea_rsl0-rcl100-esl29-rsm0-rcm2-esm29-rsr0-rcr100-esr100.exr,ReadingArea_rsl0-rcl100-esl29-rsm0-rcm2-esm29-rsr0-rcr100-esr100.npz,,,,,0,136,136,547,,left,green,2.46,1105.8182950019836,1106.2732899188995,,2,,2,6,lightness,readingArea,realistic,75,2023-03-21_10h50.07.036,tripletExp_regina_11082022,2022.2.4,120.24126780267412,
0,13,1,0,0.027777777777778,0.298245614035088,0,0.111111111111111,3.10526315789474,0,0.111111111111111,0.298245614035088,ReadingArea_rsl0-rcl2-esl29-rsm0-rcm11-esm310-rsr0-rcr11-esr29,exr/ReadingArea_rsl0-rcl2-esl29-rsm0-rcm11-esm310-rsr0-rcr11-esr29.exr,ReadingArea_rsl0-rcl2-esl29-rsm0-rcm11-esm310-rsr0-rcr11-esr29.npz,,,,,0,137,137,458,,right,red,2.67,1109.739521026611,1110.1845099925995,,2,,2,6,lightness,readingArea,realistic,75,2023-03-21_10h50.07.036,tripletExp_regina_11082022,2022.2.4,120.24126780267412,
4,10,6,0,0.694444444444444,0.298245614035088,0,0.694444444444444,1.0,0,0.027777777777778,1.0,ReadingArea_rsl0-rcl69-esl29-rsm0-rcm69-esm100-rsr0-rcr2-esr100,exr/ReadingArea_rsl0-rcl69-esl29-rsm0-rcm69-esm100-rsr0-rcr2-esr100.exr,ReadingArea_rsl0-rcl69-esl29-rsm0-rcm69-esm100-rsr0-rcr2-esr100.npz,,,,,0,138,138,468,,left,green,3.31,1113.656856060028,1114.1089148521423,,2,,2,6,lightness,readingArea,realistic,75,2023-03-21_10h50.07.036,tripletExp_regina_11082022,2022.2.4,120.24126780267412,
5,14,4,0,1.0,0.298245614035088,0,0.25,3.10526315789474,0,0.694444444444444,0.298245614035088,ReadingArea_rsl0-rcl100-esl29-rsm0-rcm25-esm310-rsr0-rcr69-esr29,exr/ReadingArea_rsl0-rcl100-esl29-rsm0-rcm25-esm310-rsr0-rcr69-esr29.exr,ReadingArea_rsl0-rcl100-esl29-rsm0-rcm25-esm310-rsr0-rcr69-esr29.npz,,,,,0,139,139,69,,right,red,3.09,1117.5878598690033,1118.034718990326,,2,,2,6,lightness,readingArea,realistic,75,2023-03-21_10h50.07.036,tripletExp_regina_11082022,2022.2.4,120.24126780267412,
7,2,0,0,0.111111111111111,1.0,0,0.25,0.298245614035088,0,0.027777777777778,0.298245614035088,ReadingArea_rsl0-rcl11-esl100-rsm0-rcm25-esm29-rsr0-rcr2-esr29,exr/ReadingArea_rsl0-rcl11-esl100-rsm0-rcm25-esm29-rsr0-rcr2-esr29.exr,ReadingArea_rsl0-rcl11-esl100-rsm0-rcm25-esm29-rsr0-rcr2-esr29.npz,,,,,0,140,140,520,,left,green,2.44,1121.506504058838,,,2,,2,6,lightness,readingArea,realistic,75,2023-03-21_10h50.07.036,tripletExp_regina_11082022,2022.2.4,120.24126780267412,
2,7,11,0,0.25,0.298245614035088,0,0.111111111111111,1.0,0,1.0,1.0,ReadingArea_rsl0-rcl25-esl29-rsm0-rcm11-esm100-rsr0-rcr100-esr100,exr/ReadingArea_rsl0-rcl25-esl29-rsm0-rcm11-esm100-rsr0-rcr100-esr100.exr,ReadingArea_rsl0-rcl25-esl29-rsm0-rcm11-esm100-rsr0-rcr100-esr100.npz,,,,,0,141,141,194,,left,green,1.73,1123.6546070575714,1124.101663827896,,2,,2,6,lightness,readingArea,realistic,75,2023-03-21_10h50.07.036,tripletExp_regina_11082022,2022.2.4,120.24126780267412,
3,12,14,0,0.444444444444444,0.298245614035088,0,0.027777777777778,3.10526315789474,0,0.25,3.10526315789474,ReadingArea_rsl0-rcl44-esl29-rsm0-rcm2-esm310-rsr0-rcr25-esr310,exr/ReadingArea_rsl0-rcl44-esl29-rsm0-rcm2-esm310-rsr0-rcr25-esr310.exr,ReadingArea_rsl0-rcl44-esl29-rsm0-rcm2-esm310-rsr0-rcr25-esr310.npz,,,,,0,142,142,16,,left,green,4.79,1129.34960603714,,,2,,2,6,lightness,readingArea,realistic,75,2023-03-21_10h50.07.036,tripletExp_regina_11082022,2022.2.4,120.24126780267412,
4,7,5,0,0.694444444444444,0.298245614035088,0,0.111111111111111,1.0,0,1.0,0.298245614035088,ReadingArea_rsl0-rcl69-esl29-rsm0-rcm11-esm100-rsr0-rcr100-esr29,exr/ReadingArea_rsl0-rcl69-esl29-rsm0-rcm11-esm100-rsr0-rcr100-esr29.exr,ReadingArea_rsl0-rcl69-esl29-rsm0-rcm11-esm100-rsr0-rcr100-esr29.npz,,,,,0,143,143,195,,left,green,2.96,1133.3457188606262,1133.7997288703918,,2,,2,6,lightness,readingArea,realistic,75,2023-03-21_10h50.07.036,tripletExp_regina_11082022,2022.2.4,120.24126780267412,
9,11,10,0,0.444444444444444,1.0,0,1.0,1.0,0,0.694444444444444,1.0,ReadingArea_rsl0-rcl44-esl100-rsm0-rcm100-esm100-rsr0-rcr69-esr100,exr/ReadingArea_rsl0-rcl44-esl100-rsm0-rcm100-esm100-rsr0-rcr69-esr100.exr,ReadingArea_rsl0-rcl44-esl100-rsm0-rcm100-esm100-rsr0-rcr69-esr100.npz,,,,,0,144,144,591,,left,green,3.31,1137.2637748718262,1137.7262270450592,,2,,2,6,lightness,readingArea,realistic,75,2023-03-21_10h50.07.036,tripletExp_regina_11082022,2022.2.4,120.24126780267412,
1,12,10,0,0.111111111111111,0.298245614035088,0,0.027777777777778,3.10526315789474,0,0.694444444444444,1.0,ReadingArea_rsl0-rcl11-esl29-rsm0-rcm2-esm310-rsr0-rcr69-esr100,exr/ReadingArea_rsl0-rcl11-esl29-rsm0-rcm2-esm310-rsr0-rcr69-esr100.exr,ReadingArea_rsl0-rcl11-esl29-rsm0-rcm2-esm310-rsr0-rcr69-esr100.npz,,,,,0,145,145,567,,left,green,3.39,1141.189962863922,1141.6433289051056,,2,,2,6,lightness,readingArea,realistic,75,2023-03-21_10h50.07.036,tripletExp_regina_11082022,2022.2.4,120.24126780267412,
4,2,13,0,0.694444444444444,0.298245614035088,0,0.25,0.298245614035088,0,0.111111111111111,3.10526315789474,ReadingArea_rsl0-rcl69-esl29-rsm0-rcm25-esm29-rsr0-rcr11-esr310,exr/ReadingArea_rsl0-rcl69-esl29-rsm0-rcm25-esm29-rsr0-rcr11-esr310.exr,ReadingArea_rsl0-rcl69-esl29-rsm0-rcm25-esm29-rsr0-rcr11-esr310.npz,,,,,0,146,146,304,,right,red,4.18,1146.9140219688416,1147.3681519031525,,2,,2,6,lightness,readingArea,realistic,75,2023-03-21_10h50.07.036,tripletExp_regina_11082022,2022.2.4,120.24126780267412,
7,9,5,0,0.111111111111111,1.0,0,0.444444444444444,1.0,0,1.0,0.298245614035088,ReadingArea_rsl0-rcl11-esl100-rsm0-rcm44-esm100-rsr0-rcr100-esr29,exr/ReadingArea_rsl0-rcl11-esl100-rsm0-rcm44-esm100-rsr0-rcr100-esr29.exr,ReadingArea_rsl0-rcl11-esl100-rsm0-rcm44-esm100-rsr0-rcr100-esr29.npz,,,,,0,147,147,291,,left,green,3.07,1150.8401038646698,1151.292095899582,,2,,2,6,lightness,readingArea,realistic,75,2023-03-21_10h50.07.036,tripletExp_regina_11082022,2022.2.4,120.24126780267412,
7,2,6,0,0.111111111111111,1.0,0,0.25,0.298245614035088,0,0.027777777777778,1.0,ReadingArea_rsl0-rcl11-esl100-rsm0-rcm25-esm29-rsr0-rcr2-esr100,exr/ReadingArea_rsl0-rcl11-esl100-rsm0-rcm25-esm29-rsr0-rcr2-esr100.exr,ReadingArea_rsl0-rcl11-esl100-rsm0-rcm25-esm29-rsr0-rcr2-esr100.npz,,,,,0,148,148,506,,left,green,3.32,1154.7510540485382,1155.2099299430847,,2,,2,6,lightness,readingArea,realistic,75,2023-03-21_10h50.07.036,tripletExp_regina_11082022,2022.2.4,120.24126780267412,
11,8,7,0,1.0,1.0,0,0.25,1.0,0,0.111111111111111,1.0,ReadingArea_rsl0-rcl100-esl100-rsm0-rcm25-esm100-rsr0-rcr11-esr100,exr/ReadingArea_rsl0-rcl100-esl100-rsm0-rcm25-esm100-rsr0-rcr11-esr100.exr,ReadingArea_rsl0-rcl100-esl100-rsm0-rcm25-esm100-rsr0-rcr11-esr100.npz,,,,,0,149,149,105,,right,red,1.41,1156.9092898368835,1157.1107008457184,,2,,2,6,lightness,readingArea,realistic,75,2023-03-21_10h50.07.036,tripletExp_regina_11082022,2022.2.4,120.24126780267412,
9,11,2,0,0.444444444444444,1.0,0,1.0,1.0,0,0.25,0.298245614035088,ReadingArea_rsl0-rcl44-esl100-rsm0-rcm100-esm100-rsr0-rcr25-esr29,exr/ReadingArea_rsl0-rcl44-esl100-rsm0-rcm100-esm100-rsr0-rcr25-esr29.exr,ReadingArea_rsl0-rcl44-esl100-rsm0-rcm100-esm100-rsr0-rcr25-esr29.npz,,,,,0,150,150,329,,left,green,4.48,1228.2300629615784,1228.772707939148,,3,,2,6,lightness,readingArea,realistic,75,2023-03-21_10h50.07.036,tripletExp_regina_11082022,2022.2.4,120.24126780267412,
6,11,7,0,0.027777777777778,1.0,0,1.0,1.0,0,0.111111111111111,1.0,ReadingArea_rsl0-rcl2-esl100-rsm0-rcm100-esm100-rsr0-rcr11-esr100,exr/ReadingArea_rsl0-rcl2-esl100-rsm0-rcm100-esm100-rsr0-rcr11-esr100.exr,ReadingArea_rsl0-rcl2-esl100-rsm0-rcm100-esm100-rsr0-rcr11-esr100.npz,,,,,0,151,151,571,,right,red,3.51,1232.2274780273438,1232.6805200576782,,3,,2,6,lightness,readingArea,realistic,75,2023-03-21_10h50.07.036,tripletExp_regina_11082022,2022.2.4,120.24126780267412,
5,10,12,0,1.0,0.298245614035088,0,0.694444444444444,1.0,0,0.027777777777778,3.10526315789474,ReadingArea_rsl0-rcl100-esl29-rsm0-rcm69-esm100-rsr0-rcr2-esr310,exr/ReadingArea_rsl0-rcl100-esl29-rsm0-rcm69-esm100-rsr0-rcr2-esr310.exr,ReadingArea_rsl0-rcl100-esl29-rsm0-rcm69-esm100-rsr0-rcr2-esr310.npz,,,,,0,152,152,587,,left,green,1.61,1234.3823628425598,,,3,,2,6,lightness,readingArea,realistic,75,2023-03-21_10h50.07.036,tripletExp_regina_11082022,2022.2.4,120.24126780267412,
6,13,5,0,0.027777777777778,1.0,0,0.111111111111111,3.10526315789474,0,1.0,0.298245614035088,ReadingArea_rsl0-rcl2-esl100-rsm0-rcm11-esm310-rsr0-rcr100-esr29,exr/ReadingArea_rsl0-rcl2-esl100-rsm0-rcm11-esm310-rsr0-rcr100-esr29.exr,ReadingArea_rsl0-rcl2-esl100-rsm0-rcm11-esm310-rsr0-rcr100-esr29.npz,,,,,0,153,153,53,,right,red,3.32,1238.2961778640747,1238.7481038570404,,3,,2,6,lightness,readingArea,realistic,75,2023-03-21_10h50.07.036,tripletExp_regina_11082022,2022.2.4,120.24126780267412,
9,8,0,0,0.444444444444444,1.0,0,0.25,1.0,0,0.027777777777778,0.298245614035088,ReadingArea_rsl0-rcl44-esl100-rsm0-rcm25-esm100-rsr0-rcr2-esr29,exr/ReadingArea_rsl0-rcl44-esl100-rsm0-rcm25-esm100-rsr0-rcr2-esr29.exr,ReadingArea_rsl0-rcl44-esl100-rsm0-rcm25-esm100-rsr0-rcr2-esr29.npz,,,,,0,154,154,66,,left,green,3.51,1242.2174940109253,,,3,,2,6,lightness,readingArea,realistic,75,2023-03-21_10h50.07.036,tripletExp_regina_11082022,2022.2.4,120.24126780267412,
8,9,6,0,0.25,1.0,0,0.444444444444444,1.0,0,0.027777777777778,1.0,ReadingArea_rsl0-rcl25-esl100-rsm0-rcm44-esm100-rsr0-rcr2-esr100,exr/ReadingArea_rsl0-rcl25-esl100-rsm0-rcm44-esm100-rsr0-rcr2-esr100.exr,ReadingArea_rsl0-rcl25-esl100-rsm0-rcm44-esm100-rsr0-rcr2-esr100.npz,,,,,0,155,155,3,,left,green,2.52,1246.19269490242,,,3,,2,6,lightness,readingArea,realistic,75,2023-03-21_10h50.07.036,tripletExp_regina_11082022,2022.2.4,120.24126780267412,
10,7,8,0,0.694444444444444,1.0,0,0.111111111111111,1.0,0,0.25,1.0,ReadingArea_rsl0-rcl69-esl100-rsm0-rcm11-esm100-rsr0-rcr25-esr100,exr/ReadingArea_rsl0-rcl69-esl100-rsm0-rcm11-esm100-rsr0-rcr25-esr100.exr,ReadingArea_rsl0-rcl69-esl100-rsm0-rcm11-esm100-rsr0-rcr25-esr100.npz,,,,,0,156,156,57,,right,red,1.79,1248.3541719913485,1248.8315839767456,,3,,2,6,lightness,readingArea,realistic,75,2023-03-21_10h50.07.036,tripletExp_regina_11082022,2022.2.4,120.24126780267412,
9,11,5,0,0.444444444444444,1.0,0,1.0,1.0,0,1.0,0.298245614035088,ReadingArea_rsl0-rcl44-esl100-rsm0-rcm100-esm100-rsr0-rcr100-esr29,exr/ReadingArea_rsl0-rcl44-esl100-rsm0-rcm100-esm100-rsr0-rcr100-esr29.exr,ReadingArea_rsl0-rcl44-esl100-rsm0-rcm100-esm100-rsr0-rcr100-esr29.npz,,,,,0,157,157,142,,right,red,3.47,1252.3134758472445,1252.7702929973602,,3,,2,6,lightness,readingArea,realistic,75,2023-03-21_10h50.07.036,tripletExp_regina_11082022,2022.2.4,120.24126780267412,
5,2,8,0,1.0,0.298245614035088,0,0.25,0.298245614035088,0,0.25,1.0,ReadingArea_rsl0-rcl100-esl29-rsm0-rcm25-esm29-rsr0-rcr25-esr100,exr/ReadingArea_rsl0-rcl100-esl29-rsm0-rcm25-esm29-rsr0-rcr25-esr100.exr,ReadingArea_rsl0-rcl100-esl29-rsm0-rcm25-esm29-rsr0-rcr25-esr100.npz,,,,,0,158,158,538,,right,red,4.76,1257.996920824051,1258.4612519741058,,3,,2,6,lightness,readingArea,realistic,75,2023-03-21_10h50.07.036,tripletExp_regina_11082022,2022.2.4,120.24126780267412,
7,14,10,0,0.111111111111111,1.0,0,0.25,3.10526315789474,0,0.694444444444444,1.0,ReadingArea_rsl0-rcl11-esl100-rsm0-rcm25-esm310-rsr0-rcr69-esr100,exr/ReadingArea_rsl0-rcl11-esl100-rsm0-rcm25-esm310-rsr0-rcr69-esr100.exr,ReadingArea_rsl0-rcl11-esl100-rsm0-rcm25-esm310-rsr0-rcr69-esr100.npz,,,,,0,159,159,472,,right,red,4.8,1263.6879498958588,1264.1582210063934,,3,,2,6,lightness,readingArea,realistic,75,2023-03-21_10h50.07.036,tripletExp_regina_11082022,2022.2.4,120.24126780267412,
5,9,10,0,1.0,0.298245614035088,0,0.444444444444444,1.0,0,0.694444444444444,1.0,ReadingArea_rsl0-rcl100-esl29-rsm0-rcm44-esm100-rsr0-rcr69-esr100,exr/ReadingArea_rsl0-rcl100-esl29-rsm0-rcm44-esm100-rsr0-rcr69-esr100.exr,ReadingArea_rsl0-rcl100-esl29-rsm0-rcm44-esm100-rsr0-rcr69-esr100.npz,,,,,0,160,160,322,,left,green,3.08,1267.621150970459,,,3,,2,6,lightness,readingArea,realistic,75,2023-03-21_10h50.07.036,tripletExp_regina_11082022,2022.2.4,120.24126780267412,
3,8,1,0,0.444444444444444,0.298245614035088,0,0.25,1.0,0,0.111111111111111,0.298245614035088,ReadingArea_rsl0-rcl44-esl29-rsm0-rcm25-esm100-rsr0-rcr11-esr29,exr/ReadingArea_rsl0-rcl44-esl29-rsm0-rcm25-esm100-rsr0-rcr11-esr29.exr,ReadingArea_rsl0-rcl44-esl29-rsm0-rcm25-esm100-rsr0-rcr11-esr29.npz,,,,,0,161,161,230,,left,green,2.82,1271.5402019023895,1271.9860079288485,,3,,2,6,lightness,readingArea,realistic,75,2023-03-21_10h50.07.036,tripletExp_regina_11082022,2022.2.4,120.24126780267412,
9,8,7,0,0.444444444444444,1.0,0,0.25,1.0,0,0.111111111111111,1.0,ReadingArea_rsl0-rcl44-esl100-rsm0-rcm25-esm100-rsr0-rcr11-esr100,exr/ReadingArea_rsl0-rcl44-esl100-rsm0-rcm25-esm100-rsr0-rcr11-esr100.exr,ReadingArea_rsl0-rcl44-esl100-rsm0-rcm25-esm100-rsr0-rcr11-esr100.npz,,,,,0,162,162,368,,right,red,2.73,1275.461072921753,1275.9170079231262,,3,,2,6,lightness,readingArea,realistic,75,2023-03-21_10h50.07.036,tripletExp_regina_11082022,2022.2.4,120.24126780267412,
14,8,2,0,0.25,3.10526315789474,0,0.25,1.0,0,0.25,0.298245614035088,ReadingArea_rsl0-rcl25-esl310-rsm0-rcm25-esm100-rsr0-rcr25-esr29,exr/ReadingArea_rsl0-rcl25-esl310-rsm0-rcm25-esm100-rsr0-rcr25-esr29.exr,ReadingArea_rsl0-rcl25-esl310-rsm0-rcm25-esm100-rsr0-rcr25-esr29.npz,,,,,0,163,163,251,,right,red,1.24,1277.6119899749756,1278.039999961853,,3,,2,6,lightness,readingArea,realistic,75,2023-03-21_10h50.07.036,tripletExp_regina_11082022,2022.2.4,120.24126780267412,
12,3,5,0,0.027777777777778,3.10526315789474,0,0.444444444444444,0.298245614035088,0,1.0,0.298245614035088,ReadingArea_rsl0-rcl2-esl310-rsm0-rcm44-esm29-rsr0-rcr100-esr29,exr/ReadingArea_rsl0-rcl2-esl310-rsm0-rcm44-esm29-rsr0-rcr100-esr29.exr,ReadingArea_rsl0-rcl2-esl310-rsm0-rcm44-esm29-rsr0-rcr100-esr29.npz,,,,,0,164,164,188,,right,red,4.47,1283.285620927811,1283.7399640083313,,3,,2,6,lightness,readingArea,realistic,75,2023-03-21_10h50.07.036,tripletExp_regina_11082022,2022.2.4,120.24126780267412,
2,8,11,0,0.25,0.298245614035088,0,0.25,1.0,0,1.0,1.0,ReadingArea_rsl0-rcl25-esl29-rsm0-rcm25-esm100-rsr0-rcr100-esr100,exr/ReadingArea_rsl0-rcl25-esl29-rsm0-rcm25-esm100-rsr0-rcr100-esr100.exr,ReadingArea_rsl0-rcl25-esl29-rsm0-rcm25-esm100-rsr0-rcr100-esr100.npz,,,,,0,165,165,225,,left,green,2.75,1287.204814910889,1287.6439390182495,,3,,2,6,lightness,readingArea,realistic,75,2023-03-21_10h50.07.036,tripletExp_regina_11082022,2022.2.4,120.24126780267412,
6,10,9,0,0.027777777777778,1.0,0,0.694444444444444,1.0,0,0.444444444444444,1.0,ReadingArea_rsl0-rcl2-esl100-rsm0-rcm69-esm100-rsr0-rcr44-esr100,exr/ReadingArea_rsl0-rcl2-esl100-rsm0-rcm69-esm100-rsr0-rcr44-esr100.exr,ReadingArea_rsl0-rcl2-esl100-rsm0-rcm69-esm100-rsr0-rcr44-esr100.npz,,,,,0,166,166,148,,right,red,3.17,1291.1348779201508,1291.5844469070437,,3,,2,6,lightness,readingArea,realistic,75,2023-03-21_10h50.07.036,tripletExp_regina_11082022,2022.2.4,120.24126780267412,
7,3,5,0,0.111111111111111,1.0,0,0.444444444444444,0.298245614035088,0,1.0,0.298245614035088,ReadingArea_rsl0-rcl11-esl100-rsm0-rcm44-esm29-rsr0-rcr100-esr29,exr/ReadingArea_rsl0-rcl11-esl100-rsm0-rcm44-esm29-rsr0-rcr100-esr29.exr,ReadingArea_rsl0-rcl11-esl100-rsm0-rcm44-esm29-rsr0-rcr100-esr29.npz,,,,,0,167,167,589,,left,green,2.96,1295.0642199516296,1295.517971992493,,3,,2,6,lightness,readingArea,realistic,75,2023-03-21_10h50.07.036,tripletExp_regina_11082022,2022.2.4,120.24126780267412,
4,1,9,0,0.694444444444444,0.298245614035088,0,0.111111111111111,0.298245614035088,0,0.444444444444444,1.0,ReadingArea_rsl0-rcl69-esl29-rsm0-rcm11-esm29-rsr0-rcr44-esr100,exr/ReadingArea_rsl0-rcl69-esl29-rsm0-rcm11-esm29-rsr0-rcr44-esr100.exr,ReadingArea_rsl0-rcl69-esl29-rsm0-rcm11-esm29-rsr0-rcr44-esr100.npz,,,,,0,168,168,7,,left,green,4.71,1300.7564208507538,1301.2229490280151,,3,,2,6,lightness,readingArea,realistic,75,2023-03-21_10h50.07.036,tripletExp_regina_11082022,2022.2.4,120.24126780267412,
2,14,1,0,0.25,0.298245614035088,0,0.25,3.10526315789474,0,0.111111111111111,0.298245614035088,ReadingArea_rsl0-rcl25-esl29-rsm0-rcm25-esm310-rsr0-rcr11-esr29,exr/ReadingArea_rsl0-rcl25-esl29-rsm0-rcm25-esm310-rsr0-rcr11-esr29.exr,ReadingArea_rsl0-rcl25-esl29-rsm0-rcm25-esm310-rsr0-rcr11-esr29.npz,,,,,0,169,169,579,,left,green,3.02,1304.6861379146576,1305.1364359855652,,3,,2,6,lightness,readingArea,realistic,75,2023-03-21_10h50.07.036,tripletExp_regina_11082022,2022.2.4,120.24126780267412,
13,0,12,0,0.111111111111111,3.10526315789474,0,0.027777777777778,0.298245614035088,0,0.027777777777778,3.10526315789474,ReadingArea_rsl0-rcl11-esl310-rsm0-rcm2-esm29-rsr0-rcr2-esr310,exr/ReadingArea_rsl0-rcl11-esl310-rsm0-rcm2-esm29-rsr0-rcr2-esr310.exr,ReadingArea_rsl0-rcl11-esl310-rsm0-rcm2-esm29-rsr0-rcr2-esr310.npz,,,,,0,170,170,56,,right,red,3.03,1308.607656955719,1309.07311296463,,3,,2,6,lightness,readingArea,realistic,75,2023-03-21_10h50.07.036,tripletExp_regina_11082022,2022.2.4,120.24126780267412,
12,9,2,0,0.027777777777778,3.10526315789474,0,0.444444444444444,1.0,0,0.25,0.298245614035088,ReadingArea_rsl0-rcl2-esl310-rsm0-rcm44-esm100-rsr0-rcr25-esr29,exr/ReadingArea_rsl0-rcl2-esl310-rsm0-rcm44-esm100-rsr0-rcr25-esr29.exr,ReadingArea_rsl0-rcl2-esl310-rsm0-rcm44-esm100-rsr0-rcr25-esr29.npz,,,,,0,171,171,226,,right,red,4.59,1314.3081059455872,1314.764307975769,,3,,2,6,lightness,readingArea,realistic,75,2023-03-21_10h50.07.036,tripletExp_regina_11082022,2022.2.4,120.24126780267412,
1,12,6,0,0.111111111111111,0.298245614035088,0,0.027777777777778,3.10526315789474,0,0.027777777777778,1.0,ReadingArea_rsl0-rcl11-esl29-rsm0-rcm2-esm310-rsr0-rcr2-esr100,exr/ReadingArea_rsl0-rcl11-esl29-rsm0-rcm2-esm310-rsr0-rcr2-esr100.exr,ReadingArea_rsl0-rcl11-esl29-rsm0-rcm2-esm310-rsr0-rcr2-esr100.npz,,,,,0,172,172,277,,right,red,1.14,1316.4556798934937,1317.0515530109406,,3,,2,6,lightness,readingArea,realistic,75,2023-03-21_10h50.07.036,tripletExp_regina_11082022,2022.2.4,120.24126780267412,
12,4,9,0,0.027777777777778,3.10526315789474,0,0.694444444444444,0.298245614035088,0,0.444444444444444,1.0,ReadingArea_rsl0-rcl2-esl310-rsm0-rcm69-esm29-rsr0-rcr44-esr100,exr/ReadingArea_rsl0-rcl2-esl310-rsm0-rcm69-esm29-rsr0-rcr44-esr100.exr,ReadingArea_rsl0-rcl2-esl310-rsm0-rcm69-esm29-rsr0-rcr44-esr100.npz,,,,,0,173,173,380,,right,red,3.16,1320.5422649383545,1320.98180103302,,3,,2,6,lightness,readingArea,realistic,75,2023-03-21_10h50.07.036,tripletExp_regina_11082022,2022.2.4,120.24126780267412,
4,7,1,0,0.694444444444444,0.298245614035088,0,0.111111111111111,1.0,0,0.111111111111111,0.298245614035088,ReadingArea_rsl0-rcl69-esl29-rsm0-rcm11-esm100-rsr0-rcr11-esr29,exr/ReadingArea_rsl0-rcl69-esl29-rsm0-rcm11-esm100-rsr0-rcr11-esr29.exr,ReadingArea_rsl0-rcl69-esl29-rsm0-rcm11-esm100-rsr0-rcr11-esr29.npz,,,,,0,174,174,33,,right,red,2.57,1324.4377138614657,1324.8933908939362,,3,,2,6,lightness,readingArea,realistic,75,2023-03-21_10h50.07.036,tripletExp_regina_11082022,2022.2.4,120.24126780267412,
11,0,12,0,1.0,1.0,0,0.027777777777778,0.298245614035088,0,0.027777777777778,3.10526315789474,ReadingArea_rsl0-rcl100-esl100-rsm0-rcm2-esm29-rsr0-rcr2-esr310,exr/ReadingArea_rsl0-rcl100-esl100-rsm0-rcm2-esm29-rsr0-rcr2-esr310.exr,ReadingArea_rsl0-rcl100-esl100-rsm0-rcm2-esm29-rsr0-rcr2-esr310.npz,,,,,0,175,175,166,,right,red,2.84,1328.36456990242,,,3,,2,6,lightness,readingArea,realistic,75,2023-03-21_10h50.07.036,tripletExp_regina_11082022,2022.2.4,120.24126780267412,
14,3,6,0,0.25,3.10526315789474,0,0.444444444444444,0.298245614035088,0,0.027777777777778,1.0,ReadingArea_rsl0-rcl25-esl310-rsm0-rcm44-esm29-rsr0-rcr2-esr100,exr/ReadingArea_rsl0-rcl25-esl310-rsm0-rcm44-esm29-rsr0-rcr2-esr100.exr,ReadingArea_rsl0-rcl25-esl310-rsm0-rcm44-esm29-rsr0-rcr2-esr100.npz,,,,,0,176,176,244,,right,red,4.83,1334.0536198616028,1334.4945888519287,,3,,2,6,lightness,readingArea,realistic,75,2023-03-21_10h50.07.036,tripletExp_regina_11082022,2022.2.4,120.24126780267412,
0,10,14,0,0.027777777777778,0.298245614035088,0,0.694444444444444,1.0,0,0.25,3.10526315789474,ReadingArea_rsl0-rcl2-esl29-rsm0-rcm69-esm100-rsr0-rcr25-esr310,exr/ReadingArea_rsl0-rcl2-esl29-rsm0-rcm69-esm100-rsr0-rcr25-esr310.exr,ReadingArea_rsl0-rcl2-esl29-rsm0-rcm69-esm100-rsr0-rcr25-esr310.npz,,,,,0,177,177,31,,right,red,4.15,1339.754422903061,1340.214612007141,,3,,2,6,lightness,readingArea,realistic,75,2023-03-21_10h50.07.036,tripletExp_regina_11082022,2022.2.4,120.24126780267412,
7,10,5,0,0.111111111111111,1.0,0,0.694444444444444,1.0,0,1.0,0.298245614035088,ReadingArea_rsl0-rcl11-esl100-rsm0-rcm69-esm100-rsr0-rcr100-esr29,exr/ReadingArea_rsl0-rcl11-esl100-rsm0-rcm69-esm100-rsr0-rcr100-esr29.exr,ReadingArea_rsl0-rcl11-esl100-rsm0-rcm69-esm100-rsr0-rcr100-esr29.npz,,,,,0,178,178,395,,right,red,4.18,1345.4760630130768,1345.9288728237152,,3,,2,6,lightness,readingArea,realistic,75,2023-03-21_10h50.07.036,tripletExp_regina_11082022,2022.2.4,120.24126780267412,
2,11,5,0,0.25,0.298245614035088,0,1.0,1.0,0,1.0,0.298245614035088,ReadingArea_rsl0-rcl25-esl29-rsm0-rcm100-esm100-rsr0-rcr100-esr29,exr/ReadingArea_rsl0-rcl25-esl29-rsm0-rcm100-esm100-rsr0-rcr100-esr29.exr,ReadingArea_rsl0-rcl25-esl29-rsm0-rcm100-esm100-rsr0-rcr100-esr29.npz,,,,,0,179,179,491,,right,red,3.08,1349.3863849639893,1349.8426010608673,,3,,2,6,lightness,readingArea,realistic,75,2023-03-21_10h50.07.036,tripletExp_regina_11082022,2022.2.4,120.24126780267412,
13,9,6,0,0.111111111111111,3.10526315789474,0,0.444444444444444,1.0,0,0.027777777777778,1.0,ReadingArea_rsl0-rcl11-esl310-rsm0-rcm44-esm100-rsr0-rcr2-esr100,exr/ReadingArea_rsl0-rcl11-esl310-rsm0-rcm44-esm100-rsr0-rcr2-esr100.exr,ReadingArea_rsl0-rcl11-esl310-rsm0-rcm44-esm100-rsr0-rcr2-esr100.npz,,,,,0,180,180,19,,left,green,3.48,1353.3075659275055,1353.8387458324432,,3,,2,6,lightness,readingArea,realistic,75,2023-03-21_10h50.07.036,tripletExp_regina_11082022,2022.2.4,120.24126780267412,
10,0,8,0,0.694444444444444,1.0,0,0.027777777777778,0.298245614035088,0,0.25,1.0,ReadingArea_rsl0-rcl69-esl100-rsm0-rcm2-esm29-rsr0-rcr25-esr100,exr/ReadingArea_rsl0-rcl69-esl100-rsm0-rcm2-esm29-rsr0-rcr25-esr100.exr,ReadingArea_rsl0-rcl69-esl100-rsm0-rcm2-esm29-rsr0-rcr25-esr100.npz,,,,,0,181,181,552,,right,red,2.92,1357.3091869354248,1357.7521860599518,,3,,2,6,lightness,readingArea,realistic,75,2023-03-21_10h50.07.036,tripletExp_regina_11082022,2022.2.4,120.24126780267412,
2,1,10,0,0.25,0.298245614035088,0,0.111111111111111,0.298245614035088,0,0.694444444444444,1.0,ReadingArea_rsl0-rcl25-esl29-rsm0-rcm11-esm29-rsr0-rcr69-esr100,exr/ReadingArea_rsl0-rcl25-esl29-rsm0-rcm11-esm29-rsr0-rcr69-esr100.exr,ReadingArea_rsl0-rcl25-esl29-rsm0-rcm11-esm29-rsr0-rcr69-esr100.npz,,,,,0,182,182,585,,left,green,2.8,1361.2056229114532,1361.6577479839325,,3,,2,6,lightness,readingArea,realistic,75,2023-03-21_10h50.07.036,tripletExp_regina_11082022,2022.2.4,120.24126780267412,
7,6,11,0,0.111111111111111,1.0,0,0.027777777777778,1.0,0,1.0,1.0,ReadingArea_rsl0-rcl11-esl100-rsm0-rcm2-esm100-rsr0-rcr100-esr100,exr/ReadingArea_rsl0-rcl11-esl100-rsm0-rcm2-esm100-rsr0-rcr100-esr100.exr,ReadingArea_rsl0-rcl11-esl100-rsm0-rcm2-esm100-rsr0-rcr100-esr100.npz,,,,,0,183,183,84,,left,green,3.01,1365.1357958316803,1365.588064908981,,3,,2,6,lightness,readingArea,realistic,75,2023-03-21_10h50.07.036,tripletExp_regina_11082022,2022.2.4,120.24126780267412,
0,8,6,0,0.027777777777778,0.298245614035088,0,0.25,1.0,0,0.027777777777778,1.0,ReadingArea_rsl0-rcl2-esl29-rsm0-rcm25-esm100-rsr0-rcr2-esr100,exr/ReadingArea_rsl0-rcl2-esl29-rsm0-rcm25-esm100-rsr0-rcr2-esr100.exr,ReadingArea_rsl0-rcl2-esl29-rsm0-rcm25-esm100-rsr0-rcr2-esr100.npz,,,,,0,184,184,92,,right,red,3.71,1370.816375017166,1371.273717880249,,3,,2,6,lightness,readingArea,realistic,75,2023-03-21_10h50.07.036,tripletExp_regina_11082022,2022.2.4,120.24126780267412,
9,2,12,0,0.444444444444444,1.0,0,0.25,0.298245614035088,0,0.027777777777778,3.10526315789474,ReadingArea_rsl0-rcl44-esl100-rsm0-rcm25-esm29-rsr0-rcr2-esr310,exr/ReadingArea_rsl0-rcl44-esl100-rsm0-rcm25-esm29-rsr0-rcr2-esr310.exr,ReadingArea_rsl0-rcl44-esl100-rsm0-rcm25-esm29-rsr0-rcr2-esr310.npz,,,,,0,185,185,391,,right,red,3.25,1374.7468099594116,,,3,,2,6,lightness,readingArea,realistic,75,2023-03-21_10h50.07.036,tripletExp_regina_11082022,2022.2.4,120.24126780267412,
3,11,14,0,0.444444444444444,0.298245614035088,0,1.0,1.0,0,0.25,3.10526315789474,ReadingArea_rsl0-rcl44-esl29-rsm0-rcm100-esm100-rsr0-rcr25-esr310,exr/ReadingArea_rsl0-rcl44-esl29-rsm0-rcm100-esm100-rsr0-rcr25-esr310.exr,ReadingArea_rsl0-rcl44-esl29-rsm0-rcm100-esm100-rsr0-rcr25-esr310.npz,,,,,0,186,186,570,,right,red,4.35,1380.443393945694,1380.887200832367,,3,,2,6,lightness,readingArea,realistic,75,2023-03-21_10h50.07.036,tripletExp_regina_11082022,2022.2.4,120.24126780267412,
13,10,11,0,0.111111111111111,3.10526315789474,0,0.694444444444444,1.0,0,1.0,1.0,ReadingArea_rsl0-rcl11-esl310-rsm0-rcm69-esm100-rsr0-rcr100-esr100,exr/ReadingArea_rsl0-rcl11-esl310-rsm0-rcm69-esm100-rsr0-rcr100-esr100.exr,ReadingArea_rsl0-rcl11-esl310-rsm0-rcm69-esm100-rsr0-rcr100-esr100.npz,,,,,0,187,187,320,,left,green,4.4,1386.109318971634,1386.5796928405762,,3,,2,6,lightness,readingArea,realistic,75,2023-03-21_10h50.07.036,tripletExp_regina_11082022,2022.2.4,120.24126780267412,
6,0,11,0,0.027777777777778,1.0,0,0.027777777777778,0.298245614035088,0,1.0,1.0,ReadingArea_rsl0-rcl2-esl100-rsm0-rcm2-esm29-rsr0-rcr100-esr100,exr/ReadingArea_rsl0-rcl2-esl100-rsm0-rcm2-esm29-rsr0-rcr100-esr100.exr,ReadingArea_rsl0-rcl2-esl100-rsm0-rcm2-esm29-rsr0-rcr100-esr100.npz,,,,,0,188,188,245,,left,green,1.7,1388.2697699069977,1388.738280057907,,3,,2,6,lightness,readingArea,realistic,75,2023-03-21_10h50.07.036,tripletExp_regina_11082022,2022.2.4,120.24126780267412,
8,1,10,0,0.25,1.0,0,0.111111111111111,0.298245614035088,0,0.694444444444444,1.0,ReadingArea_rsl0-rcl25-esl100-rsm0-rcm11-esm29-rsr0-rcr69-esr100,exr/ReadingArea_rsl0-rcl25-esl100-rsm0-rcm11-esm29-rsr0-rcr69-esr100.exr,ReadingArea_rsl0-rcl25-esl100-rsm0-rcm11-esm29-rsr0-rcr69-esr100.npz,,,,,0,189,189,442,,left,green,3.3,1392.2129888534546,1392.698874950409,,3,,2,6,lightness,readingArea,realistic,75,2023-03-21_10h50.07.036,tripletExp_regina_11082022,2022.2.4,120.24126780267412,
4,0,3,0,0.694444444444444,0.298245614035088,0,0.027777777777778,0.298245614035088,0,0.444444444444444,0.298245614035088,ReadingArea_rsl0-rcl69-esl29-rsm0-rcm2-esm29-rsr0-rcr44-esr29,exr/ReadingArea_rsl0-rcl69-esl29-rsm0-rcm2-esm29-rsr0-rcr44-esr29.exr,ReadingArea_rsl0-rcl69-esl29-rsm0-rcm2-esm29-rsr0-rcr44-esr29.npz,,,,,0,190,190,88,,right,red,2.98,1396.1543068885803,1396.5943639278412,,3,,2,6,lightness,readingArea,realistic,75,2023-03-21_10h50.07.036,tripletExp_regina_11082022,2022.2.4,120.24126780267412,
10,4,9,0,0.694444444444444,1.0,0,0.694444444444444,0.298245614035088,0,0.444444444444444,1.0,ReadingArea_rsl0-rcl69-esl100-rsm0-rcm69-esm29-rsr0-rcr44-esr100,exr/ReadingArea_rsl0-rcl69-esl100-rsm0-rcm69-esm29-rsr0-rcr44-esr100.exr,ReadingArea_rsl0-rcl69-esl100-rsm0-rcm69-esm29-rsr0-rcr44-esr100.npz,,,,,0,191,191,452,,right,red,2.68,1400.0550129413605,1400.5163669586182,,3,,2,6,lightness,readingArea,realistic,75,2023-03-21_10h50.07.036,tripletExp_regina_11082022,2022.2.4,120.24126780267412,
2,1,3,0,0.25,0.298245614035088,0,0.111111111111111,0.298245614035088,0,0.444444444444444,0.298245614035088,ReadingArea_rsl0-rcl25-esl29-rsm0-rcm11-esm29-rsr0-rcr44-esr29,exr/ReadingArea_rsl0-rcl25-esl29-rsm0-rcm11-esm29-rsr0-rcr44-esr29.exr,ReadingArea_rsl0-rcl25-esl29-rsm0-rcm11-esm29-rsr0-rcr44-esr29.npz,,,,,0,192,192,85,,left,green,1.63,1402.2086110115051,,,3,,2,6,lightness,readingArea,realistic,75,2023-03-21_10h50.07.036,tripletExp_regina_11082022,2022.2.4,120.24126780267412,
3,4,5,0,0.444444444444444,0.298245614035088,0,0.694444444444444,0.298245614035088,0,1.0,0.298245614035088,ReadingArea_rsl0-rcl44-esl29-rsm0-rcm69-esm29-rsr0-rcr100-esr29,exr/ReadingArea_rsl0-rcl44-esl29-rsm0-rcm69-esm29-rsr0-rcr100-esr29.exr,ReadingArea_rsl0-rcl44-esl29-rsm0-rcm69-esm29-rsr0-rcr100-esr29.npz,,,,,0,193,193,233,,left,green,2.83,1406.1544258594513,1406.6101548671722,,3,,2,6,lightness,readingArea,realistic,75,2023-03-21_10h50.07.036,tripletExp_regina_11082022,2022.2.4,120.24126780267412,
1,3,12,0,0.111111111111111,0.298245614035088,0,0.444444444444444,0.298245614035088,0,0.027777777777778,3.10526315789474,ReadingArea_rsl0-rcl11-esl29-rsm0-rcm44-esm29-rsr0-rcr2-esr310,exr/ReadingArea_rsl0-rcl11-esl29-rsm0-rcm44-esm29-rsr0-rcr2-esr310.exr,ReadingArea_rsl0-rcl11-esl29-rsm0-rcm44-esm29-rsr0-rcr2-esr310.npz,,,,,0,194,194,323,,left,green,3.29,1410.058799982071,1410.5187919139862,,3,,2,6,lightness,readingArea,realistic,75,2023-03-21_10h50.07.036,tripletExp_regina_11082022,2022.2.4,120.24126780267412,
10,7,4,0,0.694444444444444,1.0,0,0.111111111111111,1.0,0,0.694444444444444,0.298245614035088,ReadingArea_rsl0-rcl69-esl100-rsm0-rcm11-esm100-rsr0-rcr69-esr29,exr/ReadingArea_rsl0-rcl69-esl100-rsm0-rcm11-esm100-rsr0-rcr69-esr29.exr,ReadingArea_rsl0-rcl69-esl100-rsm0-rcm11-esm100-rsr0-rcr69-esr29.npz,,,,,0,195,195,223,,right,red,2.83,1413.9774630069733,,,3,,2,6,lightness,readingArea,realistic,75,2023-03-21_10h50.07.036,tripletExp_regina_11082022,2022.2.4,120.24126780267412,
4,10,11,0,0.694444444444444,0.298245614035088,0,0.694444444444444,1.0,0,1.0,1.0,ReadingArea_rsl0-rcl69-esl29-rsm0-rcm69-esm100-rsr0-rcr100-esr100,exr/ReadingArea_rsl0-rcl69-esl29-rsm0-rcm69-esm100-rsr0-rcr100-esr100.exr,ReadingArea_rsl0-rcl69-esl29-rsm0-rcm69-esm100-rsr0-rcr100-esr100.npz,,,,,0,196,196,180,,left,green,2.34,1417.932678937912,1418.4916489124298,,3,,2,6,lightness,readingArea,realistic,75,2023-03-21_10h50.07.036,tripletExp_regina_11082022,2022.2.4,120.24126780267412,
13,14,7,0,0.111111111111111,3.10526315789474,0,0.25,3.10526315789474,0,0.111111111111111,1.0,ReadingArea_rsl0-rcl11-esl310-rsm0-rcm25-esm310-rsr0-rcr11-esr100,exr/ReadingArea_rsl0-rcl11-esl310-rsm0-rcm25-esm310-rsr0-rcr11-esr100.exr,ReadingArea_rsl0-rcl11-esl310-rsm0-rcm25-esm310-rsr0-rcr11-esr100.npz,,,,,0,197,197,324,,left,green,4.52,1423.7243490219116,1424.268760919571,,3,,2,6,lightness,readingArea,realistic,75,2023-03-21_10h50.07.036,tripletExp_regina_11082022,2022.2.4,120.24126780267412,
13,7,6,0,0.111111111111111,3.10526315789474,0,0.111111111111111,1.0,0,0.027777777777778,1.0,ReadingArea_rsl0-rcl11-esl310-rsm0-rcm11-esm100-rsr0-rcr2-esr100,exr/ReadingArea_rsl0-rcl11-esl310-rsm0-rcm11-esm100-rsr0-rcr2-esr100.exr,ReadingArea_rsl0-rcl11-esl310-rsm0-rcm11-esm100-rsr0-rcr2-esr100.npz,,,,,0,198,198,283,,right,red,4.5,1429.4885840415957,,,3,,2,6,lightness,readingArea,realistic,75,2023-03-21_10h50.07.036,tripletExp_regina_11082022,2022.2.4,120.24126780267412,
5,0,10,0,1.0,0.298245614035088,0,0.027777777777778,0.298245614035088,0,0.694444444444444,1.0,ReadingArea_rsl0-rcl100-esl29-rsm0-rcm2-esm29-rsr0-rcr69-esr100,exr/ReadingArea_rsl0-rcl100-esl29-rsm0-rcm2-esm29-rsr0-rcr69-esr100.exr,ReadingArea_rsl0-rcl100-esl29-rsm0-rcm2-esm29-rsr0-rcr69-esr100.npz,,,,,0,199,199,361,,left,green,2.68,1433.5352289676666,1433.9797739982605,,3,,2,6,lightness,readingArea,realistic,75,2023-03-21_10h50.07.036,tripletExp_regina_11082022,2022.2.4,120.24126780267412,
3,14,12,0,0.444444444444444,0.298245614035088,0,0.25,3.10526315789474,0,0.027777777777778,3.10526315789474,ReadingArea_rsl0-rcl44-esl29-rsm0-rcm25-esm310-rsr0-rcr2-esr310,exr/ReadingArea_rsl0-rcl44-esl29-rsm0-rcm25-esm310-rsr0-rcr2-esr310.exr,ReadingArea_rsl0-rcl44-esl29-rsm0-rcm25-esm310-rsr0-rcr2-esr310.npz,,,,,0,200,200,336,,left,green,2.74,1437.4599249362946,1437.9166429042816,,3,,2,6,lightness,readingArea,realistic,75,2023-03-21_10h50.07.036,tripletExp_regina_11082022,2022.2.4,120.24126780267412,
3,10,4,0,0.444444444444444,0.298245614035088,0,0.694444444444444,1.0,0,0.694444444444444,0.298245614035088,ReadingArea_rsl0-rcl44-esl29-rsm0-rcm69-esm100-rsr0-rcr69-esr29,exr/ReadingArea_rsl0-rcl44-esl29-rsm0-rcm69-esm100-rsr0-rcr69-esr29.exr,ReadingArea_rsl0-rcl44-esl29-rsm0-rcm69-esm100-rsr0-rcr69-esr29.npz,,,,,0,201,201,435,,right,red,4.55,1443.1587669849396,1443.6353299617767,,3,,2,6,lightness,readingArea,realistic,75,2023-03-21_10h50.07.036,tripletExp_regina_11082022,2022.2.4,120.24126780267412,
13,0,8,0,0.111111111111111,3.10526315789474,0,0.027777777777778,0.298245614035088,0,0.25,1.0,ReadingArea_rsl0-rcl11-esl310-rsm0-rcm2-esm29-rsr0-rcr25-esr100,exr/ReadingArea_rsl0-rcl11-esl310-rsm0-rcm2-esm29-rsr0-rcr25-esr100.exr,ReadingArea_rsl0-rcl11-esl310-rsm0-rcm2-esm29-rsr0-rcr25-esr100.npz,,,,,0,202,202,249,,right,red,4.65,1448.851016998291,1449.3638689517977,,3,,2,6,lightness,readingArea,realistic,75,2023-03-21_10h50.07.036,tripletExp_regina_11082022,2022.2.4,120.24126780267412,
10,7,13,0,0.694444444444444,1.0,0,0.111111111111111,1.0,0,0.111111111111111,3.10526315789474,ReadingArea_rsl0-rcl69-esl100-rsm0-rcm11-esm100-rsr0-rcr11-esr310,exr/ReadingArea_rsl0-rcl69-esl100-rsm0-rcm11-esm100-rsr0-rcr11-esr310.exr,ReadingArea_rsl0-rcl69-esl100-rsm0-rcm11-esm100-rsr0-rcr11-esr310.npz,,,,,0,203,203,379,,right,red,3.0,1452.8427510261536,1453.2882969379425,,3,,2,6,lightness,readingArea,realistic,75,2023-03-21_10h50.07.036,tripletExp_regina_11082022,2022.2.4,120.24126780267412,
