index_left,index_middle,index_right,reflectance_surround_left,reflectance_center_left,emission_spot_left,reflectance_surround_middle,reflectance_center_middle,emission_spot_middle,reflectance_surround_right,reflectance_center_right,emission_spot_right,ImageName,ImageExr,ImageNpy,trials_2.thisRepN,trials_2.thisTrialN,trials_2.thisN,trials_2.thisIndex,trials.thisRepN,trials.thisTrialN,trials.thisN,trials.thisIndex,sound_1.started,BB_Trial.resp,BB_Trial.color,BB_Trial.rt,text.started,text.stopped,block,participant,session,L/B,scene,condition,nTrialsPerBlock,date,expName,psychopyVersion,frameRate,Unnamed: 40
2,1,12,2,0.25,0.298245614035088,2,0.111111111111111,0.298245614035088,2,0.027777777777778,3.10526315789474,ReadingArea_rsl2-rcl25-esl29-rsm2-rcm11-esm29-rsr2-rcr2-esr310,exr/ReadingArea_rsl2-rcl25-esl29-rsm2-rcm11-esm29-rsr2-rcr2-esr310.exr,ReadingArea_rsl2-rcl25-esl29-rsm2-rcm11-esm29-rsr2-rcr2-esr310.npz,,,,,0,0,0,12,66.28508625030517,left,green,1.08,72.36415314674377,72.76315593719482,1,1,4,brightness,readingArea,realistic,75,2023-03-24_14h44.49.753,tripletExp_regina_11082022,2022.2.4,120.07259943775514,
11,8,2,2,1.0,1.0,2,0.25,1.0,2,0.25,0.298245614035088,ReadingArea_rsl2-rcl100-esl100-rsm2-rcm25-esm100-rsr2-rcr25-esr29,exr/ReadingArea_rsl2-rcl100-esl100-rsm2-rcm25-esm100-rsr2-rcr25-esr29.exr,ReadingArea_rsl2-rcl100-esl100-rsm2-rcm25-esm100-rsr2-rcr25-esr29.npz,,,,,0,1,1,406,,right,red,0.88,74.44626808166504,74.87049913406372,1,1,4,brightness,readingArea,realistic,75,2023-03-24_14h44.49.753,tripletExp_regina_11082022,2022.2.4,120.07259943775514,
2,3,9,2,0.25,0.298245614035088,2,0.444444444444444,0.298245614035088,2,0.444444444444444,1.0,ReadingArea_rsl2-rcl25-esl29-rsm2-rcm44-esm29-rsr2-rcr44-esr100,exr/ReadingArea_rsl2-rcl25-esl29-rsm2-rcm44-esm29-rsr2-rcr44-esr100.exr,ReadingArea_rsl2-rcl25-esl29-rsm2-rcm44-esm29-rsr2-rcr44-esr100.npz,,,,,0,2,2,190,,left,green,0.64,76.57797312736511,76.94039297103882,1,1,4,brightness,readingArea,realistic,75,2023-03-24_14h44.49.753,tripletExp_regina_11082022,2022.2.4,120.07259943775514,
10,5,2,2,0.694444444444444,1.0,2,1.0,0.298245614035088,2,0.25,0.298245614035088,ReadingArea_rsl2-rcl69-esl100-rsm2-rcm100-esm29-rsr2-rcr25-esr29,exr/ReadingArea_rsl2-rcl69-esl100-rsm2-rcm100-esm29-rsr2-rcr25-esr29.exr,ReadingArea_rsl2-rcl69-esl100-rsm2-rcm100-esm29-rsr2-rcr25-esr29.npz,,,,,0,3,3,299,,left,green,0.85,78.65599513053894,79.09980201721191,1,1,4,brightness,readingArea,realistic,75,2023-03-24_14h44.49.753,tripletExp_regina_11082022,2022.2.4,120.07259943775514,
1,2,12,2,0.111111111111111,0.298245614035088,2,0.25,0.298245614035088,2,0.027777777777778,3.10526315789474,ReadingArea_rsl2-rcl11-esl29-rsm2-rcm25-esm29-rsr2-rcr2-esr310,exr/ReadingArea_rsl2-rcl11-esl29-rsm2-rcm25-esm29-rsr2-rcr2-esr310.exr,ReadingArea_rsl2-rcl11-esl29-rsm2-rcm25-esm29-rsr2-rcr2-esr310.npz,,,,,0,4,4,229,,left,green,0.7,80.81927514076233,,1,1,4,brightness,readingArea,realistic,75,2023-03-24_14h44.49.753,tripletExp_regina_11082022,2022.2.4,120.07259943775514,
7,3,12,2,0.111111111111111,1.0,2,0.444444444444444,0.298245614035088,2,0.027777777777778,3.10526315789474,ReadingArea_rsl2-rcl11-esl100-rsm2-rcm44-esm29-rsr2-rcr2-esr310,exr/ReadingArea_rsl2-rcl11-esl100-rsm2-rcm44-esm29-rsr2-rcr2-esr310.exr,ReadingArea_rsl2-rcl11-esl100-rsm2-rcm44-esm29-rsr2-rcr2-esr310.npz,,,,,0,5,5,443,,left,green,1.03,82.9311010837555,83.40800309181213,1,1,4,brightness,readingArea,realistic,75,2023-03-24_14h44.49.753,tripletExp_regina_11082022,2022.2.4,120.07259943775514,
8,12,3,2,0.25,1.0,2,0.027777777777778,3.10526315789474,2,0.444444444444444,0.298245614035088,ReadingArea_rsl2-rcl25-esl100-rsm2-rcm2-esm310-rsr2-rcr44-esr29,exr/ReadingArea_rsl2-rcl25-esl100-rsm2-rcm2-esm310-rsr2-rcr44-esr29.exr,ReadingArea_rsl2-rcl25-esl100-rsm2-rcm2-esm310-rsr2-rcr44-esr29.npz,,,,,0,6,6,6,,right,red,2.35,86.8738341331482,87.3271131515503,1,1,4,brightness,readingArea,realistic,75,2023-03-24_14h44.49.753,tripletExp_regina_11082022,2022.2.4,120.07259943775514,
8,9,6,2,0.25,1.0,2,0.444444444444444,1.0,2,0.027777777777778,1.0,ReadingArea_rsl2-rcl25-esl100-rsm2-rcm44-esm100-rsr2-rcr2-esr100,exr/ReadingArea_rsl2-rcl25-esl100-rsm2-rcm44-esm100-rsr2-rcr2-esr100.exr,ReadingArea_rsl2-rcl25-esl100-rsm2-rcm44-esm100-rsr2-rcr2-esr100.npz,,,,,0,7,7,3,,left,green,0.78,89.05124711990356,89.46966195106506,1,1,4,brightness,readingArea,realistic,75,2023-03-24_14h44.49.753,tripletExp_regina_11082022,2022.2.4,120.07259943775514,
14,9,0,2,0.25,3.10526315789474,2,0.444444444444444,1.0,2,0.027777777777778,0.298245614035088,ReadingArea_rsl2-rcl25-esl310-rsm2-rcm44-esm100-rsr2-rcr2-esr29,exr/ReadingArea_rsl2-rcl25-esl310-rsm2-rcm44-esm100-rsr2-rcr2-esr29.exr,ReadingArea_rsl2-rcl25-esl310-rsm2-rcm44-esm100-rsr2-rcr2-esr29.npz,,,,,0,8,8,313,,left,green,0.61,91.15359711647034,,1,1,4,brightness,readingArea,realistic,75,2023-03-24_14h44.49.753,tripletExp_regina_11082022,2022.2.4,120.07259943775514,
12,6,2,2,0.027777777777778,3.10526315789474,2,0.027777777777778,1.0,2,0.25,0.298245614035088,ReadingArea_rsl2-rcl2-esl310-rsm2-rcm2-esm100-rsr2-rcr25-esr29,exr/ReadingArea_rsl2-rcl2-esl310-rsm2-rcm2-esm100-rsr2-rcr25-esr29.exr,ReadingArea_rsl2-rcl2-esl310-rsm2-rcm2-esm100-rsr2-rcr25-esr29.npz,,,,,0,9,9,106,,right,red,1.2,93.31631898880003,93.84936094284058,1,1,4,brightness,readingArea,realistic,75,2023-03-24_14h44.49.753,tripletExp_regina_11082022,2022.2.4,120.07259943775514,
9,13,5,2,0.444444444444444,1.0,2,0.111111111111111,3.10526315789474,2,1.0,0.298245614035088,ReadingArea_rsl2-rcl44-esl100-rsm2-rcm11-esm310-rsr2-rcr100-esr29,exr/ReadingArea_rsl2-rcl44-esl100-rsm2-rcm11-esm310-rsr2-rcr100-esr29.exr,ReadingArea_rsl2-rcl44-esl100-rsm2-rcm11-esm310-rsr2-rcr100-esr29.npz,,,,,0,10,10,349,,right,red,2.78,97.3367691040039,97.78512406349182,1,1,4,brightness,readingArea,realistic,75,2023-03-24_14h44.49.753,tripletExp_regina_11082022,2022.2.4,120.07259943775514,
3,4,13,2,0.444444444444444,0.298245614035088,2,0.694444444444444,0.298245614035088,2,0.111111111111111,3.10526315789474,ReadingArea_rsl2-rcl44-esl29-rsm2-rcm69-esm29-rsr2-rcr11-esr310,exr/ReadingArea_rsl2-rcl44-esl29-rsm2-rcm69-esm29-rsr2-rcr11-esr310.exr,ReadingArea_rsl2-rcl44-esl29-rsm2-rcm69-esm29-rsr2-rcr11-esr310.npz,,,,,0,11,11,63,,left,green,4.66,103.0291941165924,103.45439195632936,1,1,4,brightness,readingArea,realistic,75,2023-03-24_14h44.49.753,tripletExp_regina_11082022,2022.2.4,120.07259943775514,
2,1,14,2,0.25,0.298245614035088,2,0.111111111111111,0.298245614035088,2,0.25,3.10526315789474,ReadingArea_rsl2-rcl25-esl29-rsm2-rcm11-esm29-rsr2-rcr25-esr310,exr/ReadingArea_rsl2-rcl25-esl29-rsm2-rcm11-esm29-rsr2-rcr25-esr310.exr,ReadingArea_rsl2-rcl25-esl29-rsm2-rcm11-esm29-rsr2-rcr25-esr310.npz,,,,,0,12,12,59,,left,green,0.87,105.1453320980072,105.54697895050047,1,1,4,brightness,readingArea,realistic,75,2023-03-24_14h44.49.753,tripletExp_regina_11082022,2022.2.4,120.07259943775514,
1,5,7,2,0.111111111111111,0.298245614035088,2,1.0,0.298245614035088,2,0.111111111111111,1.0,ReadingArea_rsl2-rcl11-esl29-rsm2-rcm100-esm29-rsr2-rcr11-esr100,exr/ReadingArea_rsl2-rcl11-esl29-rsm2-rcm100-esm29-rsr2-rcr11-esr100.exr,ReadingArea_rsl2-rcl11-esl29-rsm2-rcm100-esm29-rsr2-rcr11-esr100.npz,,,,,0,13,13,197,,right,red,0.99,107.25921297073364,107.6429750919342,1,1,4,brightness,readingArea,realistic,75,2023-03-24_14h44.49.753,tripletExp_regina_11082022,2022.2.4,120.07259943775514,
8,13,3,2,0.25,1.0,2,0.111111111111111,3.10526315789474,2,0.444444444444444,0.298245614035088,ReadingArea_rsl2-rcl25-esl100-rsm2-rcm11-esm310-rsr2-rcr44-esr29,exr/ReadingArea_rsl2-rcl25-esl100-rsm2-rcm11-esm310-rsr2-rcr44-esr29.exr,ReadingArea_rsl2-rcl25-esl100-rsm2-rcm11-esm310-rsr2-rcr44-esr29.npz,,,,,0,14,14,553,,left,green,2.25,111.15336894989014,111.56036806106567,1,1,4,brightness,readingArea,realistic,75,2023-03-24_14h44.49.753,tripletExp_regina_11082022,2022.2.4,120.07259943775514,
12,3,13,2,0.027777777777778,3.10526315789474,2,0.444444444444444,0.298245614035088,2,0.111111111111111,3.10526315789474,ReadingArea_rsl2-rcl2-esl310-rsm2-rcm44-esm29-rsr2-rcr11-esr310,exr/ReadingArea_rsl2-rcl2-esl310-rsm2-rcm44-esm29-rsr2-rcr11-esr310.exr,ReadingArea_rsl2-rcl2-esl310-rsm2-rcm44-esm29-rsr2-rcr11-esr310.npz,,,,,0,15,15,383,,left,green,0.84,113.27751898765564,113.63930797576904,1,1,4,brightness,readingArea,realistic,75,2023-03-24_14h44.49.753,tripletExp_regina_11082022,2022.2.4,120.07259943775514,
9,3,0,2,0.444444444444444,1.0,2,0.444444444444444,0.298245614035088,2,0.027777777777778,0.298245614035088,ReadingArea_rsl2-rcl44-esl100-rsm2-rcm44-esm29-rsr2-rcr2-esr29,exr/ReadingArea_rsl2-rcl44-esl100-rsm2-rcm44-esm29-rsr2-rcr2-esr29.exr,ReadingArea_rsl2-rcl44-esl100-rsm2-rcm44-esm29-rsr2-rcr2-esr29.npz,,,,,0,16,16,120,,left,green,2.31,117.11750197410583,,1,1,4,brightness,readingArea,realistic,75,2023-03-24_14h44.49.753,tripletExp_regina_11082022,2022.2.4,120.07259943775514,
11,2,4,2,1.0,1.0,2,0.25,0.298245614035088,2,0.694444444444444,0.298245614035088,ReadingArea_rsl2-rcl100-esl100-rsm2-rcm25-esm29-rsr2-rcr69-esr29,exr/ReadingArea_rsl2-rcl100-esl100-rsm2-rcm25-esm29-rsr2-rcr69-esr29.exr,ReadingArea_rsl2-rcl100-esl100-rsm2-rcm25-esm29-rsr2-rcr69-esr29.npz,,,,,0,17,17,359,,right,red,0.84,119.24568510055542,119.61467909812929,1,1,4,brightness,readingArea,realistic,75,2023-03-24_14h44.49.753,tripletExp_regina_11082022,2022.2.4,120.07259943775514,
6,1,2,2,0.027777777777778,1.0,2,0.111111111111111,0.298245614035088,2,0.25,0.298245614035088,ReadingArea_rsl2-rcl2-esl100-rsm2-rcm11-esm29-rsr2-rcr25-esr29,exr/ReadingArea_rsl2-rcl2-esl100-rsm2-rcm11-esm29-rsr2-rcr25-esr29.exr,ReadingArea_rsl2-rcl2-esl100-rsm2-rcm11-esm29-rsr2-rcr25-esr29.npz,,,,,0,18,18,68,,left,green,0.95,121.32115697860718,121.69469213485718,1,1,4,brightness,readingArea,realistic,75,2023-03-24_14h44.49.753,tripletExp_regina_11082022,2022.2.4,120.07259943775514,
5,3,2,2,1.0,0.298245614035088,2,0.444444444444444,0.298245614035088,2,0.25,0.298245614035088,ReadingArea_rsl2-rcl100-esl29-rsm2-rcm44-esm29-rsr2-rcr25-esr29,exr/ReadingArea_rsl2-rcl100-esl29-rsm2-rcm44-esm29-rsr2-rcr25-esr29.exr,ReadingArea_rsl2-rcl100-esl29-rsm2-rcm44-esm29-rsr2-rcr25-esr29.npz,,,,,0,19,19,143,,right,red,2.24,125.19353604316711,,1,1,4,brightness,readingArea,realistic,75,2023-03-24_14h44.49.753,tripletExp_regina_11082022,2022.2.4,120.07259943775514,
2,4,14,2,0.25,0.298245614035088,2,0.694444444444444,0.298245614035088,2,0.25,3.10526315789474,ReadingArea_rsl2-rcl25-esl29-rsm2-rcm69-esm29-rsr2-rcr25-esr310,exr/ReadingArea_rsl2-rcl25-esl29-rsm2-rcm69-esm29-rsr2-rcr25-esr310.exr,ReadingArea_rsl2-rcl25-esl29-rsm2-rcm69-esm29-rsr2-rcr25-esr310.npz,,,,,0,20,20,356,,left,green,0.83,127.36933994293211,127.73799800872804,1,1,4,brightness,readingArea,realistic,75,2023-03-24_14h44.49.753,tripletExp_regina_11082022,2022.2.4,120.07259943775514,
1,11,12,2,0.111111111111111,0.298245614035088,2,1.0,1.0,2,0.027777777777778,3.10526315789474,ReadingArea_rsl2-rcl11-esl29-rsm2-rcm100-esm100-rsr2-rcr2-esr310,exr/ReadingArea_rsl2-rcl11-esl29-rsm2-rcm100-esm100-rsr2-rcr2-esr310.exr,ReadingArea_rsl2-rcl11-esl29-rsm2-rcm100-esm100-rsr2-rcr2-esr310.npz,,,,,0,21,21,288,,right,red,2.53,131.20914506912231,131.66654014587402,1,1,4,brightness,readingArea,realistic,75,2023-03-24_14h44.49.753,tripletExp_regina_11082022,2022.2.4,120.07259943775514,
11,13,8,2,1.0,1.0,2,0.111111111111111,3.10526315789474,2,0.25,1.0,ReadingArea_rsl2-rcl100-esl100-rsm2-rcm11-esm310-rsr2-rcr25-esr100,exr/ReadingArea_rsl2-rcl100-esl100-rsm2-rcm11-esm310-rsr2-rcr25-esr100.exr,ReadingArea_rsl2-rcl100-esl100-rsm2-rcm11-esm310-rsr2-rcr25-esr100.npz,,,,,0,22,22,198,,right,red,0.85,133.36637997627258,133.7431960105896,1,1,4,brightness,readingArea,realistic,75,2023-03-24_14h44.49.753,tripletExp_regina_11082022,2022.2.4,120.07259943775514,
0,4,6,2,0.027777777777778,0.298245614035088,2,0.694444444444444,0.298245614035088,2,0.027777777777778,1.0,ReadingArea_rsl2-rcl2-esl29-rsm2-rcm69-esm29-rsr2-rcr2-esr100,exr/ReadingArea_rsl2-rcl2-esl29-rsm2-rcm69-esm29-rsr2-rcr2-esr100.exr,ReadingArea_rsl2-rcl2-esl29-rsm2-rcm69-esm29-rsr2-rcr2-esr100.npz,,,,,0,23,23,49,,right,red,2.2,137.20300602912903,,1,1,4,brightness,readingArea,realistic,75,2023-03-24_14h44.49.753,tripletExp_regina_11082022,2022.2.4,120.07259943775514,
5,14,11,2,1.0,0.298245614035088,2,0.25,3.10526315789474,2,1.0,1.0,ReadingArea_rsl2-rcl100-esl29-rsm2-rcm25-esm310-rsr2-rcr100-esr100,exr/ReadingArea_rsl2-rcl100-esl29-rsm2-rcm25-esm310-rsr2-rcr100-esr100.exr,ReadingArea_rsl2-rcl100-esl29-rsm2-rcm25-esm310-rsr2-rcr100-esr100.npz,,,,,0,24,24,98,,right,red,2.66,141.09466409683228,,1,1,4,brightness,readingArea,realistic,75,2023-03-24_14h44.49.753,tripletExp_regina_11082022,2022.2.4,120.07259943775514,
13,11,2,2,0.111111111111111,3.10526315789474,2,1.0,1.0,2,0.25,0.298245614035088,ReadingArea_rsl2-rcl11-esl310-rsm2-rcm100-esm100-rsr2-rcr25-esr29,exr/ReadingArea_rsl2-rcl11-esl310-rsm2-rcm100-esm100-rsr2-rcr25-esr29.exr,ReadingArea_rsl2-rcl11-esl310-rsm2-rcm100-esm100-rsr2-rcr25-esr29.npz,,,,,0,25,25,55,,left,green,0.78,143.1960251331329,143.57770609855652,1,1,4,brightness,readingArea,realistic,75,2023-03-24_14h44.49.753,tripletExp_regina_11082022,2022.2.4,120.07259943775514,
1,12,11,2,0.111111111111111,0.298245614035088,2,0.027777777777778,3.10526315789474,2,1.0,1.0,ReadingArea_rsl2-rcl11-esl29-rsm2-rcm2-esm310-rsr2-rcr100-esr100,exr/ReadingArea_rsl2-rcl11-esl29-rsm2-rcm2-esm310-rsr2-rcr100-esr100.exr,ReadingArea_rsl2-rcl11-esl29-rsm2-rcm2-esm310-rsr2-rcr100-esr100.npz,,,,,0,26,26,178,,left,green,0.85,145.2977249622345,145.66236114501953,1,1,4,brightness,readingArea,realistic,75,2023-03-24_14h44.49.753,tripletExp_regina_11082022,2022.2.4,120.07259943775514,
0,5,1,2,0.027777777777778,0.298245614035088,2,1.0,0.298245614035088,2,0.111111111111111,0.298245614035088,ReadingArea_rsl2-rcl2-esl29-rsm2-rcm100-esm29-rsr2-rcr11-esr29,exr/ReadingArea_rsl2-rcl2-esl29-rsm2-rcm100-esm29-rsr2-rcr11-esr29.exr,ReadingArea_rsl2-rcl2-esl29-rsm2-rcm100-esm29-rsr2-rcr11-esr29.npz,,,,,0,27,27,367,,right,red,0.88,147.34895300865173,147.7454481124878,1,1,4,brightness,readingArea,realistic,75,2023-03-24_14h44.49.753,tripletExp_regina_11082022,2022.2.4,120.07259943775514,
14,3,2,2,0.25,3.10526315789474,2,0.444444444444444,0.298245614035088,2,0.25,0.298245614035088,ReadingArea_rsl2-rcl25-esl310-rsm2-rcm44-esm29-rsr2-rcr25-esr29,exr/ReadingArea_rsl2-rcl25-esl310-rsm2-rcm44-esm29-rsr2-rcr25-esr29.exr,ReadingArea_rsl2-rcl25-esl310-rsm2-rcm44-esm29-rsr2-rcr25-esr29.npz,,,,,0,28,28,52,,right,red,0.69,149.44092202186584,149.8059720993042,1,1,4,brightness,readingArea,realistic,75,2023-03-24_14h44.49.753,tripletExp_regina_11082022,2022.2.4,120.07259943775514,
14,5,11,2,0.25,3.10526315789474,2,1.0,0.298245614035088,2,1.0,1.0,ReadingArea_rsl2-rcl25-esl310-rsm2-rcm100-esm29-rsr2-rcr100-esr100,exr/ReadingArea_rsl2-rcl25-esl310-rsm2-rcm100-esm29-rsr2-rcr100-esr100.exr,ReadingArea_rsl2-rcl25-esl310-rsm2-rcm100-esm29-rsr2-rcr100-esr100.npz,,,,,0,29,29,161,,left,green,1.1,151.50254702568054,151.90750098228455,1,1,4,brightness,readingArea,realistic,75,2023-03-24_14h44.49.753,tripletExp_regina_11082022,2022.2.4,120.07259943775514,
6,2,12,2,0.027777777777778,1.0,2,0.25,0.298245614035088,2,0.027777777777778,3.10526315789474,ReadingArea_rsl2-rcl2-esl100-rsm2-rcm25-esm29-rsr2-rcr2-esr310,exr/ReadingArea_rsl2-rcl2-esl100-rsm2-rcm25-esm29-rsr2-rcr2-esr310.exr,ReadingArea_rsl2-rcl2-esl100-rsm2-rcm25-esm29-rsr2-rcr2-esr310.npz,,,,,0,30,30,480,,right,red,1.09,153.6007800102234,153.9653241634369,1,1,4,brightness,readingArea,realistic,75,2023-03-24_14h44.49.753,tripletExp_regina_11082022,2022.2.4,120.07259943775514,
13,9,6,2,0.111111111111111,3.10526315789474,2,0.444444444444444,1.0,2,0.027777777777778,1.0,ReadingArea_rsl2-rcl11-esl310-rsm2-rcm44-esm100-rsr2-rcr2-esr100,exr/ReadingArea_rsl2-rcl11-esl310-rsm2-rcm44-esm100-rsr2-rcr2-esr100.exr,ReadingArea_rsl2-rcl11-esl310-rsm2-rcm44-esm100-rsr2-rcr2-esr100.npz,,,,,0,31,31,19,,left,green,0.7,155.67024111747742,156.02390909194946,1,1,4,brightness,readingArea,realistic,75,2023-03-24_14h44.49.753,tripletExp_regina_11082022,2022.2.4,120.07259943775514,
13,4,12,2,0.111111111111111,3.10526315789474,2,0.694444444444444,0.298245614035088,2,0.027777777777778,3.10526315789474,ReadingArea_rsl2-rcl11-esl310-rsm2-rcm69-esm29-rsr2-rcr2-esr310,exr/ReadingArea_rsl2-rcl11-esl310-rsm2-rcm69-esm29-rsr2-rcr2-esr310.exr,ReadingArea_rsl2-rcl11-esl310-rsm2-rcm69-esm29-rsr2-rcr2-esr310.npz,,,,,0,32,32,122,,left,green,0.9,157.74297308921814,158.09650206565857,1,1,4,brightness,readingArea,realistic,75,2023-03-24_14h44.49.753,tripletExp_regina_11082022,2022.2.4,120.07259943775514,
14,10,5,2,0.25,3.10526315789474,2,0.694444444444444,1.0,2,1.0,0.298245614035088,ReadingArea_rsl2-rcl25-esl310-rsm2-rcm69-esm100-rsr2-rcr100-esr29,exr/ReadingArea_rsl2-rcl25-esl310-rsm2-rcm69-esm100-rsr2-rcr100-esr29.exr,ReadingArea_rsl2-rcl25-esl310-rsm2-rcm69-esm100-rsr2-rcr100-esr29.npz,,,,,0,33,33,96,,left,green,0.98,159.78473114967346,160.16843008995056,1,1,4,brightness,readingArea,realistic,75,2023-03-24_14h44.49.753,tripletExp_regina_11082022,2022.2.4,120.07259943775514,
13,6,8,2,0.111111111111111,3.10526315789474,2,0.027777777777778,1.0,2,0.25,1.0,ReadingArea_rsl2-rcl11-esl310-rsm2-rcm2-esm100-rsr2-rcr25-esr100,exr/ReadingArea_rsl2-rcl11-esl310-rsm2-rcm2-esm100-rsr2-rcr25-esr100.exr,ReadingArea_rsl2-rcl11-esl310-rsm2-rcm2-esm100-rsr2-rcr25-esr100.npz,,,,,0,34,34,340,,right,red,0.97,161.8892970085144,,1,1,4,brightness,readingArea,realistic,75,2023-03-24_14h44.49.753,tripletExp_regina_11082022,2022.2.4,120.07259943775514,
14,0,3,2,0.25,3.10526315789474,2,0.027777777777778,0.298245614035088,2,0.444444444444444,0.298245614035088,ReadingArea_rsl2-rcl25-esl310-rsm2-rcm2-esm29-rsr2-rcr44-esr29,exr/ReadingArea_rsl2-rcl25-esl310-rsm2-rcm2-esm29-rsr2-rcr44-esr29.exr,ReadingArea_rsl2-rcl25-esl310-rsm2-rcm2-esm29-rsr2-rcr44-esr29.npz,,,,,0,35,35,75,,right,red,0.71,163.9721291065216,164.3341121673584,1,1,4,brightness,readingArea,realistic,75,2023-03-24_14h44.49.753,tripletExp_regina_11082022,2022.2.4,120.07259943775514,
13,8,14,2,0.111111111111111,3.10526315789474,2,0.25,1.0,2,0.25,3.10526315789474,ReadingArea_rsl2-rcl11-esl310-rsm2-rcm25-esm100-rsr2-rcr25-esr310,exr/ReadingArea_rsl2-rcl11-esl310-rsm2-rcm25-esm100-rsr2-rcr25-esr310.exr,ReadingArea_rsl2-rcl11-esl310-rsm2-rcm25-esm100-rsr2-rcr25-esr310.npz,,,,,0,36,36,345,,left,green,0.84,166.05197501182556,166.43190097808838,1,1,4,brightness,readingArea,realistic,75,2023-03-24_14h44.49.753,tripletExp_regina_11082022,2022.2.4,120.07259943775514,
12,13,10,2,0.027777777777778,3.10526315789474,2,0.111111111111111,3.10526315789474,2,0.694444444444444,1.0,ReadingArea_rsl2-rcl2-esl310-rsm2-rcm11-esm310-rsr2-rcr69-esr100,exr/ReadingArea_rsl2-rcl2-esl310-rsm2-rcm11-esm310-rsr2-rcr69-esr100.exr,ReadingArea_rsl2-rcl2-esl310-rsm2-rcm11-esm310-rsr2-rcr69-esr100.npz,,,,,0,37,37,295,,right,red,2.78,169.90024709701538,170.2614049911499,1,1,4,brightness,readingArea,realistic,75,2023-03-24_14h44.49.753,tripletExp_regina_11082022,2022.2.4,120.07259943775514,
0,9,14,2,0.027777777777778,0.298245614035088,2,0.444444444444444,1.0,2,0.25,3.10526315789474,ReadingArea_rsl2-rcl2-esl29-rsm2-rcm44-esm100-rsr2-rcr25-esr310,exr/ReadingArea_rsl2-rcl2-esl29-rsm2-rcm44-esm100-rsr2-rcr25-esr310.exr,ReadingArea_rsl2-rcl2-esl29-rsm2-rcm44-esm100-rsr2-rcr25-esr310.npz,,,,,0,38,38,433,,right,red,0.79,171.96179294586182,172.35216403007507,1,1,4,brightness,readingArea,realistic,75,2023-03-24_14h44.49.753,tripletExp_regina_11082022,2022.2.4,120.07259943775514,
2,0,3,2,0.25,0.298245614035088,2,0.027777777777778,0.298245614035088,2,0.444444444444444,0.298245614035088,ReadingArea_rsl2-rcl25-esl29-rsm2-rcm2-esm29-rsr2-rcr44-esr29,exr/ReadingArea_rsl2-rcl25-esl29-rsm2-rcm2-esm29-rsr2-rcr44-esr29.exr,ReadingArea_rsl2-rcl25-esl29-rsm2-rcm2-esm29-rsr2-rcr44-esr29.npz,,,,,0,39,39,338,,left,green,1.11,174.0487380027771,174.44459295272827,1,1,4,brightness,readingArea,realistic,75,2023-03-24_14h44.49.753,tripletExp_regina_11082022,2022.2.4,120.07259943775514,
10,3,11,2,0.694444444444444,1.0,2,0.444444444444444,0.298245614035088,2,1.0,1.0,ReadingArea_rsl2-rcl69-esl100-rsm2-rcm44-esm29-rsr2-rcr100-esr100,exr/ReadingArea_rsl2-rcl69-esl100-rsm2-rcm44-esm29-rsr2-rcr100-esr100.exr,ReadingArea_rsl2-rcl69-esl100-rsm2-rcm44-esm29-rsr2-rcr100-esr100.npz,,,,,0,40,40,485,,left,green,1.03,176.15321612358093,176.51097893714905,1,1,4,brightness,readingArea,realistic,75,2023-03-24_14h44.49.753,tripletExp_regina_11082022,2022.2.4,120.07259943775514,
8,1,3,2,0.25,1.0,2,0.111111111111111,0.298245614035088,2,0.444444444444444,0.298245614035088,ReadingArea_rsl2-rcl25-esl100-rsm2-rcm11-esm29-rsr2-rcr44-esr29,exr/ReadingArea_rsl2-rcl25-esl100-rsm2-rcm11-esm29-rsr2-rcr44-esr29.exr,ReadingArea_rsl2-rcl25-esl100-rsm2-rcm11-esm29-rsr2-rcr44-esr29.npz,,,,,0,41,41,490,,right,red,0.9,178.20568799972534,178.57095503807068,1,1,4,brightness,readingArea,realistic,75,2023-03-24_14h44.49.753,tripletExp_regina_11082022,2022.2.4,120.07259943775514,
2,3,4,2,0.25,0.298245614035088,2,0.444444444444444,0.298245614035088,2,0.694444444444444,0.298245614035088,ReadingArea_rsl2-rcl25-esl29-rsm2-rcm44-esm29-rsr2-rcr69-esr29,exr/ReadingArea_rsl2-rcl25-esl29-rsm2-rcm44-esm29-rsr2-rcr69-esr29.exr,ReadingArea_rsl2-rcl25-esl29-rsm2-rcm44-esm29-rsr2-rcr69-esr29.npz,,,,,0,42,42,61,,right,red,1.13,180.27555394172668,,1,1,4,brightness,readingArea,realistic,75,2023-03-24_14h44.49.753,tripletExp_regina_11082022,2022.2.4,120.07259943775514,
1,8,12,2,0.111111111111111,0.298245614035088,2,0.25,1.0,2,0.027777777777778,3.10526315789474,ReadingArea_rsl2-rcl11-esl29-rsm2-rcm25-esm100-rsr2-rcr2-esr310,exr/ReadingArea_rsl2-rcl11-esl29-rsm2-rcm25-esm100-rsr2-rcr2-esr310.exr,ReadingArea_rsl2-rcl11-esl29-rsm2-rcm25-esm100-rsr2-rcr2-esr310.npz,,,,,0,43,43,156,,right,red,1.29,182.36601614952087,182.7687361240387,1,1,4,brightness,readingArea,realistic,75,2023-03-24_14h44.49.753,tripletExp_regina_11082022,2022.2.4,120.07259943775514,
6,11,1,2,0.027777777777778,1.0,2,1.0,1.0,2,0.111111111111111,0.298245614035088,ReadingArea_rsl2-rcl2-esl100-rsm2-rcm100-esm100-rsr2-rcr11-esr29,exr/ReadingArea_rsl2-rcl2-esl100-rsm2-rcm100-esm100-rsr2-rcr11-esr29.exr,ReadingArea_rsl2-rcl2-esl100-rsm2-rcm100-esm100-rsr2-rcr11-esr29.npz,,,,,0,44,44,436,,left,green,2.92,186.2303481101989,186.6105070114136,1,1,4,brightness,readingArea,realistic,75,2023-03-24_14h44.49.753,tripletExp_regina_11082022,2022.2.4,120.07259943775514,
0,8,9,2,0.027777777777778,0.298245614035088,2,0.25,1.0,2,0.444444444444444,1.0,ReadingArea_rsl2-rcl2-esl29-rsm2-rcm25-esm100-rsr2-rcr44-esr100,exr/ReadingArea_rsl2-rcl2-esl29-rsm2-rcm25-esm100-rsr2-rcr44-esr100.exr,ReadingArea_rsl2-rcl2-esl29-rsm2-rcm25-esm100-rsr2-rcr44-esr100.npz,,,,,0,45,45,541,,right,red,1.02,188.3098020553589,,1,1,4,brightness,readingArea,realistic,75,2023-03-24_14h44.49.753,tripletExp_regina_11082022,2022.2.4,120.07259943775514,
10,7,3,2,0.694444444444444,1.0,2,0.111111111111111,1.0,2,0.444444444444444,0.298245614035088,ReadingArea_rsl2-rcl69-esl100-rsm2-rcm11-esm100-rsr2-rcr44-esr29,exr/ReadingArea_rsl2-rcl69-esl100-rsm2-rcm11-esm100-rsr2-rcr44-esr29.exr,ReadingArea_rsl2-rcl69-esl100-rsm2-rcm11-esm100-rsr2-rcr44-esr29.npz,,,,,0,46,46,582,,right,red,0.73,190.3894000053405,190.75148797035217,1,1,4,brightness,readingArea,realistic,75,2023-03-24_14h44.49.753,tripletExp_regina_11082022,2022.2.4,120.07259943775514,
0,4,7,2,0.027777777777778,0.298245614035088,2,0.694444444444444,0.298245614035088,2,0.111111111111111,1.0,ReadingArea_rsl2-rcl2-esl29-rsm2-rcm69-esm29-rsr2-rcr11-esr100,exr/ReadingArea_rsl2-rcl2-esl29-rsm2-rcm69-esm29-rsr2-rcr11-esr100.exr,ReadingArea_rsl2-rcl2-esl29-rsm2-rcm69-esm29-rsr2-rcr11-esr100.npz,,,,,0,47,47,200,,right,red,0.96,192.4405369758606,192.81611609458923,1,1,4,brightness,readingArea,realistic,75,2023-03-24_14h44.49.753,tripletExp_regina_11082022,2022.2.4,120.07259943775514,
13,0,4,2,0.111111111111111,3.10526315789474,2,0.027777777777778,0.298245614035088,2,0.694444444444444,0.298245614035088,ReadingArea_rsl2-rcl11-esl310-rsm2-rcm2-esm29-rsr2-rcr69-esr29,exr/ReadingArea_rsl2-rcl11-esl310-rsm2-rcm2-esm29-rsr2-rcr69-esr29.exr,ReadingArea_rsl2-rcl11-esl310-rsm2-rcm2-esm29-rsr2-rcr69-esr29.npz,,,,,0,48,48,270,,right,red,1.07,194.5249891281128,194.89489006996155,1,1,4,brightness,readingArea,realistic,75,2023-03-24_14h44.49.753,tripletExp_regina_11082022,2022.2.4,120.07259943775514,
11,5,1,2,1.0,1.0,2,1.0,0.298245614035088,2,0.111111111111111,0.298245614035088,ReadingArea_rsl2-rcl100-esl100-rsm2-rcm100-esm29-rsr2-rcr11-esr29,exr/ReadingArea_rsl2-rcl100-esl100-rsm2-rcm100-esm29-rsr2-rcr11-esr29.exr,ReadingArea_rsl2-rcl100-esl100-rsm2-rcm100-esm29-rsr2-rcr11-esr29.npz,,,,,0,49,49,48,,left,green,0.92,196.59312915802,196.96063995361328,1,1,4,brightness,readingArea,realistic,75,2023-03-24_14h44.49.753,tripletExp_regina_11082022,2022.2.4,120.07259943775514,
3,6,10,2,0.444444444444444,0.298245614035088,2,0.027777777777778,1.0,2,0.694444444444444,1.0,ReadingArea_rsl2-rcl44-esl29-rsm2-rcm2-esm100-rsr2-rcr69-esr100,exr/ReadingArea_rsl2-rcl44-esl29-rsm2-rcm2-esm100-rsr2-rcr69-esr100.exr,ReadingArea_rsl2-rcl44-esl29-rsm2-rcm2-esm100-rsr2-rcr69-esr100.npz,,,,,0,50,50,138,,left,green,0.69,198.67719101905823,199.11202597618103,1,1,4,brightness,readingArea,realistic,75,2023-03-24_14h44.49.753,tripletExp_regina_11082022,2022.2.4,120.07259943775514,
7,5,1,2,0.111111111111111,1.0,2,1.0,0.298245614035088,2,0.111111111111111,0.298245614035088,ReadingArea_rsl2-rcl11-esl100-rsm2-rcm100-esm29-rsr2-rcr11-esr29,exr/ReadingArea_rsl2-rcl11-esl100-rsm2-rcm100-esm29-rsr2-rcr11-esr29.exr,ReadingArea_rsl2-rcl11-esl100-rsm2-rcm100-esm29-rsr2-rcr11-esr29.npz,,,,,0,51,51,513,,left,green,1.13,200.8166620731353,201.1950271129608,1,1,4,brightness,readingArea,realistic,75,2023-03-24_14h44.49.753,tripletExp_regina_11082022,2022.2.4,120.07259943775514,
3,9,10,2,0.444444444444444,0.298245614035088,2,0.444444444444444,1.0,2,0.694444444444444,1.0,ReadingArea_rsl2-rcl44-esl29-rsm2-rcm44-esm100-rsr2-rcr69-esr100,exr/ReadingArea_rsl2-rcl44-esl29-rsm2-rcm44-esm100-rsr2-rcr69-esr100.exr,ReadingArea_rsl2-rcl44-esl29-rsm2-rcm44-esm100-rsr2-rcr69-esr100.npz,,,,,0,52,52,581,,right,red,0.99,202.9017150402069,203.2648179531097,1,1,4,brightness,readingArea,realistic,75,2023-03-24_14h44.49.753,tripletExp_regina_11082022,2022.2.4,120.07259943775514,
5,9,0,2,1.0,0.298245614035088,2,0.444444444444444,1.0,2,0.027777777777778,0.298245614035088,ReadingArea_rsl2-rcl100-esl29-rsm2-rcm44-esm100-rsr2-rcr2-esr29,exr/ReadingArea_rsl2-rcl100-esl29-rsm2-rcm44-esm100-rsr2-rcr2-esr29.exr,ReadingArea_rsl2-rcl100-esl29-rsm2-rcm44-esm100-rsr2-rcr2-esr29.npz,,,,,0,53,53,575,,left,green,0.64,204.9555051326752,205.31550407409668,1,1,4,brightness,readingArea,realistic,75,2023-03-24_14h44.49.753,tripletExp_regina_11082022,2022.2.4,120.07259943775514,
5,1,4,2,1.0,0.298245614035088,2,0.111111111111111,0.298245614035088,2,0.694444444444444,0.298245614035088,ReadingArea_rsl2-rcl100-esl29-rsm2-rcm11-esm29-rsr2-rcr69-esr29,exr/ReadingArea_rsl2-rcl100-esl29-rsm2-rcm11-esm29-rsr2-rcr69-esr29.exr,ReadingArea_rsl2-rcl100-esl29-rsm2-rcm11-esm29-rsr2-rcr69-esr29.npz,,,,,0,54,54,287,,right,red,1.06,207.02031111717224,207.3919279575348,1,1,4,brightness,readingArea,realistic,75,2023-03-24_14h44.49.753,tripletExp_regina_11082022,2022.2.4,120.07259943775514,
5,4,10,2,1.0,0.298245614035088,2,0.694444444444444,0.298245614035088,2,0.694444444444444,1.0,ReadingArea_rsl2-rcl100-esl29-rsm2-rcm69-esm29-rsr2-rcr69-esr100,exr/ReadingArea_rsl2-rcl100-esl29-rsm2-rcm69-esm29-rsr2-rcr69-esr100.exr,ReadingArea_rsl2-rcl100-esl29-rsm2-rcm69-esm29-rsr2-rcr69-esr100.npz,,,,,0,55,55,536,,left,green,0.73,209.09769010543823,209.4852349758148,1,1,4,brightness,readingArea,realistic,75,2023-03-24_14h44.49.753,tripletExp_regina_11082022,2022.2.4,120.07259943775514,
12,11,6,2,0.027777777777778,3.10526315789474,2,1.0,1.0,2,0.027777777777778,1.0,ReadingArea_rsl2-rcl2-esl310-rsm2-rcm100-esm100-rsr2-rcr2-esr100,exr/ReadingArea_rsl2-rcl2-esl310-rsm2-rcm100-esm100-rsr2-rcr2-esr100.exr,ReadingArea_rsl2-rcl2-esl310-rsm2-rcm100-esm100-rsr2-rcr2-esr100.npz,,,,,0,56,56,163,,left,green,0.86,211.18826913833607,,1,1,4,brightness,readingArea,realistic,75,2023-03-24_14h44.49.753,tripletExp_regina_11082022,2022.2.4,120.07259943775514,
11,5,2,2,1.0,1.0,2,1.0,0.298245614035088,2,0.25,0.298245614035088,ReadingArea_rsl2-rcl100-esl100-rsm2-rcm100-esm29-rsr2-rcr25-esr29,exr/ReadingArea_rsl2-rcl100-esl100-rsm2-rcm100-esm29-rsr2-rcr25-esr29.exr,ReadingArea_rsl2-rcl100-esl100-rsm2-rcm100-esm29-rsr2-rcr25-esr29.npz,,,,,0,57,57,596,,right,red,2.56,215.048495054245,215.4192590713501,1,1,4,brightness,readingArea,realistic,75,2023-03-24_14h44.49.753,tripletExp_regina_11082022,2022.2.4,120.07259943775514,
9,12,0,2,0.444444444444444,1.0,2,0.027777777777778,3.10526315789474,2,0.027777777777778,0.298245614035088,ReadingArea_rsl2-rcl44-esl100-rsm2-rcm2-esm310-rsr2-rcr2-esr29,exr/ReadingArea_rsl2-rcl44-esl100-rsm2-rcm2-esm310-rsr2-rcr2-esr29.exr,ReadingArea_rsl2-rcl44-esl100-rsm2-rcm2-esm310-rsr2-rcr2-esr29.npz,,,,,0,58,58,175,,right,red,2.33,218.89768815040588,219.2887270450592,1,1,4,brightness,readingArea,realistic,75,2023-03-24_14h44.49.753,tripletExp_regina_11082022,2022.2.4,120.07259943775514,
10,13,1,2,0.694444444444444,1.0,2,0.111111111111111,3.10526315789474,2,0.111111111111111,0.298245614035088,ReadingArea_rsl2-rcl69-esl100-rsm2-rcm11-esm310-rsr2-rcr11-esr29,exr/ReadingArea_rsl2-rcl69-esl100-rsm2-rcm11-esm310-rsr2-rcr11-esr29.exr,ReadingArea_rsl2-rcl69-esl100-rsm2-rcm11-esm310-rsr2-rcr11-esr29.npz,,,,,0,59,59,149,,left,green,1.09,220.98851203918457,221.35180115699768,1,1,4,brightness,readingArea,realistic,75,2023-03-24_14h44.49.753,tripletExp_regina_11082022,2022.2.4,120.07259943775514,
4,0,1,2,0.694444444444444,0.298245614035088,2,0.027777777777778,0.298245614035088,2,0.111111111111111,0.298245614035088,ReadingArea_rsl2-rcl69-esl29-rsm2-rcm2-esm29-rsr2-rcr11-esr29,exr/ReadingArea_rsl2-rcl69-esl29-rsm2-rcm2-esm29-rsr2-rcr11-esr29.exr,ReadingArea_rsl2-rcl69-esl29-rsm2-rcm2-esm29-rsr2-rcr11-esr29.npz,,,,,0,60,60,173,,right,red,0.81,223.0480260848999,223.4241509437561,1,1,4,brightness,readingArea,realistic,75,2023-03-24_14h44.49.753,tripletExp_regina_11082022,2022.2.4,120.07259943775514,
10,1,6,2,0.694444444444444,1.0,2,0.111111111111111,0.298245614035088,2,0.027777777777778,1.0,ReadingArea_rsl2-rcl69-esl100-rsm2-rcm11-esm29-rsr2-rcr2-esr100,exr/ReadingArea_rsl2-rcl69-esl100-rsm2-rcm11-esm29-rsr2-rcr2-esr100.exr,ReadingArea_rsl2-rcl69-esl100-rsm2-rcm11-esm29-rsr2-rcr2-esr100.npz,,,,,0,61,61,160,,right,red,0.71,225.1343281269073,225.54513311386108,1,1,4,brightness,readingArea,realistic,75,2023-03-24_14h44.49.753,tripletExp_regina_11082022,2022.2.4,120.07259943775514,
12,9,14,2,0.027777777777778,3.10526315789474,2,0.444444444444444,1.0,2,0.25,3.10526315789474,ReadingArea_rsl2-rcl2-esl310-rsm2-rcm44-esm100-rsr2-rcr25-esr310,exr/ReadingArea_rsl2-rcl2-esl310-rsm2-rcm44-esm100-rsr2-rcr25-esr310.exr,ReadingArea_rsl2-rcl2-esl310-rsm2-rcm44-esm100-rsr2-rcr25-esr310.npz,,,,,0,62,62,123,,right,red,1.13,227.23906993865967,227.60457396507263,1,1,4,brightness,readingArea,realistic,75,2023-03-24_14h44.49.753,tripletExp_regina_11082022,2022.2.4,120.07259943775514,
0,8,14,2,0.027777777777778,0.298245614035088,2,0.25,1.0,2,0.25,3.10526315789474,ReadingArea_rsl2-rcl2-esl29-rsm2-rcm25-esm100-rsr2-rcr25-esr310,exr/ReadingArea_rsl2-rcl2-esl29-rsm2-rcm25-esm100-rsr2-rcr25-esr310.exr,ReadingArea_rsl2-rcl2-esl29-rsm2-rcm25-esm100-rsr2-rcr25-esr310.npz,,,,,0,63,63,114,,right,red,0.99,229.31445908546448,229.6997320652008,1,1,4,brightness,readingArea,realistic,75,2023-03-24_14h44.49.753,tripletExp_regina_11082022,2022.2.4,120.07259943775514,
3,4,0,2,0.444444444444444,0.298245614035088,2,0.694444444444444,0.298245614035088,2,0.027777777777778,0.298245614035088,ReadingArea_rsl2-rcl44-esl29-rsm2-rcm69-esm29-rsr2-rcr2-esr29,exr/ReadingArea_rsl2-rcl44-esl29-rsm2-rcm69-esm29-rsr2-rcr2-esr29.exr,ReadingArea_rsl2-rcl44-esl29-rsm2-rcm69-esm29-rsr2-rcr2-esr29.npz,,,,,0,64,64,130,,left,green,0.7,231.39291095733645,231.780424118042,1,1,4,brightness,readingArea,realistic,75,2023-03-24_14h44.49.753,tripletExp_regina_11082022,2022.2.4,120.07259943775514,
12,5,10,2,0.027777777777778,3.10526315789474,2,1.0,0.298245614035088,2,0.694444444444444,1.0,ReadingArea_rsl2-rcl2-esl310-rsm2-rcm100-esm29-rsr2-rcr69-esr100,exr/ReadingArea_rsl2-rcl2-esl310-rsm2-rcm100-esm29-rsr2-rcr69-esr100.exr,ReadingArea_rsl2-rcl2-esl310-rsm2-rcm100-esm29-rsr2-rcr69-esr100.npz,,,,,0,65,65,493,,right,red,2.41,235.2416081428528,235.6103520393372,1,1,4,brightness,readingArea,realistic,75,2023-03-24_14h44.49.753,tripletExp_regina_11082022,2022.2.4,120.07259943775514,
0,7,9,2,0.027777777777778,0.298245614035088,2,0.111111111111111,1.0,2,0.444444444444444,1.0,ReadingArea_rsl2-rcl2-esl29-rsm2-rcm11-esm100-rsr2-rcr44-esr100,exr/ReadingArea_rsl2-rcl2-esl29-rsm2-rcm11-esm100-rsr2-rcr44-esr100.exr,ReadingArea_rsl2-rcl2-esl29-rsm2-rcm11-esm100-rsr2-rcr44-esr100.npz,,,,,0,66,66,463,,right,red,2.65,239.07544112205505,239.44511914253235,1,1,4,brightness,readingArea,realistic,75,2023-03-24_14h44.49.753,tripletExp_regina_11082022,2022.2.4,120.07259943775514,
14,0,9,2,0.25,3.10526315789474,2,0.027777777777778,0.298245614035088,2,0.444444444444444,1.0,ReadingArea_rsl2-rcl25-esl310-rsm2-rcm2-esm29-rsr2-rcr44-esr100,exr/ReadingArea_rsl2-rcl25-esl310-rsm2-rcm2-esm29-rsr2-rcr44-esr100.exr,ReadingArea_rsl2-rcl25-esl310-rsm2-rcm2-esm29-rsr2-rcr44-esr100.npz,,,,,0,67,67,90,,right,red,0.76,241.1668190956116,241.55050802230835,1,1,4,brightness,readingArea,realistic,75,2023-03-24_14h44.49.753,tripletExp_regina_11082022,2022.2.4,120.07259943775514,
5,9,12,2,1.0,0.298245614035088,2,0.444444444444444,1.0,2,0.027777777777778,3.10526315789474,ReadingArea_rsl2-rcl100-esl29-rsm2-rcm44-esm100-rsr2-rcr2-esr310,exr/ReadingArea_rsl2-rcl100-esl29-rsm2-rcm44-esm100-rsr2-rcr2-esr310.exr,ReadingArea_rsl2-rcl100-esl29-rsm2-rcm44-esm100-rsr2-rcr2-esr310.npz,,,,,0,68,68,539,,left,green,0.65,243.2692511081696,243.6343359947205,1,1,4,brightness,readingArea,realistic,75,2023-03-24_14h44.49.753,tripletExp_regina_11082022,2022.2.4,120.07259943775514,
5,9,10,2,1.0,0.298245614035088,2,0.444444444444444,1.0,2,0.694444444444444,1.0,ReadingArea_rsl2-rcl100-esl29-rsm2-rcm44-esm100-rsr2-rcr69-esr100,exr/ReadingArea_rsl2-rcl100-esl29-rsm2-rcm44-esm100-rsr2-rcr69-esr100.exr,ReadingArea_rsl2-rcl100-esl29-rsm2-rcm44-esm100-rsr2-rcr69-esr100.npz,,,,,0,69,69,322,,left,green,0.9,245.34385895729065,,1,1,4,brightness,readingArea,realistic,75,2023-03-24_14h44.49.753,tripletExp_regina_11082022,2022.2.4,120.07259943775514,
12,6,7,2,0.027777777777778,3.10526315789474,2,0.027777777777778,1.0,2,0.111111111111111,1.0,ReadingArea_rsl2-rcl2-esl310-rsm2-rcm2-esm100-rsr2-rcr11-esr100,exr/ReadingArea_rsl2-rcl2-esl310-rsm2-rcm2-esm100-rsr2-rcr11-esr100.exr,ReadingArea_rsl2-rcl2-esl310-rsm2-rcm2-esm100-rsr2-rcr11-esr100.npz,,,,,0,70,70,308,,right,red,1.06,247.4414329528809,247.839823961258,1,1,4,brightness,readingArea,realistic,75,2023-03-24_14h44.49.753,tripletExp_regina_11082022,2022.2.4,120.07259943775514,
4,13,2,2,0.694444444444444,0.298245614035088,2,0.111111111111111,3.10526315789474,2,0.25,0.298245614035088,ReadingArea_rsl2-rcl69-esl29-rsm2-rcm11-esm310-rsr2-rcr25-esr29,exr/ReadingArea_rsl2-rcl69-esl29-rsm2-rcm11-esm310-rsr2-rcr25-esr29.exr,ReadingArea_rsl2-rcl69-esl29-rsm2-rcm11-esm310-rsr2-rcr25-esr29.npz,,,,,0,71,71,592,,left,green,0.99,249.54318499565125,249.9605541229248,1,1,4,brightness,readingArea,realistic,75,2023-03-24_14h44.49.753,tripletExp_regina_11082022,2022.2.4,120.07259943775514,
12,2,9,2,0.027777777777778,3.10526315789474,2,0.25,0.298245614035088,2,0.444444444444444,1.0,ReadingArea_rsl2-rcl2-esl310-rsm2-rcm25-esm29-rsr2-rcr44-esr100,exr/ReadingArea_rsl2-rcl2-esl310-rsm2-rcm25-esm29-rsr2-rcr44-esr100.exr,ReadingArea_rsl2-rcl2-esl310-rsm2-rcm25-esm29-rsr2-rcr44-esr100.npz,,,,,0,72,72,495,,left,green,0.73,251.67128109931943,252.04562997818,1,1,4,brightness,readingArea,realistic,75,2023-03-24_14h44.49.753,tripletExp_regina_11082022,2022.2.4,120.07259943775514,
6,13,0,2,0.027777777777778,1.0,2,0.111111111111111,3.10526315789474,2,0.027777777777778,0.298245614035088,ReadingArea_rsl2-rcl2-esl100-rsm2-rcm11-esm310-rsr2-rcr2-esr29,exr/ReadingArea_rsl2-rcl2-esl100-rsm2-rcm11-esm310-rsr2-rcr2-esr29.exr,ReadingArea_rsl2-rcl2-esl100-rsm2-rcm11-esm310-rsr2-rcr2-esr29.npz,,,,,0,73,73,580,,left,green,1.06,253.74185609817505,254.12556409835813,1,1,4,brightness,readingArea,realistic,75,2023-03-24_14h44.49.753,tripletExp_regina_11082022,2022.2.4,120.07259943775514,
4,12,6,2,0.694444444444444,0.298245614035088,2,0.027777777777778,3.10526315789474,2,0.027777777777778,1.0,ReadingArea_rsl2-rcl69-esl29-rsm2-rcm2-esm310-rsr2-rcr2-esr100,exr/ReadingArea_rsl2-rcl69-esl29-rsm2-rcm2-esm310-rsr2-rcr2-esr100.exr,ReadingArea_rsl2-rcl69-esl29-rsm2-rcm2-esm310-rsr2-rcr2-esr100.npz,,,,,0,74,74,99,,left,green,1.17,255.82716608047485,256.02752709388733,1,1,4,brightness,readingArea,realistic,75,2023-03-24_14h44.49.753,tripletExp_regina_11082022,2022.2.4,120.07259943775514,
5,3,10,2,1.0,0.298245614035088,2,0.444444444444444,0.298245614035088,2,0.694444444444444,1.0,ReadingArea_rsl2-rcl100-esl29-rsm2-rcm44-esm29-rsr2-rcr69-esr100,exr/ReadingArea_rsl2-rcl100-esl29-rsm2-rcm44-esm29-rsr2-rcr69-esr100.exr,ReadingArea_rsl2-rcl100-esl29-rsm2-rcm44-esm29-rsr2-rcr69-esr100.npz,,,,,0,75,75,546,,left,green,0.87,259.04067516326904,259.430969953537,2,1,4,brightness,readingArea,realistic,75,2023-03-24_14h44.49.753,tripletExp_regina_11082022,2022.2.4,120.07259943775514,
10,11,12,2,0.694444444444444,1.0,2,1.0,1.0,2,0.027777777777778,3.10526315789474,ReadingArea_rsl2-rcl69-esl100-rsm2-rcm100-esm100-rsr2-rcr2-esr310,exr/ReadingArea_rsl2-rcl69-esl100-rsm2-rcm100-esm100-rsr2-rcr2-esr310.exr,ReadingArea_rsl2-rcl69-esl100-rsm2-rcm100-esm100-rsr2-rcr2-esr310.npz,,,,,0,76,76,533,,left,green,0.8,261.12440609931946,261.4977469444275,2,1,4,brightness,readingArea,realistic,75,2023-03-24_14h44.49.753,tripletExp_regina_11082022,2022.2.4,120.07259943775514,
6,0,10,2,0.027777777777778,1.0,2,0.027777777777778,0.298245614035088,2,0.694444444444444,1.0,ReadingArea_rsl2-rcl2-esl100-rsm2-rcm2-esm29-rsr2-rcr69-esr100,exr/ReadingArea_rsl2-rcl2-esl100-rsm2-rcm2-esm29-rsr2-rcr69-esr100.exr,ReadingArea_rsl2-rcl2-esl100-rsm2-rcm2-esm29-rsr2-rcr69-esr100.npz,,,,,0,77,77,532,,left,green,0.65,263.22358298301697,263.6093680858612,2,1,4,brightness,readingArea,realistic,75,2023-03-24_14h44.49.753,tripletExp_regina_11082022,2022.2.4,120.07259943775514,
10,12,9,2,0.694444444444444,1.0,2,0.027777777777778,3.10526315789474,2,0.444444444444444,1.0,ReadingArea_rsl2-rcl69-esl100-rsm2-rcm2-esm310-rsr2-rcr44-esr100,exr/ReadingArea_rsl2-rcl69-esl100-rsm2-rcm2-esm310-rsr2-rcr44-esr100.exr,ReadingArea_rsl2-rcl69-esl100-rsm2-rcm2-esm310-rsr2-rcr44-esr100.npz,,,,,0,78,78,405,,right,red,0.84,265.29819798469543,265.6687951087952,2,1,4,brightness,readingArea,realistic,75,2023-03-24_14h44.49.753,tripletExp_regina_11082022,2022.2.4,120.07259943775514,
7,0,3,2,0.111111111111111,1.0,2,0.027777777777778,0.298245614035088,2,0.444444444444444,0.298245614035088,ReadingArea_rsl2-rcl11-esl100-rsm2-rcm2-esm29-rsr2-rcr44-esr29,exr/ReadingArea_rsl2-rcl11-esl100-rsm2-rcm2-esm29-rsr2-rcr44-esr29.exr,ReadingArea_rsl2-rcl11-esl100-rsm2-rcm2-esm29-rsr2-rcr44-esr29.npz,,,,,0,79,79,237,,left,green,2.62,269.1402831077576,269.53680205345154,2,1,4,brightness,readingArea,realistic,75,2023-03-24_14h44.49.753,tripletExp_regina_11082022,2022.2.4,120.07259943775514,
6,1,9,2,0.027777777777778,1.0,2,0.111111111111111,0.298245614035088,2,0.444444444444444,1.0,ReadingArea_rsl2-rcl2-esl100-rsm2-rcm11-esm29-rsr2-rcr44-esr100,exr/ReadingArea_rsl2-rcl2-esl100-rsm2-rcm11-esm29-rsr2-rcr44-esr100.exr,ReadingArea_rsl2-rcl2-esl100-rsm2-rcm11-esm29-rsr2-rcr44-esr100.npz,,,,,0,80,80,74,,left,green,0.65,271.2437641620636,271.64369797706604,2,1,4,brightness,readingArea,realistic,75,2023-03-24_14h44.49.753,tripletExp_regina_11082022,2022.2.4,120.07259943775514,
0,14,11,2,0.027777777777778,0.298245614035088,2,0.25,3.10526315789474,2,1.0,1.0,ReadingArea_rsl2-rcl2-esl29-rsm2-rcm25-esm310-rsr2-rcr100-esr100,exr/ReadingArea_rsl2-rcl2-esl29-rsm2-rcm25-esm310-rsr2-rcr100-esr100.exr,ReadingArea_rsl2-rcl2-esl29-rsm2-rcm25-esm310-rsr2-rcr100-esr100.npz,,,,,0,81,81,557,,right,red,0.7,273.3475060462952,273.71420907974243,2,1,4,brightness,readingArea,realistic,75,2023-03-24_14h44.49.753,tripletExp_regina_11082022,2022.2.4,120.07259943775514,
5,0,11,2,1.0,0.298245614035088,2,0.027777777777778,0.298245614035088,2,1.0,1.0,ReadingArea_rsl2-rcl100-esl29-rsm2-rcm2-esm29-rsr2-rcr100-esr100,exr/ReadingArea_rsl2-rcl100-esl29-rsm2-rcm2-esm29-rsr2-rcr100-esr100.exr,ReadingArea_rsl2-rcl100-esl29-rsm2-rcm2-esm29-rsr2-rcr100-esr100.npz,,,,,0,82,82,547,,left,green,0.8,275.4008650779724,275.77162313461304,2,1,4,brightness,readingArea,realistic,75,2023-03-24_14h44.49.753,tripletExp_regina_11082022,2022.2.4,120.07259943775514,
10,4,13,2,0.694444444444444,1.0,2,0.694444444444444,0.298245614035088,2,0.111111111111111,3.10526315789474,ReadingArea_rsl2-rcl69-esl100-rsm2-rcm69-esm29-rsr2-rcr11-esr310,exr/ReadingArea_rsl2-rcl69-esl100-rsm2-rcm69-esm29-rsr2-rcr11-esr310.exr,ReadingArea_rsl2-rcl69-esl100-rsm2-rcm69-esm29-rsr2-rcr11-esr310.npz,,,,,0,83,83,24,,right,red,0.7,277.471125125885,277.8523819446564,2,1,4,brightness,readingArea,realistic,75,2023-03-24_14h44.49.753,tripletExp_regina_11082022,2022.2.4,120.07259943775514,
8,12,13,2,0.25,1.0,2,0.027777777777778,3.10526315789474,2,0.111111111111111,3.10526315789474,ReadingArea_rsl2-rcl25-esl100-rsm2-rcm2-esm310-rsr2-rcr11-esr310,exr/ReadingArea_rsl2-rcl25-esl100-rsm2-rcm2-esm310-rsr2-rcr11-esr310.exr,ReadingArea_rsl2-rcl25-esl100-rsm2-rcm2-esm310-rsr2-rcr11-esr310.npz,,,,,0,84,84,275,,left,green,2.61,281.3506121635437,281.7316300868988,2,1,4,brightness,readingArea,realistic,75,2023-03-24_14h44.49.753,tripletExp_regina_11082022,2022.2.4,120.07259943775514,
14,0,6,2,0.25,3.10526315789474,2,0.027777777777778,0.298245614035088,2,0.027777777777778,1.0,ReadingArea_rsl2-rcl25-esl310-rsm2-rcm2-esm29-rsr2-rcr2-esr100,exr/ReadingArea_rsl2-rcl25-esl310-rsm2-rcm2-esm29-rsr2-rcr2-esr100.exr,ReadingArea_rsl2-rcl25-esl310-rsm2-rcm2-esm29-rsr2-rcr2-esr100.npz,,,,,0,85,85,496,,right,red,0.6,283.4468820095062,283.8208041191101,2,1,4,brightness,readingArea,realistic,75,2023-03-24_14h44.49.753,tripletExp_regina_11082022,2022.2.4,120.07259943775514,
1,13,8,2,0.111111111111111,0.298245614035088,2,0.111111111111111,3.10526315789474,2,0.25,1.0,ReadingArea_rsl2-rcl11-esl29-rsm2-rcm11-esm310-rsr2-rcr25-esr100,exr/ReadingArea_rsl2-rcl11-esl29-rsm2-rcm11-esm310-rsr2-rcr25-esr100.exr,ReadingArea_rsl2-rcl11-esl29-rsm2-rcm11-esm310-rsr2-rcr25-esr100.npz,,,,,0,86,86,64,,right,red,0.8,285.512442111969,285.8982880115509,2,1,4,brightness,readingArea,realistic,75,2023-03-24_14h44.49.753,tripletExp_regina_11082022,2022.2.4,120.07259943775514,
3,2,11,2,0.444444444444444,0.298245614035088,2,0.25,0.298245614035088,2,1.0,1.0,ReadingArea_rsl2-rcl44-esl29-rsm2-rcm25-esm29-rsr2-rcr100-esr100,exr/ReadingArea_rsl2-rcl44-esl29-rsm2-rcm25-esm29-rsr2-rcr100-esr100.exr,ReadingArea_rsl2-rcl44-esl29-rsm2-rcm25-esm29-rsr2-rcr100-esr100.npz,,,,,0,87,87,257,,left,green,0.74,287.6015591621399,287.9952759742737,2,1,4,brightness,readingArea,realistic,75,2023-03-24_14h44.49.753,tripletExp_regina_11082022,2022.2.4,120.07259943775514,
2,11,7,2,0.25,0.298245614035088,2,1.0,1.0,2,0.111111111111111,1.0,ReadingArea_rsl2-rcl25-esl29-rsm2-rcm100-esm100-rsr2-rcr11-esr100,exr/ReadingArea_rsl2-rcl25-esl29-rsm2-rcm100-esm100-rsr2-rcr11-esr100.exr,ReadingArea_rsl2-rcl25-esl29-rsm2-rcm100-esm100-rsr2-rcr11-esr100.npz,,,,,0,88,88,576,,right,red,0.87,289.6840150356293,,2,1,4,brightness,readingArea,realistic,75,2023-03-24_14h44.49.753,tripletExp_regina_11082022,2022.2.4,120.07259943775514,
14,2,7,2,0.25,3.10526315789474,2,0.25,0.298245614035088,2,0.111111111111111,1.0,ReadingArea_rsl2-rcl25-esl310-rsm2-rcm25-esm29-rsr2-rcr11-esr100,exr/ReadingArea_rsl2-rcl25-esl310-rsm2-rcm25-esm29-rsr2-rcr11-esr100.exr,ReadingArea_rsl2-rcl25-esl310-rsm2-rcm25-esm29-rsr2-rcr11-esr100.npz,,,,,0,89,89,569,,right,red,0.68,291.7845730781555,,2,1,4,brightness,readingArea,realistic,75,2023-03-24_14h44.49.753,tripletExp_regina_11082022,2022.2.4,120.07259943775514,
6,12,3,2,0.027777777777778,1.0,2,0.027777777777778,3.10526315789474,2,0.444444444444444,0.298245614035088,ReadingArea_rsl2-rcl2-esl100-rsm2-rcm2-esm310-rsr2-rcr44-esr29,exr/ReadingArea_rsl2-rcl2-esl100-rsm2-rcm2-esm310-rsr2-rcr44-esr29.exr,ReadingArea_rsl2-rcl2-esl100-rsm2-rcm2-esm310-rsr2-rcr44-esr29.npz,,,,,0,90,90,284,,right,red,0.64,293.8850440979004,,2,1,4,brightness,readingArea,realistic,75,2023-03-24_14h44.49.753,tripletExp_regina_11082022,2022.2.4,120.07259943775514,
4,12,7,2,0.694444444444444,0.298245614035088,2,0.027777777777778,3.10526315789474,2,0.111111111111111,1.0,ReadingArea_rsl2-rcl69-esl29-rsm2-rcm2-esm310-rsr2-rcr11-esr100,exr/ReadingArea_rsl2-rcl69-esl29-rsm2-rcm2-esm310-rsr2-rcr11-esr100.exr,ReadingArea_rsl2-rcl69-esl29-rsm2-rcm2-esm310-rsr2-rcr11-esr100.npz,,,,,0,91,91,112,,right,red,0.66,295.9636940956116,296.35057401657104,2,1,4,brightness,readingArea,realistic,75,2023-03-24_14h44.49.753,tripletExp_regina_11082022,2022.2.4,120.07259943775514,
13,2,4,2,0.111111111111111,3.10526315789474,2,0.25,0.298245614035088,2,0.694444444444444,0.298245614035088,ReadingArea_rsl2-rcl11-esl310-rsm2-rcm25-esm29-rsr2-rcr69-esr29,exr/ReadingArea_rsl2-rcl11-esl310-rsm2-rcm25-esm29-rsr2-rcr69-esr29.exr,ReadingArea_rsl2-rcl11-esl310-rsm2-rcm25-esm29-rsr2-rcr69-esr29.npz,,,,,0,92,92,307,,right,red,0.61,298.0454421043396,298.4271399974823,2,1,4,brightness,readingArea,realistic,75,2023-03-24_14h44.49.753,tripletExp_regina_11082022,2022.2.4,120.07259943775514,
3,2,8,2,0.444444444444444,0.298245614035088,2,0.25,0.298245614035088,2,0.25,1.0,ReadingArea_rsl2-rcl44-esl29-rsm2-rcm25-esm29-rsr2-rcr25-esr100,exr/ReadingArea_rsl2-rcl44-esl29-rsm2-rcm25-esm29-rsr2-rcr25-esr100.exr,ReadingArea_rsl2-rcl44-esl29-rsm2-rcm25-esm29-rsr2-rcr25-esr100.npz,,,,,0,93,93,181,,left,green,0.95,300.14863204956055,300.5392150878906,2,1,4,brightness,readingArea,realistic,75,2023-03-24_14h44.49.753,tripletExp_regina_11082022,2022.2.4,120.07259943775514,
9,7,2,2,0.444444444444444,1.0,2,0.111111111111111,1.0,2,0.25,0.298245614035088,ReadingArea_rsl2-rcl44-esl100-rsm2-rcm11-esm100-rsr2-rcr25-esr29,exr/ReadingArea_rsl2-rcl44-esl100-rsm2-rcm11-esm100-rsr2-rcr25-esr29.exr,ReadingArea_rsl2-rcl44-esl100-rsm2-rcm11-esm100-rsr2-rcr25-esr29.npz,,,,,0,94,94,428,,right,red,0.68,302.2581400871277,302.7331919670105,2,1,4,brightness,readingArea,realistic,75,2023-03-24_14h44.49.753,tripletExp_regina_11082022,2022.2.4,120.07259943775514,
6,4,0,2,0.027777777777778,1.0,2,0.694444444444444,0.298245614035088,2,0.027777777777778,0.298245614035088,ReadingArea_rsl2-rcl2-esl100-rsm2-rcm69-esm29-rsr2-rcr2-esr29,exr/ReadingArea_rsl2-rcl2-esl100-rsm2-rcm69-esm29-rsr2-rcr2-esr29.exr,ReadingArea_rsl2-rcl2-esl100-rsm2-rcm69-esm29-rsr2-rcr2-esr29.npz,,,,,0,95,95,360,,left,green,2.11,306.2118489742279,,2,1,4,brightness,readingArea,realistic,75,2023-03-24_14h44.49.753,tripletExp_regina_11082022,2022.2.4,120.07259943775514,
5,10,12,2,1.0,0.298245614035088,2,0.694444444444444,1.0,2,0.027777777777778,3.10526315789474,ReadingArea_rsl2-rcl100-esl29-rsm2-rcm69-esm100-rsr2-rcr2-esr310,exr/ReadingArea_rsl2-rcl100-esl29-rsm2-rcm69-esm100-rsr2-rcr2-esr310.exr,ReadingArea_rsl2-rcl100-esl29-rsm2-rcm69-esm100-rsr2-rcr2-esr310.npz,,,,,0,96,96,587,,left,green,0.67,308.30429911613464,308.698755979538,2,1,4,brightness,readingArea,realistic,75,2023-03-24_14h44.49.753,tripletExp_regina_11082022,2022.2.4,120.07259943775514,
9,8,0,2,0.444444444444444,1.0,2,0.25,1.0,2,0.027777777777778,0.298245614035088,ReadingArea_rsl2-rcl44-esl100-rsm2-rcm25-esm100-rsr2-rcr2-esr29,exr/ReadingArea_rsl2-rcl44-esl100-rsm2-rcm25-esm100-rsr2-rcr2-esr29.exr,ReadingArea_rsl2-rcl44-esl100-rsm2-rcm25-esm100-rsr2-rcr2-esr29.npz,,,,,0,97,97,66,,left,green,0.56,310.3922481536865,310.7643790245056,2,1,4,brightness,readingArea,realistic,75,2023-03-24_14h44.49.753,tripletExp_regina_11082022,2022.2.4,120.07259943775514,
10,5,4,2,0.694444444444444,1.0,2,1.0,0.298245614035088,2,0.694444444444444,0.298245614035088,ReadingArea_rsl2-rcl69-esl100-rsm2-rcm100-esm29-rsr2-rcr69-esr29,exr/ReadingArea_rsl2-rcl69-esl100-rsm2-rcm100-esm29-rsr2-rcr69-esr29.exr,ReadingArea_rsl2-rcl69-esl100-rsm2-rcm100-esm29-rsr2-rcr69-esr29.npz,,,,,0,98,98,455,,right,red,0.79,312.45739102363586,312.83076310157776,2,1,4,brightness,readingArea,realistic,75,2023-03-24_14h44.49.753,tripletExp_regina_11082022,2022.2.4,120.07259943775514,
11,3,12,2,1.0,1.0,2,0.444444444444444,0.298245614035088,2,0.027777777777778,3.10526315789474,ReadingArea_rsl2-rcl100-esl100-rsm2-rcm44-esm29-rsr2-rcr2-esr310,exr/ReadingArea_rsl2-rcl100-esl100-rsm2-rcm44-esm29-rsr2-rcr2-esr310.exr,ReadingArea_rsl2-rcl100-esl100-rsm2-rcm44-esm29-rsr2-rcr2-esr310.npz,,,,,0,99,99,355,,right,red,0.65,314.5385880470276,314.9190139770508,2,1,4,brightness,readingArea,realistic,75,2023-03-24_14h44.49.753,tripletExp_regina_11082022,2022.2.4,120.07259943775514,
9,3,14,2,0.444444444444444,1.0,2,0.444444444444444,0.298245614035088,2,0.25,3.10526315789474,ReadingArea_rsl2-rcl44-esl100-rsm2-rcm44-esm29-rsr2-rcr25-esr310,exr/ReadingArea_rsl2-rcl44-esl100-rsm2-rcm44-esm29-rsr2-rcr25-esr310.exr,ReadingArea_rsl2-rcl44-esl100-rsm2-rcm44-esm29-rsr2-rcr25-esr310.npz,,,,,0,100,100,17,,left,green,0.64,316.6126999855041,316.98720502853394,2,1,4,brightness,readingArea,realistic,75,2023-03-24_14h44.49.753,tripletExp_regina_11082022,2022.2.4,120.07259943775514,
9,0,3,2,0.444444444444444,1.0,2,0.027777777777778,0.298245614035088,2,0.444444444444444,0.298245614035088,ReadingArea_rsl2-rcl44-esl100-rsm2-rcm2-esm29-rsr2-rcr44-esr29,exr/ReadingArea_rsl2-rcl44-esl100-rsm2-rcm2-esm29-rsr2-rcr44-esr29.exr,ReadingArea_rsl2-rcl44-esl100-rsm2-rcm2-esm29-rsr2-rcr44-esr29.npz,,,,,0,101,101,2,,right,red,0.63,318.7073040008545,319.08745098114014,2,1,4,brightness,readingArea,realistic,75,2023-03-24_14h44.49.753,tripletExp_regina_11082022,2022.2.4,120.07259943775514,
6,10,9,2,0.027777777777778,1.0,2,0.694444444444444,1.0,2,0.444444444444444,1.0,ReadingArea_rsl2-rcl2-esl100-rsm2-rcm69-esm100-rsr2-rcr44-esr100,exr/ReadingArea_rsl2-rcl2-esl100-rsm2-rcm69-esm100-rsr2-rcr44-esr100.exr,ReadingArea_rsl2-rcl2-esl100-rsm2-rcm69-esm100-rsr2-rcr44-esr100.npz,,,,,0,102,102,148,,right,red,0.55,320.77900314331055,321.17475414276123,2,1,4,brightness,readingArea,realistic,75,2023-03-24_14h44.49.753,tripletExp_regina_11082022,2022.2.4,120.07259943775514,
7,2,0,2,0.111111111111111,1.0,2,0.25,0.298245614035088,2,0.027777777777778,0.298245614035088,ReadingArea_rsl2-rcl11-esl100-rsm2-rcm25-esm29-rsr2-rcr2-esr29,exr/ReadingArea_rsl2-rcl11-esl100-rsm2-rcm25-esm29-rsr2-rcr2-esr29.exr,ReadingArea_rsl2-rcl11-esl100-rsm2-rcm25-esm29-rsr2-rcr2-esr29.npz,,,,,0,103,103,520,,left,green,0.68,322.87969493865967,323.2554180622101,2,1,4,brightness,readingArea,realistic,75,2023-03-24_14h44.49.753,tripletExp_regina_11082022,2022.2.4,120.07259943775514,
6,12,0,2,0.027777777777778,1.0,2,0.027777777777778,3.10526315789474,2,0.027777777777778,0.298245614035088,ReadingArea_rsl2-rcl2-esl100-rsm2-rcm2-esm310-rsr2-rcr2-esr29,exr/ReadingArea_rsl2-rcl2-esl100-rsm2-rcm2-esm310-rsr2-rcr2-esr29.exr,ReadingArea_rsl2-rcl2-esl100-rsm2-rcm2-esm310-rsr2-rcr2-esr29.npz,,,,,0,104,104,23,,left,green,0.97,324.9677050113678,325.3455941677093,2,1,4,brightness,readingArea,realistic,75,2023-03-24_14h44.49.753,tripletExp_regina_11082022,2022.2.4,120.07259943775514,
10,3,6,2,0.694444444444444,1.0,2,0.444444444444444,0.298245614035088,2,0.027777777777778,1.0,ReadingArea_rsl2-rcl69-esl100-rsm2-rcm44-esm29-rsr2-rcr2-esr100,exr/ReadingArea_rsl2-rcl69-esl100-rsm2-rcm44-esm29-rsr2-rcr2-esr100.exr,ReadingArea_rsl2-rcl69-esl100-rsm2-rcm44-esm29-rsr2-rcr2-esr100.npz,,,,,0,105,105,261,,right,red,1.15,327.0356719493866,327.42198300361633,2,1,4,brightness,readingArea,realistic,75,2023-03-24_14h44.49.753,tripletExp_regina_11082022,2022.2.4,120.07259943775514,
13,1,3,2,0.111111111111111,3.10526315789474,2,0.111111111111111,0.298245614035088,2,0.444444444444444,0.298245614035088,ReadingArea_rsl2-rcl11-esl310-rsm2-rcm11-esm29-rsr2-rcr44-esr29,exr/ReadingArea_rsl2-rcl11-esl310-rsm2-rcm11-esm29-rsr2-rcr44-esr29.exr,ReadingArea_rsl2-rcl11-esl310-rsm2-rcm11-esm29-rsr2-rcr44-esr29.npz,,,,,0,106,106,588,,right,red,0.94,329.122456073761,329.4929051399231,2,1,4,brightness,readingArea,realistic,75,2023-03-24_14h44.49.753,tripletExp_regina_11082022,2022.2.4,120.07259943775514,
2,9,10,2,0.25,0.298245614035088,2,0.444444444444444,1.0,2,0.694444444444444,1.0,ReadingArea_rsl2-rcl25-esl29-rsm2-rcm44-esm100-rsr2-rcr69-esr100,exr/ReadingArea_rsl2-rcl25-esl29-rsm2-rcm44-esm100-rsr2-rcr69-esr100.exr,ReadingArea_rsl2-rcl25-esl29-rsm2-rcm44-esm100-rsr2-rcr69-esr100.npz,,,,,0,107,107,117,,right,red,0.89,331.20603799819946,331.572478055954,2,1,4,brightness,readingArea,realistic,75,2023-03-24_14h44.49.753,tripletExp_regina_11082022,2022.2.4,120.07259943775514,
7,13,6,2,0.111111111111111,1.0,2,0.111111111111111,3.10526315789474,2,0.027777777777778,1.0,ReadingArea_rsl2-rcl11-esl100-rsm2-rcm11-esm310-rsr2-rcr2-esr100,exr/ReadingArea_rsl2-rcl11-esl100-rsm2-rcm11-esm310-rsr2-rcr2-esr100.exr,ReadingArea_rsl2-rcl11-esl100-rsm2-rcm11-esm310-rsr2-rcr2-esr100.npz,,,,,0,108,108,73,,left,green,0.9,333.2655000686645,333.64652395248413,2,1,4,brightness,readingArea,realistic,75,2023-03-24_14h44.49.753,tripletExp_regina_11082022,2022.2.4,120.07259943775514,
13,3,7,2,0.111111111111111,3.10526315789474,2,0.444444444444444,0.298245614035088,2,0.111111111111111,1.0,ReadingArea_rsl2-rcl11-esl310-rsm2-rcm44-esm29-rsr2-rcr11-esr100,exr/ReadingArea_rsl2-rcl11-esl310-rsm2-rcm44-esm29-rsr2-rcr11-esr100.exr,ReadingArea_rsl2-rcl11-esl310-rsm2-rcm44-esm29-rsr2-rcr11-esr100.npz,,,,,0,109,109,497,,right,red,0.63,335.3552520275116,335.729483127594,2,1,4,brightness,readingArea,realistic,75,2023-03-24_14h44.49.753,tripletExp_regina_11082022,2022.2.4,120.07259943775514,
9,4,11,2,0.444444444444444,1.0,2,0.694444444444444,0.298245614035088,2,1.0,1.0,ReadingArea_rsl2-rcl44-esl100-rsm2-rcm69-esm29-rsr2-rcr100-esr100,exr/ReadingArea_rsl2-rcl44-esl100-rsm2-rcm69-esm29-rsr2-rcr100-esr100.exr,ReadingArea_rsl2-rcl44-esl100-rsm2-rcm69-esm29-rsr2-rcr100-esr100.npz,,,,,0,110,110,133,,left,green,0.64,337.438581943512,337.8154399394989,2,1,4,brightness,readingArea,realistic,75,2023-03-24_14h44.49.753,tripletExp_regina_11082022,2022.2.4,120.07259943775514,
13,2,9,2,0.111111111111111,3.10526315789474,2,0.25,0.298245614035088,2,0.444444444444444,1.0,ReadingArea_rsl2-rcl11-esl310-rsm2-rcm25-esm29-rsr2-rcr44-esr100,exr/ReadingArea_rsl2-rcl11-esl310-rsm2-rcm25-esm29-rsr2-rcr44-esr100.exr,ReadingArea_rsl2-rcl11-esl310-rsm2-rcm25-esm29-rsr2-rcr44-esr100.npz,,,,,0,111,111,457,,left,green,1.02,339.5379230976105,339.91661500930786,2,1,4,brightness,readingArea,realistic,75,2023-03-24_14h44.49.753,tripletExp_regina_11082022,2022.2.4,120.07259943775514,
3,7,0,2,0.444444444444444,0.298245614035088,2,0.111111111111111,1.0,2,0.027777777777778,0.298245614035088,ReadingArea_rsl2-rcl44-esl29-rsm2-rcm11-esm100-rsr2-rcr2-esr29,exr/ReadingArea_rsl2-rcl44-esl29-rsm2-rcm11-esm100-rsr2-rcr2-esr29.exr,ReadingArea_rsl2-rcl44-esl29-rsm2-rcm11-esm100-rsr2-rcr2-esr29.npz,,,,,0,112,112,327,,left,green,0.71,341.639023065567,342.01341700553894,2,1,4,brightness,readingArea,realistic,75,2023-03-24_14h44.49.753,tripletExp_regina_11082022,2022.2.4,120.07259943775514,
11,12,2,2,1.0,1.0,2,0.027777777777778,3.10526315789474,2,0.25,0.298245614035088,ReadingArea_rsl2-rcl100-esl100-rsm2-rcm2-esm310-rsr2-rcr25-esr29,exr/ReadingArea_rsl2-rcl100-esl100-rsm2-rcm2-esm310-rsr2-rcr25-esr29.exr,ReadingArea_rsl2-rcl100-esl100-rsm2-rcm2-esm310-rsr2-rcr25-esr29.npz,,,,,0,113,113,423,,right,red,0.63,343.7021851539612,344.174898147583,2,1,4,brightness,readingArea,realistic,75,2023-03-24_14h44.49.753,tripletExp_regina_11082022,2022.2.4,120.07259943775514,
3,1,0,2,0.444444444444444,0.298245614035088,2,0.111111111111111,0.298245614035088,2,0.027777777777778,0.298245614035088,ReadingArea_rsl2-rcl44-esl29-rsm2-rcm11-esm29-rsr2-rcr2-esr29,exr/ReadingArea_rsl2-rcl44-esl29-rsm2-rcm11-esm29-rsr2-rcr2-esr29.exr,ReadingArea_rsl2-rcl44-esl29-rsm2-rcm11-esm29-rsr2-rcr2-esr29.npz,,,,,0,114,114,343,,left,green,0.69,345.8741180896759,346.25893211364746,2,1,4,brightness,readingArea,realistic,75,2023-03-24_14h44.49.753,tripletExp_regina_11082022,2022.2.4,120.07259943775514,
1,9,11,2,0.111111111111111,0.298245614035088,2,0.444444444444444,1.0,2,1.0,1.0,ReadingArea_rsl2-rcl11-esl29-rsm2-rcm44-esm100-rsr2-rcr100-esr100,exr/ReadingArea_rsl2-rcl11-esl29-rsm2-rcm44-esm100-rsr2-rcr100-esr100.exr,ReadingArea_rsl2-rcl11-esl29-rsm2-rcm44-esm100-rsr2-rcr100-esr100.npz,,,,,0,115,115,215,,right,red,0.93,347.9709680080414,348.3513729572296,2,1,4,brightness,readingArea,realistic,75,2023-03-24_14h44.49.753,tripletExp_regina_11082022,2022.2.4,120.07259943775514,
8,14,6,2,0.25,1.0,2,0.25,3.10526315789474,2,0.027777777777778,1.0,ReadingArea_rsl2-rcl25-esl100-rsm2-rcm25-esm310-rsr2-rcr2-esr100,exr/ReadingArea_rsl2-rcl25-esl100-rsm2-rcm25-esm310-rsr2-rcr2-esr100.exr,ReadingArea_rsl2-rcl25-esl100-rsm2-rcm25-esm310-rsr2-rcr2-esr100.npz,,,,,0,116,116,469,,left,green,0.89,350.0492689609528,350.4246709346771,2,1,4,brightness,readingArea,realistic,75,2023-03-24_14h44.49.753,tripletExp_regina_11082022,2022.2.4,120.07259943775514,
3,4,11,2,0.444444444444444,0.298245614035088,2,0.694444444444444,0.298245614035088,2,1.0,1.0,ReadingArea_rsl2-rcl44-esl29-rsm2-rcm69-esm29-rsr2-rcr100-esr100,exr/ReadingArea_rsl2-rcl44-esl29-rsm2-rcm69-esm29-rsr2-rcr100-esr100.exr,ReadingArea_rsl2-rcl44-esl29-rsm2-rcm69-esm29-rsr2-rcr100-esr100.npz,,,,,0,117,117,207,,left,green,0.67,352.11492800712585,352.4784770011902,2,1,4,brightness,readingArea,realistic,75,2023-03-24_14h44.49.753,tripletExp_regina_11082022,2022.2.4,120.07259943775514,
10,3,0,2,0.694444444444444,1.0,2,0.444444444444444,0.298245614035088,2,0.027777777777778,0.298245614035088,ReadingArea_rsl2-rcl69-esl100-rsm2-rcm44-esm29-rsr2-rcr2-esr29,exr/ReadingArea_rsl2-rcl69-esl100-rsm2-rcm44-esm29-rsr2-rcr2-esr29.exr,ReadingArea_rsl2-rcl69-esl100-rsm2-rcm44-esm29-rsr2-rcr2-esr29.npz,,,,,0,118,118,203,,right,red,2.04,355.9406991004944,356.3350410461426,2,1,4,brightness,readingArea,realistic,75,2023-03-24_14h44.49.753,tripletExp_regina_11082022,2022.2.4,120.07259943775514,
7,11,13,2,0.111111111111111,1.0,2,1.0,1.0,2,0.111111111111111,3.10526315789474,ReadingArea_rsl2-rcl11-esl100-rsm2-rcm100-esm100-rsr2-rcr11-esr310,exr/ReadingArea_rsl2-rcl11-esl100-rsm2-rcm100-esm100-rsr2-rcr11-esr310.exr,ReadingArea_rsl2-rcl11-esl100-rsm2-rcm100-esm100-rsr2-rcr11-esr310.npz,,,,,0,119,119,76,,right,red,0.83,358.0514039993286,358.42761301994324,2,1,4,brightness,readingArea,realistic,75,2023-03-24_14h44.49.753,tripletExp_regina_11082022,2022.2.4,120.07259943775514,
2,14,1,2,0.25,0.298245614035088,2,0.25,3.10526315789474,2,0.111111111111111,0.298245614035088,ReadingArea_rsl2-rcl25-esl29-rsm2-rcm25-esm310-rsr2-rcr11-esr29,exr/ReadingArea_rsl2-rcl25-esl29-rsm2-rcm25-esm310-rsr2-rcr11-esr29.exr,ReadingArea_rsl2-rcl25-esl29-rsm2-rcm25-esm310-rsr2-rcr11-esr29.npz,,,,,0,120,120,579,,left,green,1.09,360.13686895370483,,2,1,4,brightness,readingArea,realistic,75,2023-03-24_14h44.49.753,tripletExp_regina_11082022,2022.2.4,120.07259943775514,
10,2,0,2,0.694444444444444,1.0,2,0.25,0.298245614035088,2,0.027777777777778,0.298245614035088,ReadingArea_rsl2-rcl69-esl100-rsm2-rcm25-esm29-rsr2-rcr2-esr29,exr/ReadingArea_rsl2-rcl69-esl100-rsm2-rcm25-esm29-rsr2-rcr2-esr29.exr,ReadingArea_rsl2-rcl69-esl100-rsm2-rcm25-esm29-rsr2-rcr2-esr29.npz,,,,,0,121,121,427,,right,red,0.8,362.2423939704895,362.6071240901947,2,1,4,brightness,readingArea,realistic,75,2023-03-24_14h44.49.753,tripletExp_regina_11082022,2022.2.4,120.07259943775514,
12,10,5,2,0.027777777777778,3.10526315789474,2,0.694444444444444,1.0,2,1.0,0.298245614035088,ReadingArea_rsl2-rcl2-esl310-rsm2-rcm69-esm100-rsr2-rcr100-esr29,exr/ReadingArea_rsl2-rcl2-esl310-rsm2-rcm69-esm100-rsr2-rcr100-esr29.exr,ReadingArea_rsl2-rcl2-esl310-rsm2-rcm69-esm100-rsr2-rcr100-esr29.npz,,,,,0,122,122,470,,right,red,0.56,364.31200098991394,364.6735870838165,2,1,4,brightness,readingArea,realistic,75,2023-03-24_14h44.49.753,tripletExp_regina_11082022,2022.2.4,120.07259943775514,
6,9,5,2,0.027777777777778,1.0,2,0.444444444444444,1.0,2,1.0,0.298245614035088,ReadingArea_rsl2-rcl2-esl100-rsm2-rcm44-esm100-rsr2-rcr100-esr29,exr/ReadingArea_rsl2-rcl2-esl100-rsm2-rcm44-esm100-rsr2-rcr100-esr29.exr,ReadingArea_rsl2-rcl2-esl100-rsm2-rcm44-esm100-rsr2-rcr100-esr29.npz,,,,,0,123,123,29,,right,red,0.52,366.3762969970703,366.76481199264526,2,1,4,brightness,readingArea,realistic,75,2023-03-24_14h44.49.753,tripletExp_regina_11082022,2022.2.4,120.07259943775514,
13,0,9,2,0.111111111111111,3.10526315789474,2,0.027777777777778,0.298245614035088,2,0.444444444444444,1.0,ReadingArea_rsl2-rcl11-esl310-rsm2-rcm2-esm29-rsr2-rcr44-esr100,exr/ReadingArea_rsl2-rcl11-esl310-rsm2-rcm2-esm29-rsr2-rcr44-esr100.exr,ReadingArea_rsl2-rcl11-esl310-rsm2-rcm2-esm29-rsr2-rcr44-esr100.npz,,,,,0,124,124,373,,left,green,1.17,368.4646990299225,368.8432080745697,2,1,4,brightness,readingArea,realistic,75,2023-03-24_14h44.49.753,tripletExp_regina_11082022,2022.2.4,120.07259943775514,
11,1,12,2,1.0,1.0,2,0.111111111111111,0.298245614035088,2,0.027777777777778,3.10526315789474,ReadingArea_rsl2-rcl100-esl100-rsm2-rcm11-esm29-rsr2-rcr2-esr310,exr/ReadingArea_rsl2-rcl100-esl100-rsm2-rcm11-esm29-rsr2-rcr2-esr310.exr,ReadingArea_rsl2-rcl100-esl100-rsm2-rcm11-esm29-rsr2-rcr2-esr310.npz,,,,,0,125,125,339,,right,red,0.66,370.5587861537933,370.9327721595764,2,1,4,brightness,readingArea,realistic,75,2023-03-24_14h44.49.753,tripletExp_regina_11082022,2022.2.4,120.07259943775514,
4,3,11,2,0.694444444444444,0.298245614035088,2,0.444444444444444,0.298245614035088,2,1.0,1.0,ReadingArea_rsl2-rcl69-esl29-rsm2-rcm44-esm29-rsr2-rcr100-esr100,exr/ReadingArea_rsl2-rcl69-esl29-rsm2-rcm44-esm29-rsr2-rcr100-esr100.exr,ReadingArea_rsl2-rcl69-esl29-rsm2-rcm44-esm29-rsr2-rcr100-esr100.npz,,,,,0,126,126,439,,left,green,0.63,372.6369550228119,373.0277609825134,2,1,4,brightness,readingArea,realistic,75,2023-03-24_14h44.49.753,tripletExp_regina_11082022,2022.2.4,120.07259943775514,
0,10,14,2,0.027777777777778,0.298245614035088,2,0.694444444444444,1.0,2,0.25,3.10526315789474,ReadingArea_rsl2-rcl2-esl29-rsm2-rcm69-esm100-rsr2-rcr25-esr310,exr/ReadingArea_rsl2-rcl2-esl29-rsm2-rcm69-esm100-rsr2-rcr25-esr310.exr,ReadingArea_rsl2-rcl2-esl29-rsm2-rcm69-esm100-rsr2-rcr25-esr310.npz,,,,,0,127,127,31,,right,red,0.65,374.72522616386414,375.1184239387512,2,1,4,brightness,readingArea,realistic,75,2023-03-24_14h44.49.753,tripletExp_regina_11082022,2022.2.4,120.07259943775514,
11,4,2,2,1.0,1.0,2,0.694444444444444,0.298245614035088,2,0.25,0.298245614035088,ReadingArea_rsl2-rcl100-esl100-rsm2-rcm69-esm29-rsr2-rcr25-esr29,exr/ReadingArea_rsl2-rcl100-esl100-rsm2-rcm69-esm29-rsr2-rcr25-esr29.exr,ReadingArea_rsl2-rcl100-esl100-rsm2-rcm69-esm29-rsr2-rcr25-esr29.npz,,,,,0,128,128,280,,right,red,0.59,376.83746314048767,377.2120180130005,2,1,4,brightness,readingArea,realistic,75,2023-03-24_14h44.49.753,tripletExp_regina_11082022,2022.2.4,120.07259943775514,
1,14,7,2,0.111111111111111,0.298245614035088,2,0.25,3.10526315789474,2,0.111111111111111,1.0,ReadingArea_rsl2-rcl11-esl29-rsm2-rcm25-esm310-rsr2-rcr11-esr100,exr/ReadingArea_rsl2-rcl11-esl29-rsm2-rcm25-esm310-rsr2-rcr11-esr100.exr,ReadingArea_rsl2-rcl11-esl29-rsm2-rcm25-esm310-rsr2-rcr11-esr100.npz,,,,,0,129,129,583,,right,red,0.7,378.92033314704895,379.3034720420837,2,1,4,brightness,readingArea,realistic,75,2023-03-24_14h44.49.753,tripletExp_regina_11082022,2022.2.4,120.07259943775514,
2,5,0,2,0.25,0.298245614035088,2,1.0,0.298245614035088,2,0.027777777777778,0.298245614035088,ReadingArea_rsl2-rcl25-esl29-rsm2-rcm100-esm29-rsr2-rcr2-esr29,exr/ReadingArea_rsl2-rcl25-esl29-rsm2-rcm100-esm29-rsr2-rcr2-esr29.exr,ReadingArea_rsl2-rcl25-esl29-rsm2-rcm100-esm29-rsr2-rcr2-esr29.npz,,,,,0,130,130,414,,left,green,2.49,382.7502241134644,383.1272029876709,2,1,4,brightness,readingArea,realistic,75,2023-03-24_14h44.49.753,tripletExp_regina_11082022,2022.2.4,120.07259943775514,
10,14,13,2,0.694444444444444,1.0,2,0.25,3.10526315789474,2,0.111111111111111,3.10526315789474,ReadingArea_rsl2-rcl69-esl100-rsm2-rcm25-esm310-rsr2-rcr11-esr310,exr/ReadingArea_rsl2-rcl69-esl100-rsm2-rcm25-esm310-rsr2-rcr11-esr310.exr,ReadingArea_rsl2-rcl69-esl100-rsm2-rcm25-esm310-rsr2-rcr11-esr310.npz,,,,,0,131,131,168,,left,green,0.88,384.8445031642914,385.2388780117035,2,1,4,brightness,readingArea,realistic,75,2023-03-24_14h44.49.753,tripletExp_regina_11082022,2022.2.4,120.07259943775514,
13,12,5,2,0.111111111111111,3.10526315789474,2,0.027777777777778,3.10526315789474,2,1.0,0.298245614035088,ReadingArea_rsl2-rcl11-esl310-rsm2-rcm2-esm310-rsr2-rcr100-esr29,exr/ReadingArea_rsl2-rcl11-esl310-rsm2-rcm2-esm310-rsr2-rcr100-esr29.exr,ReadingArea_rsl2-rcl11-esl310-rsm2-rcm2-esm310-rsr2-rcr100-esr29.npz,,,,,0,132,132,294,,left,green,2.13,388.73894906044006,389.1008341312408,2,1,4,brightness,readingArea,realistic,75,2023-03-24_14h44.49.753,tripletExp_regina_11082022,2022.2.4,120.07259943775514,
6,10,11,2,0.027777777777778,1.0,2,0.694444444444444,1.0,2,1.0,1.0,ReadingArea_rsl2-rcl2-esl100-rsm2-rcm69-esm100-rsr2-rcr100-esr100,exr/ReadingArea_rsl2-rcl2-esl100-rsm2-rcm69-esm100-rsr2-rcr100-esr100.exr,ReadingArea_rsl2-rcl2-esl100-rsm2-rcm69-esm100-rsr2-rcr100-esr100.npz,,,,,0,133,133,116,,right,red,0.72,390.8162291049957,391.2095520496368,2,1,4,brightness,readingArea,realistic,75,2023-03-24_14h44.49.753,tripletExp_regina_11082022,2022.2.4,120.07259943775514,
12,3,0,2,0.027777777777778,3.10526315789474,2,0.444444444444444,0.298245614035088,2,0.027777777777778,0.298245614035088,ReadingArea_rsl2-rcl2-esl310-rsm2-rcm44-esm29-rsr2-rcr2-esr29,exr/ReadingArea_rsl2-rcl2-esl310-rsm2-rcm44-esm29-rsr2-rcr2-esr29.exr,ReadingArea_rsl2-rcl2-esl310-rsm2-rcm44-esm29-rsr2-rcr2-esr29.npz,,,,,0,134,134,502,,left,green,0.67,392.9333779811859,,2,1,4,brightness,readingArea,realistic,75,2023-03-24_14h44.49.753,tripletExp_regina_11082022,2022.2.4,120.07259943775514,
9,13,6,2,0.444444444444444,1.0,2,0.111111111111111,3.10526315789474,2,0.027777777777778,1.0,ReadingArea_rsl2-rcl44-esl100-rsm2-rcm11-esm310-rsr2-rcr2-esr100,exr/ReadingArea_rsl2-rcl44-esl100-rsm2-rcm11-esm310-rsr2-rcr2-esr100.exr,ReadingArea_rsl2-rcl44-esl100-rsm2-rcm11-esm310-rsr2-rcr2-esr100.npz,,,,,0,135,135,13,,left,green,0.65,395.121356010437,395.50212597846985,2,1,4,brightness,readingArea,realistic,75,2023-03-24_14h44.49.753,tripletExp_regina_11082022,2022.2.4,120.07259943775514,
14,13,2,2,0.25,3.10526315789474,2,0.111111111111111,3.10526315789474,2,0.25,0.298245614035088,ReadingArea_rsl2-rcl25-esl310-rsm2-rcm11-esm310-rsr2-rcr25-esr29,exr/ReadingArea_rsl2-rcl25-esl310-rsm2-rcm11-esm310-rsr2-rcr25-esr29.exr,ReadingArea_rsl2-rcl25-esl310-rsm2-rcm11-esm310-rsr2-rcr25-esr29.npz,,,,,0,136,136,377,,right,red,2.62,398.9683990478516,399.36499404907227,2,1,4,brightness,readingArea,realistic,75,2023-03-24_14h44.49.753,tripletExp_regina_11082022,2022.2.4,120.07259943775514,
7,8,6,2,0.111111111111111,1.0,2,0.25,1.0,2,0.027777777777778,1.0,ReadingArea_rsl2-rcl11-esl100-rsm2-rcm25-esm100-rsr2-rcr2-esr100,exr/ReadingArea_rsl2-rcl11-esl100-rsm2-rcm25-esm100-rsr2-rcr2-esr100.exr,ReadingArea_rsl2-rcl11-esl100-rsm2-rcm25-esm100-rsr2-rcr2-esr100.npz,,,,,0,137,137,387,,left,green,0.73,401.0830190181732,401.5013840198517,2,1,4,brightness,readingArea,realistic,75,2023-03-24_14h44.49.753,tripletExp_regina_11082022,2022.2.4,120.07259943775514,
12,13,7,2,0.027777777777778,3.10526315789474,2,0.111111111111111,3.10526315789474,2,0.111111111111111,1.0,ReadingArea_rsl2-rcl2-esl310-rsm2-rcm11-esm310-rsr2-rcr11-esr100,exr/ReadingArea_rsl2-rcl2-esl310-rsm2-rcm11-esm310-rsr2-rcr11-esr100.exr,ReadingArea_rsl2-rcl2-esl310-rsm2-rcm11-esm310-rsr2-rcr11-esr100.npz,,,,,0,138,138,408,,left,green,1.04,403.2176229953766,403.595253944397,2,1,4,brightness,readingArea,realistic,75,2023-03-24_14h44.49.753,tripletExp_regina_11082022,2022.2.4,120.07259943775514,
14,11,4,2,0.25,3.10526315789474,2,1.0,1.0,2,0.694444444444444,0.298245614035088,ReadingArea_rsl2-rcl25-esl310-rsm2-rcm100-esm100-rsr2-rcr69-esr29,exr/ReadingArea_rsl2-rcl25-esl310-rsm2-rcm100-esm100-rsr2-rcr69-esr29.exr,ReadingArea_rsl2-rcl25-esl310-rsm2-rcm100-esm100-rsr2-rcr69-esr29.npz,,,,,0,139,139,370,,left,green,0.65,405.2934260368347,405.6718680858612,2,1,4,brightness,readingArea,realistic,75,2023-03-24_14h44.49.753,tripletExp_regina_11082022,2022.2.4,120.07259943775514,
8,6,5,2,0.25,1.0,2,0.027777777777778,1.0,2,1.0,0.298245614035088,ReadingArea_rsl2-rcl25-esl100-rsm2-rcm2-esm100-rsr2-rcr100-esr29,exr/ReadingArea_rsl2-rcl25-esl100-rsm2-rcm2-esm100-rsr2-rcr100-esr29.exr,ReadingArea_rsl2-rcl25-esl100-rsm2-rcm2-esm100-rsr2-rcr100-esr29.npz,,,,,0,140,140,241,,left,green,1.07,407.3766391277313,407.7509560585022,2,1,4,brightness,readingArea,realistic,75,2023-03-24_14h44.49.753,tripletExp_regina_11082022,2022.2.4,120.07259943775514,
12,10,6,2,0.027777777777778,3.10526315789474,2,0.694444444444444,1.0,2,0.027777777777778,1.0,ReadingArea_rsl2-rcl2-esl310-rsm2-rcm69-esm100-rsr2-rcr2-esr100,exr/ReadingArea_rsl2-rcl2-esl310-rsm2-rcm69-esm100-rsr2-rcr2-esr100.exr,ReadingArea_rsl2-rcl2-esl310-rsm2-rcm69-esm100-rsr2-rcr2-esr100.npz,,,,,0,141,141,273,,left,green,0.55,409.45088815689087,409.8289721012116,2,1,4,brightness,readingArea,realistic,75,2023-03-24_14h44.49.753,tripletExp_regina_11082022,2022.2.4,120.07259943775514,
11,14,2,2,1.0,1.0,2,0.25,3.10526315789474,2,0.25,0.298245614035088,ReadingArea_rsl2-rcl100-esl100-rsm2-rcm25-esm310-rsr2-rcr25-esr29,exr/ReadingArea_rsl2-rcl100-esl100-rsm2-rcm25-esm310-rsr2-rcr25-esr29.exr,ReadingArea_rsl2-rcl100-esl100-rsm2-rcm25-esm310-rsr2-rcr25-esr29.npz,,,,,0,142,142,419,,left,green,0.72,411.5455391407013,411.9368121623993,2,1,4,brightness,readingArea,realistic,75,2023-03-24_14h44.49.753,tripletExp_regina_11082022,2022.2.4,120.07259943775514,
3,13,10,2,0.444444444444444,0.298245614035088,2,0.111111111111111,3.10526315789474,2,0.694444444444444,1.0,ReadingArea_rsl2-rcl44-esl29-rsm2-rcm11-esm310-rsr2-rcr69-esr100,exr/ReadingArea_rsl2-rcl44-esl29-rsm2-rcm11-esm310-rsr2-rcr69-esr100.exr,ReadingArea_rsl2-rcl44-esl29-rsm2-rcm11-esm310-rsr2-rcr69-esr100.npz,,,,,0,143,143,416,,left,green,0.57,413.6501190662384,414.0871510505676,2,1,4,brightness,readingArea,realistic,75,2023-03-24_14h44.49.753,tripletExp_regina_11082022,2022.2.4,120.07259943775514,
3,6,4,2,0.444444444444444,0.298245614035088,2,0.027777777777778,1.0,2,0.694444444444444,0.298245614035088,ReadingArea_rsl2-rcl44-esl29-rsm2-rcm2-esm100-rsr2-rcr69-esr29,exr/ReadingArea_rsl2-rcl44-esl29-rsm2-rcm2-esm100-rsr2-rcr69-esr29.exr,ReadingArea_rsl2-rcl44-esl29-rsm2-rcm2-esm100-rsr2-rcr69-esr29.npz,,,,,0,144,144,154,,left,green,1.06,415.7936789989472,416.1851680278778,2,1,4,brightness,readingArea,realistic,75,2023-03-24_14h44.49.753,tripletExp_regina_11082022,2022.2.4,120.07259943775514,
1,9,8,2,0.111111111111111,0.298245614035088,2,0.444444444444444,1.0,2,0.25,1.0,ReadingArea_rsl2-rcl11-esl29-rsm2-rcm44-esm100-rsr2-rcr25-esr100,exr/ReadingArea_rsl2-rcl11-esl29-rsm2-rcm44-esm100-rsr2-rcr25-esr100.exr,ReadingArea_rsl2-rcl11-esl29-rsm2-rcm44-esm100-rsr2-rcr25-esr100.npz,,,,,0,145,145,268,,right,red,0.62,417.88576102256775,418.3083491325378,2,1,4,brightness,readingArea,realistic,75,2023-03-24_14h44.49.753,tripletExp_regina_11082022,2022.2.4,120.07259943775514,
5,4,1,2,1.0,0.298245614035088,2,0.694444444444444,0.298245614035088,2,0.111111111111111,0.298245614035088,ReadingArea_rsl2-rcl100-esl29-rsm2-rcm69-esm29-rsr2-rcr11-esr29,exr/ReadingArea_rsl2-rcl100-esl29-rsm2-rcm69-esm29-rsr2-rcr11-esr29.exr,ReadingArea_rsl2-rcl100-esl29-rsm2-rcm69-esm29-rsr2-rcr11-esr29.npz,,,,,0,146,146,560,,left,green,0.57,420.0028009414673,420.3825080394745,2,1,4,brightness,readingArea,realistic,75,2023-03-24_14h44.49.753,tripletExp_regina_11082022,2022.2.4,120.07259943775514,
0,4,12,2,0.027777777777778,0.298245614035088,2,0.694444444444444,0.298245614035088,2,0.027777777777778,3.10526315789474,ReadingArea_rsl2-rcl2-esl29-rsm2-rcm69-esm29-rsr2-rcr2-esr310,exr/ReadingArea_rsl2-rcl2-esl29-rsm2-rcm69-esm29-rsr2-rcr2-esr310.exr,ReadingArea_rsl2-rcl2-esl29-rsm2-rcm69-esm29-rsr2-rcr2-esr310.npz,,,,,0,147,147,150,,right,red,0.7,422.09343814849854,422.4685890674591,2,1,4,brightness,readingArea,realistic,75,2023-03-24_14h44.49.753,tripletExp_regina_11082022,2022.2.4,120.07259943775514,
4,1,9,2,0.694444444444444,0.298245614035088,2,0.111111111111111,0.298245614035088,2,0.444444444444444,1.0,ReadingArea_rsl2-rcl69-esl29-rsm2-rcm11-esm29-rsr2-rcr44-esr100,exr/ReadingArea_rsl2-rcl69-esl29-rsm2-rcm11-esm29-rsr2-rcr44-esr100.exr,ReadingArea_rsl2-rcl69-esl29-rsm2-rcm11-esm29-rsr2-rcr44-esr100.npz,,,,,0,148,148,7,,left,green,0.77,424.18918800354,424.59245705604553,2,1,4,brightness,readingArea,realistic,75,2023-03-24_14h44.49.753,tripletExp_regina_11082022,2022.2.4,120.07259943775514,
0,8,6,2,0.027777777777778,0.298245614035088,2,0.25,1.0,2,0.027777777777778,1.0,ReadingArea_rsl2-rcl2-esl29-rsm2-rcm25-esm100-rsr2-rcr2-esr100,exr/ReadingArea_rsl2-rcl2-esl29-rsm2-rcm25-esm100-rsr2-rcr2-esr100.exr,ReadingArea_rsl2-rcl2-esl29-rsm2-rcm25-esm100-rsr2-rcr2-esr100.npz,,,,,0,149,149,92,,right,red,0.92,426.2842891216278,426.48752212524414,2,1,4,brightness,readingArea,realistic,75,2023-03-24_14h44.49.753,tripletExp_regina_11082022,2022.2.4,120.07259943775514,
4,2,5,2,0.694444444444444,0.298245614035088,2,0.25,0.298245614035088,2,1.0,0.298245614035088,ReadingArea_rsl2-rcl69-esl29-rsm2-rcm25-esm29-rsr2-rcr100-esr29,exr/ReadingArea_rsl2-rcl69-esl29-rsm2-rcm25-esm29-rsr2-rcr100-esr29.exr,ReadingArea_rsl2-rcl69-esl29-rsm2-rcm25-esm29-rsr2-rcr100-esr29.npz,,,,,0,150,150,101,,right,red,1.35,563.8038549423218,564.2026491165161,3,1,4,brightness,readingArea,realistic,75,2023-03-24_14h44.49.753,tripletExp_regina_11082022,2022.2.4,120.07259943775514,
10,8,11,2,0.694444444444444,1.0,2,0.25,1.0,2,1.0,1.0,ReadingArea_rsl2-rcl69-esl100-rsm2-rcm25-esm100-rsr2-rcr100-esr100,exr/ReadingArea_rsl2-rcl69-esl100-rsm2-rcm25-esm100-rsr2-rcr100-esr100.exr,ReadingArea_rsl2-rcl69-esl100-rsm2-rcm25-esm100-rsr2-rcr100-esr100.npz,,,,,0,151,151,578,,left,green,1.31,565.9210579395294,566.3157069683075,3,1,4,brightness,readingArea,realistic,75,2023-03-24_14h44.49.753,tripletExp_regina_11082022,2022.2.4,120.07259943775514,
3,12,14,2,0.444444444444444,0.298245614035088,2,0.027777777777778,3.10526315789474,2,0.25,3.10526315789474,ReadingArea_rsl2-rcl44-esl29-rsm2-rcm2-esm310-rsr2-rcr25-esr310,exr/ReadingArea_rsl2-rcl44-esl29-rsm2-rcm2-esm310-rsr2-rcr25-esr310.exr,ReadingArea_rsl2-rcl44-esl29-rsm2-rcm2-esm310-rsr2-rcr25-esr310.npz,,,,,0,152,152,16,,left,green,0.79,568.0094110965729,568.4129450321198,3,1,4,brightness,readingArea,realistic,75,2023-03-24_14h44.49.753,tripletExp_regina_11082022,2022.2.4,120.07259943775514,
2,10,6,2,0.25,0.298245614035088,2,0.694444444444444,1.0,2,0.027777777777778,1.0,ReadingArea_rsl2-rcl25-esl29-rsm2-rcm69-esm100-rsr2-rcr2-esr100,exr/ReadingArea_rsl2-rcl25-esl29-rsm2-rcm69-esm100-rsr2-rcr2-esr100.exr,ReadingArea_rsl2-rcl25-esl29-rsm2-rcm69-esm100-rsr2-rcr2-esr100.npz,,,,,0,153,153,4,,left,green,0.77,570.1045730113983,570.4811301231384,3,1,4,brightness,readingArea,realistic,75,2023-03-24_14h44.49.753,tripletExp_regina_11082022,2022.2.4,120.07259943775514,
0,5,2,2,0.027777777777778,0.298245614035088,2,1.0,0.298245614035088,2,0.25,0.298245614035088,ReadingArea_rsl2-rcl2-esl29-rsm2-rcm100-esm29-rsr2-rcr25-esr29,exr/ReadingArea_rsl2-rcl2-esl29-rsm2-rcm100-esm29-rsr2-rcr25-esr29.exr,ReadingArea_rsl2-rcl2-esl29-rsm2-rcm100-esm29-rsr2-rcr25-esr29.npz,,,,,0,154,154,25,,right,red,0.69,572.177118062973,572.5757501125336,3,1,4,brightness,readingArea,realistic,75,2023-03-24_14h44.49.753,tripletExp_regina_11082022,2022.2.4,120.07259943775514,
10,0,8,2,0.694444444444444,1.0,2,0.027777777777778,0.298245614035088,2,0.25,1.0,ReadingArea_rsl2-rcl69-esl100-rsm2-rcm2-esm29-rsr2-rcr25-esr100,exr/ReadingArea_rsl2-rcl69-esl100-rsm2-rcm2-esm29-rsr2-rcr25-esr100.exr,ReadingArea_rsl2-rcl69-esl100-rsm2-rcm2-esm29-rsr2-rcr25-esr100.npz,,,,,0,155,155,552,,right,red,0.73,574.2984759807587,574.6812291145325,3,1,4,brightness,readingArea,realistic,75,2023-03-24_14h44.49.753,tripletExp_regina_11082022,2022.2.4,120.07259943775514,
14,11,0,2,0.25,3.10526315789474,2,1.0,1.0,2,0.027777777777778,0.298245614035088,ReadingArea_rsl2-rcl25-esl310-rsm2-rcm100-esm100-rsr2-rcr2-esr29,exr/ReadingArea_rsl2-rcl25-esl310-rsm2-rcm100-esm100-rsr2-rcr2-esr29.exr,ReadingArea_rsl2-rcl25-esl310-rsm2-rcm100-esm100-rsr2-rcr2-esr29.npz,,,,,0,156,156,227,,left,green,0.6,576.3945021629333,576.7595839500427,3,1,4,brightness,readingArea,realistic,75,2023-03-24_14h44.49.753,tripletExp_regina_11082022,2022.2.4,120.07259943775514,
13,10,9,2,0.111111111111111,3.10526315789474,2,0.694444444444444,1.0,2,0.444444444444444,1.0,ReadingArea_rsl2-rcl11-esl310-rsm2-rcm69-esm100-rsr2-rcr44-esr100,exr/ReadingArea_rsl2-rcl11-esl310-rsm2-rcm69-esm100-rsr2-rcr44-esr100.exr,ReadingArea_rsl2-rcl11-esl310-rsm2-rcm69-esm100-rsr2-rcr44-esr100.npz,,,,,0,157,157,330,,right,red,0.87,578.4668669700623,578.8587939739227,3,1,4,brightness,readingArea,realistic,75,2023-03-24_14h44.49.753,tripletExp_regina_11082022,2022.2.4,120.07259943775514,
3,14,4,2,0.444444444444444,0.298245614035088,2,0.25,3.10526315789474,2,0.694444444444444,0.298245614035088,ReadingArea_rsl2-rcl44-esl29-rsm2-rcm25-esm310-rsr2-rcr69-esr29,exr/ReadingArea_rsl2-rcl44-esl29-rsm2-rcm25-esm310-rsr2-rcr69-esr29.exr,ReadingArea_rsl2-rcl44-esl29-rsm2-rcm25-esm310-rsr2-rcr69-esr29.npz,,,,,0,158,158,537,,right,red,0.81,580.5746891498566,580.96497797966,3,1,4,brightness,readingArea,realistic,75,2023-03-24_14h44.49.753,tripletExp_regina_11082022,2022.2.4,120.07259943775514,
2,12,13,2,0.25,0.298245614035088,2,0.027777777777778,3.10526315789474,2,0.111111111111111,3.10526315789474,ReadingArea_rsl2-rcl25-esl29-rsm2-rcm2-esm310-rsr2-rcr11-esr310,exr/ReadingArea_rsl2-rcl25-esl29-rsm2-rcm2-esm310-rsr2-rcr11-esr310.exr,ReadingArea_rsl2-rcl25-esl29-rsm2-rcm2-esm310-rsr2-rcr11-esr310.npz,,,,,0,159,159,232,,left,green,0.7,582.6784579753876,583.0742161273956,3,1,4,brightness,readingArea,realistic,75,2023-03-24_14h44.49.753,tripletExp_regina_11082022,2022.2.4,120.07259943775514,
3,1,6,2,0.444444444444444,0.298245614035088,2,0.111111111111111,0.298245614035088,2,0.027777777777778,1.0,ReadingArea_rsl2-rcl44-esl29-rsm2-rcm11-esm29-rsr2-rcr2-esr100,exr/ReadingArea_rsl2-rcl44-esl29-rsm2-rcm11-esm29-rsr2-rcr2-esr100.exr,ReadingArea_rsl2-rcl44-esl29-rsm2-rcm11-esm29-rsr2-rcr2-esr100.npz,,,,,0,160,160,464,,right,red,0.87,584.776654958725,585.1566791534424,3,1,4,brightness,readingArea,realistic,75,2023-03-24_14h44.49.753,tripletExp_regina_11082022,2022.2.4,120.07259943775514,
12,3,10,2,0.027777777777778,3.10526315789474,2,0.444444444444444,0.298245614035088,2,0.694444444444444,1.0,ReadingArea_rsl2-rcl2-esl310-rsm2-rcm44-esm29-rsr2-rcr69-esr100,exr/ReadingArea_rsl2-rcl2-esl310-rsm2-rcm44-esm29-rsr2-rcr69-esr100.exr,ReadingArea_rsl2-rcl2-esl310-rsm2-rcm44-esm29-rsr2-rcr69-esr100.npz,,,,,0,161,161,437,,left,green,0.61,586.8523640632629,587.2447609901428,3,1,4,brightness,readingArea,realistic,75,2023-03-24_14h44.49.753,tripletExp_regina_11082022,2022.2.4,120.07259943775514,
6,14,10,2,0.027777777777778,1.0,2,0.25,3.10526315789474,2,0.694444444444444,1.0,ReadingArea_rsl2-rcl2-esl100-rsm2-rcm25-esm310-rsr2-rcr69-esr100,exr/ReadingArea_rsl2-rcl2-esl100-rsm2-rcm25-esm310-rsr2-rcr69-esr100.exr,ReadingArea_rsl2-rcl2-esl100-rsm2-rcm25-esm310-rsr2-rcr69-esr100.npz,,,,,0,162,162,413,,right,red,0.57,588.9395899772644,,3,1,4,brightness,readingArea,realistic,75,2023-03-24_14h44.49.753,tripletExp_regina_11082022,2022.2.4,120.07259943775514,
12,5,14,2,0.027777777777778,3.10526315789474,2,1.0,0.298245614035088,2,0.25,3.10526315789474,ReadingArea_rsl2-rcl2-esl310-rsm2-rcm100-esm29-rsr2-rcr25-esr310,exr/ReadingArea_rsl2-rcl2-esl310-rsm2-rcm100-esm29-rsr2-rcr25-esr310.exr,ReadingArea_rsl2-rcl2-esl310-rsm2-rcm100-esm29-rsr2-rcr25-esr310.npz,,,,,0,163,163,193,,right,red,2.15,592.8275461196899,593.3354489803314,3,1,4,brightness,readingArea,realistic,75,2023-03-24_14h44.49.753,tripletExp_regina_11082022,2022.2.4,120.07259943775514,
4,14,12,2,0.694444444444444,0.298245614035088,2,0.25,3.10526315789474,2,0.027777777777778,3.10526315789474,ReadingArea_rsl2-rcl69-esl29-rsm2-rcm25-esm310-rsr2-rcr2-esr310,exr/ReadingArea_rsl2-rcl69-esl29-rsm2-rcm25-esm310-rsr2-rcr2-esr310.exr,ReadingArea_rsl2-rcl69-esl29-rsm2-rcm25-esm310-rsr2-rcr2-esr310.npz,,,,,0,164,164,392,,left,green,0.72,595.0380110740662,595.4119510650635,3,1,4,brightness,readingArea,realistic,75,2023-03-24_14h44.49.753,tripletExp_regina_11082022,2022.2.4,120.07259943775514,
5,6,0,2,1.0,0.298245614035088,2,0.027777777777778,1.0,2,0.027777777777778,0.298245614035088,ReadingArea_rsl2-rcl100-esl29-rsm2-rcm2-esm100-rsr2-rcr2-esr29,exr/ReadingArea_rsl2-rcl100-esl29-rsm2-rcm2-esm100-rsr2-rcr2-esr29.exr,ReadingArea_rsl2-rcl100-esl29-rsm2-rcm2-esm100-rsr2-rcr2-esr29.npz,,,,,0,165,165,511,,right,red,0.66,597.112547159195,597.4920840263367,3,1,4,brightness,readingArea,realistic,75,2023-03-24_14h44.49.753,tripletExp_regina_11082022,2022.2.4,120.07259943775514,
5,11,14,2,1.0,0.298245614035088,2,1.0,1.0,2,0.25,3.10526315789474,ReadingArea_rsl2-rcl100-esl29-rsm2-rcm100-esm100-rsr2-rcr25-esr310,exr/ReadingArea_rsl2-rcl100-esl29-rsm2-rcm100-esm100-rsr2-rcr25-esr310.exr,ReadingArea_rsl2-rcl100-esl29-rsm2-rcm100-esm100-rsr2-rcr25-esr310.npz,,,,,0,166,166,258,,right,red,0.56,599.2085111141205,599.5941610336304,3,1,4,brightness,readingArea,realistic,75,2023-03-24_14h44.49.753,tripletExp_regina_11082022,2022.2.4,120.07259943775514,
9,12,11,2,0.444444444444444,1.0,2,0.027777777777778,3.10526315789474,2,1.0,1.0,ReadingArea_rsl2-rcl44-esl100-rsm2-rcm2-esm310-rsr2-rcr100-esr100,exr/ReadingArea_rsl2-rcl44-esl100-rsm2-rcm2-esm310-rsr2-rcr100-esr100.exr,ReadingArea_rsl2-rcl44-esl100-rsm2-rcm2-esm310-rsr2-rcr100-esr100.npz,,,,,0,167,167,144,,left,green,0.93,601.2829570770264,,3,1,4,brightness,readingArea,realistic,75,2023-03-24_14h44.49.753,tripletExp_regina_11082022,2022.2.4,120.07259943775514,
1,4,7,2,0.111111111111111,0.298245614035088,2,0.694444444444444,0.298245614035088,2,0.111111111111111,1.0,ReadingArea_rsl2-rcl11-esl29-rsm2-rcm69-esm29-rsr2-rcr11-esr100,exr/ReadingArea_rsl2-rcl11-esl29-rsm2-rcm69-esm29-rsr2-rcr11-esr100.exr,ReadingArea_rsl2-rcl11-esl29-rsm2-rcm69-esm29-rsr2-rcr11-esr100.npz,,,,,0,168,168,522,,right,red,1.16,603.3961501121521,603.8005051612854,3,1,4,brightness,readingArea,realistic,75,2023-03-24_14h44.49.753,tripletExp_regina_11082022,2022.2.4,120.07259943775514,
7,8,14,2,0.111111111111111,1.0,2,0.25,1.0,2,0.25,3.10526315789474,ReadingArea_rsl2-rcl11-esl100-rsm2-rcm25-esm100-rsr2-rcr25-esr310,exr/ReadingArea_rsl2-rcl11-esl100-rsm2-rcm25-esm100-rsr2-rcr25-esr310.exr,ReadingArea_rsl2-rcl11-esl100-rsm2-rcm25-esm100-rsr2-rcr25-esr310.npz,,,,,0,169,169,300,,left,green,0.65,605.4906461238861,605.9100601673126,3,1,4,brightness,readingArea,realistic,75,2023-03-24_14h44.49.753,tripletExp_regina_11082022,2022.2.4,120.07259943775514,
0,1,7,2,0.027777777777778,0.298245614035088,2,0.111111111111111,0.298245614035088,2,0.111111111111111,1.0,ReadingArea_rsl2-rcl2-esl29-rsm2-rcm11-esm29-rsr2-rcr11-esr100,exr/ReadingArea_rsl2-rcl2-esl29-rsm2-rcm11-esm29-rsr2-rcr11-esr100.exr,ReadingArea_rsl2-rcl2-esl29-rsm2-rcm11-esm29-rsr2-rcr11-esr100.npz,,,,,0,170,170,243,,left,green,1.77,607.6049740314484,607.9883670806885,3,1,4,brightness,readingArea,realistic,75,2023-03-24_14h44.49.753,tripletExp_regina_11082022,2022.2.4,120.07259943775514,
8,6,13,2,0.25,1.0,2,0.027777777777778,1.0,2,0.111111111111111,3.10526315789474,ReadingArea_rsl2-rcl25-esl100-rsm2-rcm2-esm100-rsr2-rcr11-esr310,exr/ReadingArea_rsl2-rcl25-esl100-rsm2-rcm2-esm100-rsr2-rcr11-esr310.exr,ReadingArea_rsl2-rcl25-esl100-rsm2-rcm2-esm100-rsr2-rcr11-esr310.npz,,,,,0,171,171,440,,left,green,1.21,609.6876411437988,610.0752251148224,3,1,4,brightness,readingArea,realistic,75,2023-03-24_14h44.49.753,tripletExp_regina_11082022,2022.2.4,120.07259943775514,
14,5,9,2,0.25,3.10526315789474,2,1.0,0.298245614035088,2,0.444444444444444,1.0,ReadingArea_rsl2-rcl25-esl310-rsm2-rcm100-esm29-rsr2-rcr44-esr100,exr/ReadingArea_rsl2-rcl25-esl310-rsm2-rcm100-esm29-rsr2-rcr44-esr100.exr,ReadingArea_rsl2-rcl25-esl310-rsm2-rcm100-esm29-rsr2-rcr44-esr100.npz,,,,,0,172,172,482,,right,red,0.83,611.784600019455,,3,1,4,brightness,readingArea,realistic,75,2023-03-24_14h44.49.753,tripletExp_regina_11082022,2022.2.4,120.07259943775514,
0,5,7,2,0.027777777777778,0.298245614035088,2,1.0,0.298245614035088,2,0.111111111111111,1.0,ReadingArea_rsl2-rcl2-esl29-rsm2-rcm100-esm29-rsr2-rcr11-esr100,exr/ReadingArea_rsl2-rcl2-esl29-rsm2-rcm100-esm29-rsr2-rcr11-esr100.exr,ReadingArea_rsl2-rcl2-esl29-rsm2-rcm100-esm29-rsr2-rcr11-esr100.npz,,,,,0,173,173,217,,right,red,0.74,613.9174621105194,614.3064329624176,3,1,4,brightness,readingArea,realistic,75,2023-03-24_14h44.49.753,tripletExp_regina_11082022,2022.2.4,120.07259943775514,
12,5,2,2,0.027777777777778,3.10526315789474,2,1.0,0.298245614035088,2,0.25,0.298245614035088,ReadingArea_rsl2-rcl2-esl310-rsm2-rcm100-esm29-rsr2-rcr25-esr29,exr/ReadingArea_rsl2-rcl2-esl310-rsm2-rcm100-esm29-rsr2-rcr25-esr29.exr,ReadingArea_rsl2-rcl2-esl310-rsm2-rcm100-esm29-rsr2-rcr25-esr29.npz,,,,,0,174,174,415,,left,green,2.17,617.7964701652527,618.1847751140594,3,1,4,brightness,readingArea,realistic,75,2023-03-24_14h44.49.753,tripletExp_regina_11082022,2022.2.4,120.07259943775514,
6,0,14,2,0.027777777777778,1.0,2,0.027777777777778,0.298245614035088,2,0.25,3.10526315789474,ReadingArea_rsl2-rcl2-esl100-rsm2-rcm2-esm29-rsr2-rcr25-esr310,exr/ReadingArea_rsl2-rcl2-esl100-rsm2-rcm2-esm29-rsr2-rcr25-esr310.exr,ReadingArea_rsl2-rcl2-esl100-rsm2-rcm2-esm29-rsr2-rcr25-esr310.npz,,,,,0,175,175,169,,left,green,0.63,619.8904571533203,620.2686071395874,3,1,4,brightness,readingArea,realistic,75,2023-03-24_14h44.49.753,tripletExp_regina_11082022,2022.2.4,120.07259943775514,
10,14,1,2,0.694444444444444,1.0,2,0.25,3.10526315789474,2,0.111111111111111,0.298245614035088,ReadingArea_rsl2-rcl69-esl100-rsm2-rcm25-esm310-rsr2-rcr11-esr29,exr/ReadingArea_rsl2-rcl69-esl100-rsm2-rcm25-esm310-rsr2-rcr11-esr29.exr,ReadingArea_rsl2-rcl69-esl100-rsm2-rcm25-esm310-rsr2-rcr11-esr29.npz,,,,,0,176,176,544,,left,green,0.59,621.9651939868927,622.3581161499023,3,1,4,brightness,readingArea,realistic,75,2023-03-24_14h44.49.753,tripletExp_regina_11082022,2022.2.4,120.07259943775514,
4,1,3,2,0.694444444444444,0.298245614035088,2,0.111111111111111,0.298245614035088,2,0.444444444444444,0.298245614035088,ReadingArea_rsl2-rcl69-esl29-rsm2-rcm11-esm29-rsr2-rcr44-esr29,exr/ReadingArea_rsl2-rcl69-esl29-rsm2-rcm11-esm29-rsr2-rcr44-esr29.exr,ReadingArea_rsl2-rcl69-esl29-rsm2-rcm11-esm29-rsr2-rcr44-esr29.npz,,,,,0,177,177,70,,right,red,1.19,624.0538380146027,624.4556660652161,3,1,4,brightness,readingArea,realistic,75,2023-03-24_14h44.49.753,tripletExp_regina_11082022,2022.2.4,120.07259943775514,
9,0,14,2,0.444444444444444,1.0,2,0.027777777777778,0.298245614035088,2,0.25,3.10526315789474,ReadingArea_rsl2-rcl44-esl100-rsm2-rcm2-esm29-rsr2-rcr25-esr310,exr/ReadingArea_rsl2-rcl44-esl100-rsm2-rcm2-esm29-rsr2-rcr25-esr310.exr,ReadingArea_rsl2-rcl44-esl100-rsm2-rcm2-esm29-rsr2-rcr25-esr310.npz,,,,,0,178,178,550,,left,green,0.94,626.1785509586334,,3,1,4,brightness,readingArea,realistic,75,2023-03-24_14h44.49.753,tripletExp_regina_11082022,2022.2.4,120.07259943775514,
6,0,11,2,0.027777777777778,1.0,2,0.027777777777778,0.298245614035088,2,1.0,1.0,ReadingArea_rsl2-rcl2-esl100-rsm2-rcm2-esm29-rsr2-rcr100-esr100,exr/ReadingArea_rsl2-rcl2-esl100-rsm2-rcm2-esm29-rsr2-rcr100-esr100.exr,ReadingArea_rsl2-rcl2-esl100-rsm2-rcm2-esm29-rsr2-rcr100-esr100.npz,,,,,0,179,179,245,,left,green,0.76,628.2681460380554,628.7541010379791,3,1,4,brightness,readingArea,realistic,75,2023-03-24_14h44.49.753,tripletExp_regina_11082022,2022.2.4,120.07259943775514,
3,12,6,2,0.444444444444444,0.298245614035088,2,0.027777777777778,3.10526315789474,2,0.027777777777778,1.0,ReadingArea_rsl2-rcl44-esl29-rsm2-rcm2-esm310-rsr2-rcr2-esr100,exr/ReadingArea_rsl2-rcl44-esl29-rsm2-rcm2-esm310-rsr2-rcr2-esr100.exr,ReadingArea_rsl2-rcl44-esl29-rsm2-rcm2-esm310-rsr2-rcr2-esr100.npz,,,,,0,180,180,353,,left,green,0.7,630.4545600414276,630.8546481132507,3,1,4,brightness,readingArea,realistic,75,2023-03-24_14h44.49.753,tripletExp_regina_11082022,2022.2.4,120.07259943775514,
5,12,7,2,1.0,0.298245614035088,2,0.027777777777778,3.10526315789474,2,0.111111111111111,1.0,ReadingArea_rsl2-rcl100-esl29-rsm2-rcm2-esm310-rsr2-rcr11-esr100,exr/ReadingArea_rsl2-rcl100-esl29-rsm2-rcm2-esm310-rsr2-rcr11-esr100.exr,ReadingArea_rsl2-rcl100-esl29-rsm2-rcm2-esm310-rsr2-rcr11-esr100.npz,,,,,0,181,181,447,,right,red,0.63,632.5687849521637,632.9511620998383,3,1,4,brightness,readingArea,realistic,75,2023-03-24_14h44.49.753,tripletExp_regina_11082022,2022.2.4,120.07259943775514,
6,4,10,2,0.027777777777778,1.0,2,0.694444444444444,0.298245614035088,2,0.694444444444444,1.0,ReadingArea_rsl2-rcl2-esl100-rsm2-rcm69-esm29-rsr2-rcr69-esr100,exr/ReadingArea_rsl2-rcl2-esl100-rsm2-rcm69-esm29-rsr2-rcr69-esr100.exr,ReadingArea_rsl2-rcl2-esl100-rsm2-rcm69-esm29-rsr2-rcr69-esr100.npz,,,,,0,182,182,554,,right,red,2.08,636.4134559631348,,3,1,4,brightness,readingArea,realistic,75,2023-03-24_14h44.49.753,tripletExp_regina_11082022,2022.2.4,120.07259943775514,
4,10,11,2,0.694444444444444,0.298245614035088,2,0.694444444444444,1.0,2,1.0,1.0,ReadingArea_rsl2-rcl69-esl29-rsm2-rcm69-esm100-rsr2-rcr100-esr100,exr/ReadingArea_rsl2-rcl69-esl29-rsm2-rcm69-esm100-rsr2-rcr100-esr100.exr,ReadingArea_rsl2-rcl69-esl29-rsm2-rcm69-esm100-rsr2-rcr100-esr100.npz,,,,,0,183,183,180,,right,red,0.61,638.5012030601501,638.8985421657562,3,1,4,brightness,readingArea,realistic,75,2023-03-24_14h44.49.753,tripletExp_regina_11082022,2022.2.4,120.07259943775514,
11,8,7,2,1.0,1.0,2,0.25,1.0,2,0.111111111111111,1.0,ReadingArea_rsl2-rcl100-esl100-rsm2-rcm25-esm100-rsr2-rcr11-esr100,exr/ReadingArea_rsl2-rcl100-esl100-rsm2-rcm25-esm100-rsr2-rcr11-esr100.exr,ReadingArea_rsl2-rcl100-esl100-rsm2-rcm25-esm100-rsr2-rcr11-esr100.npz,,,,,0,184,184,105,,right,red,0.84,640.6203570365906,641.0144729614258,3,1,4,brightness,readingArea,realistic,75,2023-03-24_14h44.49.753,tripletExp_regina_11082022,2022.2.4,120.07259943775514,
7,5,11,2,0.111111111111111,1.0,2,1.0,0.298245614035088,2,1.0,1.0,ReadingArea_rsl2-rcl11-esl100-rsm2-rcm100-esm29-rsr2-rcr100-esr100,exr/ReadingArea_rsl2-rcl11-esl100-rsm2-rcm100-esm29-rsr2-rcr100-esr100.exr,ReadingArea_rsl2-rcl11-esl100-rsm2-rcm100-esm29-rsr2-rcr100-esr100.npz,,,,,0,185,185,10,,left,green,2.89,644.471137046814,644.8374860286713,3,1,4,brightness,readingArea,realistic,75,2023-03-24_14h44.49.753,tripletExp_regina_11082022,2022.2.4,120.07259943775514,
5,2,0,2,1.0,0.298245614035088,2,0.25,0.298245614035088,2,0.027777777777778,0.298245614035088,ReadingArea_rsl2-rcl100-esl29-rsm2-rcm25-esm29-rsr2-rcr2-esr29,exr/ReadingArea_rsl2-rcl100-esl29-rsm2-rcm25-esm29-rsr2-rcr2-esr29.exr,ReadingArea_rsl2-rcl100-esl29-rsm2-rcm25-esm29-rsr2-rcr2-esr29.npz,,,,,0,186,186,476,,right,red,2.55,648.3390989303589,648.7095730304718,3,1,4,brightness,readingArea,realistic,75,2023-03-24_14h44.49.753,tripletExp_regina_11082022,2022.2.4,120.07259943775514,
0,13,12,2,0.027777777777778,0.298245614035088,2,0.111111111111111,3.10526315789474,2,0.027777777777778,3.10526315789474,ReadingArea_rsl2-rcl2-esl29-rsm2-rcm11-esm310-rsr2-rcr2-esr310,exr/ReadingArea_rsl2-rcl2-esl29-rsm2-rcm11-esm310-rsr2-rcr2-esr310.exr,ReadingArea_rsl2-rcl2-esl29-rsm2-rcm11-esm310-rsr2-rcr2-esr310.npz,,,,,0,187,187,501,,right,red,0.79,650.4252550601959,650.8239469528198,3,1,4,brightness,readingArea,realistic,75,2023-03-24_14h44.49.753,tripletExp_regina_11082022,2022.2.4,120.07259943775514,
10,14,4,2,0.694444444444444,1.0,2,0.25,3.10526315789474,2,0.694444444444444,0.298245614035088,ReadingArea_rsl2-rcl69-esl100-rsm2-rcm25-esm310-rsr2-rcr69-esr29,exr/ReadingArea_rsl2-rcl69-esl100-rsm2-rcm25-esm310-rsr2-rcr69-esr29.exr,ReadingArea_rsl2-rcl69-esl100-rsm2-rcm25-esm310-rsr2-rcr69-esr29.npz,,,,,0,188,188,267,,left,green,0.66,652.5458869934082,652.9153139591217,3,1,4,brightness,readingArea,realistic,75,2023-03-24_14h44.49.753,tripletExp_regina_11082022,2022.2.4,120.07259943775514,
4,8,0,2,0.694444444444444,0.298245614035088,2,0.25,1.0,2,0.027777777777778,0.298245614035088,ReadingArea_rsl2-rcl69-esl29-rsm2-rcm25-esm100-rsr2-rcr2-esr29,exr/ReadingArea_rsl2-rcl69-esl29-rsm2-rcm25-esm100-rsr2-rcr2-esr29.exr,ReadingArea_rsl2-rcl69-esl29-rsm2-rcm25-esm100-rsr2-rcr2-esr29.npz,,,,,0,189,189,137,,left,green,0.59,654.6303269863129,655.1081910133362,3,1,4,brightness,readingArea,realistic,75,2023-03-24_14h44.49.753,tripletExp_regina_11082022,2022.2.4,120.07259943775514,
14,10,13,2,0.25,3.10526315789474,2,0.694444444444444,1.0,2,0.111111111111111,3.10526315789474,ReadingArea_rsl2-rcl25-esl310-rsm2-rcm69-esm100-rsr2-rcr11-esr310,exr/ReadingArea_rsl2-rcl25-esl310-rsm2-rcm69-esm100-rsr2-rcr11-esr310.exr,ReadingArea_rsl2-rcl25-esl310-rsm2-rcm69-esm100-rsr2-rcr11-esr310.npz,,,,,0,190,190,204,,left,green,0.77,656.7992060184479,657.1814620494843,3,1,4,brightness,readingArea,realistic,75,2023-03-24_14h44.49.753,tripletExp_regina_11082022,2022.2.4,120.07259943775514,
7,4,1,2,0.111111111111111,1.0,2,0.694444444444444,0.298245614035088,2,0.111111111111111,0.298245614035088,ReadingArea_rsl2-rcl11-esl100-rsm2-rcm69-esm29-rsr2-rcr11-esr29,exr/ReadingArea_rsl2-rcl11-esl100-rsm2-rcm69-esm29-rsr2-rcr11-esr29.exr,ReadingArea_rsl2-rcl11-esl100-rsm2-rcm69-esm29-rsr2-rcr11-esr29.npz,,,,,0,191,191,369,,right,red,1.42,658.9025681018829,659.2858171463013,3,1,4,brightness,readingArea,realistic,75,2023-03-24_14h44.49.753,tripletExp_regina_11082022,2022.2.4,120.07259943775514,
13,10,11,2,0.111111111111111,3.10526315789474,2,0.694444444444444,1.0,2,1.0,1.0,ReadingArea_rsl2-rcl11-esl310-rsm2-rcm69-esm100-rsr2-rcr100-esr100,exr/ReadingArea_rsl2-rcl11-esl310-rsm2-rcm69-esm100-rsr2-rcr100-esr100.exr,ReadingArea_rsl2-rcl11-esl310-rsm2-rcm69-esm100-rsr2-rcr100-esr100.npz,,,,,0,192,192,320,,right,red,0.76,661.0010559558868,661.3935000896454,3,1,4,brightness,readingArea,realistic,75,2023-03-24_14h44.49.753,tripletExp_regina_11082022,2022.2.4,120.07259943775514,
14,13,0,2,0.25,3.10526315789474,2,0.111111111111111,3.10526315789474,2,0.027777777777778,0.298245614035088,ReadingArea_rsl2-rcl25-esl310-rsm2-rcm11-esm310-rsr2-rcr2-esr29,exr/ReadingArea_rsl2-rcl25-esl310-rsm2-rcm11-esm310-rsr2-rcr2-esr29.exr,ReadingArea_rsl2-rcl25-esl310-rsm2-rcm11-esm310-rsr2-rcr2-esr29.npz,,,,,0,193,193,417,,left,green,2.09,664.8645739555359,665.2532820701599,3,1,4,brightness,readingArea,realistic,75,2023-03-24_14h44.49.753,tripletExp_regina_11082022,2022.2.4,120.07259943775514,
1,8,5,2,0.111111111111111,0.298245614035088,2,0.25,1.0,2,1.0,0.298245614035088,ReadingArea_rsl2-rcl11-esl29-rsm2-rcm25-esm100-rsr2-rcr100-esr29,exr/ReadingArea_rsl2-rcl11-esl29-rsm2-rcm25-esm100-rsr2-rcr100-esr29.exr,ReadingArea_rsl2-rcl11-esl29-rsm2-rcm25-esm100-rsr2-rcr100-esr29.npz,,,,,0,194,194,445,,right,red,0.77,666.9427981376648,667.3211801052094,3,1,4,brightness,readingArea,realistic,75,2023-03-24_14h44.49.753,tripletExp_regina_11082022,2022.2.4,120.07259943775514,
1,13,11,2,0.111111111111111,0.298245614035088,2,0.111111111111111,3.10526315789474,2,1.0,1.0,ReadingArea_rsl2-rcl11-esl29-rsm2-rcm11-esm310-rsr2-rcr100-esr100,exr/ReadingArea_rsl2-rcl11-esl29-rsm2-rcm11-esm310-rsr2-rcr100-esr100.exr,ReadingArea_rsl2-rcl11-esl29-rsm2-rcm11-esm310-rsr2-rcr100-esr100.npz,,,,,0,195,195,333,,right,red,2.05,670.7848410606384,671.1759459972382,3,1,4,brightness,readingArea,realistic,75,2023-03-24_14h44.49.753,tripletExp_regina_11082022,2022.2.4,120.07259943775514,
1,9,7,2,0.111111111111111,0.298245614035088,2,0.444444444444444,1.0,2,0.111111111111111,1.0,ReadingArea_rsl2-rcl11-esl29-rsm2-rcm44-esm100-rsr2-rcr11-esr100,exr/ReadingArea_rsl2-rcl11-esl29-rsm2-rcm44-esm100-rsr2-rcr11-esr100.exr,ReadingArea_rsl2-rcl11-esl29-rsm2-rcm44-esm100-rsr2-rcr11-esr100.npz,,,,,0,196,196,397,,right,red,0.67,672.8851630687714,673.2650401592255,3,1,4,brightness,readingArea,realistic,75,2023-03-24_14h44.49.753,tripletExp_regina_11082022,2022.2.4,120.07259943775514,
14,1,13,2,0.25,3.10526315789474,2,0.111111111111111,0.298245614035088,2,0.111111111111111,3.10526315789474,ReadingArea_rsl2-rcl25-esl310-rsm2-rcm11-esm29-rsr2-rcr11-esr310,exr/ReadingArea_rsl2-rcl25-esl310-rsm2-rcm11-esm29-rsr2-rcr11-esr310.exr,ReadingArea_rsl2-rcl25-esl310-rsm2-rcm11-esm29-rsr2-rcr11-esr310.npz,,,,,0,197,197,265,,right,red,0.61,674.9614160060883,,3,1,4,brightness,readingArea,realistic,75,2023-03-24_14h44.49.753,tripletExp_regina_11082022,2022.2.4,120.07259943775514,
8,1,6,2,0.25,1.0,2,0.111111111111111,0.298245614035088,2,0.027777777777778,1.0,ReadingArea_rsl2-rcl25-esl100-rsm2-rcm11-esm29-rsr2-rcr2-esr100,exr/ReadingArea_rsl2-rcl25-esl100-rsm2-rcm11-esm29-rsr2-rcr2-esr100.exr,ReadingArea_rsl2-rcl25-esl100-rsm2-rcm11-esm29-rsr2-rcr2-esr100.npz,,,,,0,198,198,62,,right,red,0.87,677.0346879959106,677.4615750312805,3,1,4,brightness,readingArea,realistic,75,2023-03-24_14h44.49.753,tripletExp_regina_11082022,2022.2.4,120.07259943775514,
14,0,5,2,0.25,3.10526315789474,2,0.027777777777778,0.298245614035088,2,1.0,0.298245614035088,ReadingArea_rsl2-rcl25-esl310-rsm2-rcm2-esm29-rsr2-rcr100-esr29,exr/ReadingArea_rsl2-rcl25-esl310-rsm2-rcm2-esm29-rsr2-rcr100-esr29.exr,ReadingArea_rsl2-rcl25-esl310-rsm2-rcm2-esm29-rsr2-rcr100-esr29.npz,,,,,0,199,199,418,,right,red,0.82,679.1550991535187,679.5508460998535,3,1,4,brightness,readingArea,realistic,75,2023-03-24_14h44.49.753,tripletExp_regina_11082022,2022.2.4,120.07259943775514,
7,1,9,2,0.111111111111111,1.0,2,0.111111111111111,0.298245614035088,2,0.444444444444444,1.0,ReadingArea_rsl2-rcl11-esl100-rsm2-rcm11-esm29-rsr2-rcr44-esr100,exr/ReadingArea_rsl2-rcl11-esl100-rsm2-rcm11-esm29-rsr2-rcr44-esr100.exr,ReadingArea_rsl2-rcl11-esl100-rsm2-rcm11-esm29-rsr2-rcr44-esr100.npz,,,,,0,200,200,89,,left,green,0.79,681.2600920200348,681.6503441333771,3,1,4,brightness,readingArea,realistic,75,2023-03-24_14h44.49.753,tripletExp_regina_11082022,2022.2.4,120.07259943775514,
5,2,8,2,1.0,0.298245614035088,2,0.25,0.298245614035088,2,0.25,1.0,ReadingArea_rsl2-rcl100-esl29-rsm2-rcm25-esm29-rsr2-rcr25-esr100,exr/ReadingArea_rsl2-rcl100-esl29-rsm2-rcm25-esm29-rsr2-rcr25-esr100.exr,ReadingArea_rsl2-rcl100-esl29-rsm2-rcm25-esm29-rsr2-rcr25-esr100.npz,,,,,0,201,201,538,,right,red,0.93,683.3558399677277,683.7416560649872,3,1,4,brightness,readingArea,realistic,75,2023-03-24_14h44.49.753,tripletExp_regina_11082022,2022.2.4,120.07259943775514,
10,7,8,2,0.694444444444444,1.0,2,0.111111111111111,1.0,2,0.25,1.0,ReadingArea_rsl2-rcl69-esl100-rsm2-rcm11-esm100-rsr2-rcr25-esr100,exr/ReadingArea_rsl2-rcl69-esl100-rsm2-rcm11-esm100-rsr2-rcr25-esr100.exr,ReadingArea_rsl2-rcl69-esl100-rsm2-rcm11-esm100-rsr2-rcr25-esr100.npz,,,,,0,202,202,57,,right,red,0.61,685.4614970684052,685.8439280986786,3,1,4,brightness,readingArea,realistic,75,2023-03-24_14h44.49.753,tripletExp_regina_11082022,2022.2.4,120.07259943775514,
9,8,7,2,0.444444444444444,1.0,2,0.25,1.0,2,0.111111111111111,1.0,ReadingArea_rsl2-rcl44-esl100-rsm2-rcm25-esm100-rsr2-rcr11-esr100,exr/ReadingArea_rsl2-rcl44-esl100-rsm2-rcm25-esm100-rsr2-rcr11-esr100.exr,ReadingArea_rsl2-rcl44-esl100-rsm2-rcm25-esm100-rsr2-rcr11-esr100.npz,,,,,0,203,203,368,,right,red,0.89,687.5572941303253,687.961804151535,3,1,4,brightness,readingArea,realistic,75,2023-03-24_14h44.49.753,tripletExp_regina_11082022,2022.2.4,120.07259943775514,
