index_left,index_middle,index_right,reflectance_surround_left,reflectance_center_left,emission_spot_left,reflectance_surround_middle,reflectance_center_middle,emission_spot_middle,reflectance_surround_right,reflectance_center_right,emission_spot_right,ImageName,ImageExr,ImageNpy,trials_2.thisRepN,trials_2.thisTrialN,trials_2.thisN,trials_2.thisIndex,trials.thisRepN,trials.thisTrialN,trials.thisN,trials.thisIndex,sound_1.started,BB_Trial.resp,BB_Trial.color,BB_Trial.rt,text.started,text.stopped,sound_2.started,block,sound_4.started,participant,session,L/B,scene,condition,nTrialsPerBlock,date,expName,psychopyVersion,frameRate,Unnamed: 42
10,0,3,0,0.694444444444444,1.0,0,0.027777777777778,0.298245614035088,0,0.444444444444444,0.298245614035088,ReadingArea_rsl0-rcl69-esl100-rsm0-rcm2-esm29-rsr0-rcr44-esr29,exr/ReadingArea_rsl0-rcl69-esl100-rsm0-rcm2-esm29-rsr0-rcr44-esr29.exr,ReadingArea_rsl0-rcl69-esl100-rsm0-rcm2-esm29-rsr0-rcr44-esr29.npz,,,,,0,0,0,87,137.57470264434815,right,red,1.11,145.092670917511,145.74644303321838,60.999156618118285,1,,5,4,lightness,readingArea,realistic,75,2023-03-14_10h07.08.751,tripletExp_regina_11082022,2022.2.4,119.97883216481164,
10,13,6,0,0.694444444444444,1.0,0,0.111111111111111,3.10526315789474,0,0.027777777777778,1.0,ReadingArea_rsl0-rcl69-esl100-rsm0-rcm11-esm310-rsr0-rcr2-esr100,exr/ReadingArea_rsl0-rcl69-esl100-rsm0-rcm11-esm310-rsr0-rcr2-esr100.exr,ReadingArea_rsl0-rcl69-esl100-rsm0-rcm11-esm310-rsr0-rcr2-esr100.npz,,,,,0,1,1,351,,left,green,1.14,147.47366404533386,147.97744488716123,,1,,5,4,lightness,readingArea,realistic,75,2023-03-14_10h07.08.751,tripletExp_regina_11082022,2022.2.4,119.97883216481164,
7,13,4,0,0.111111111111111,1.0,0,0.111111111111111,3.10526315789474,0,0.694444444444444,0.298245614035088,ReadingArea_rsl0-rcl11-esl100-rsm0-rcm11-esm310-rsr0-rcr69-esr29,exr/ReadingArea_rsl0-rcl11-esl100-rsm0-rcm11-esm310-rsr0-rcr69-esr29.exr,ReadingArea_rsl0-rcl11-esl100-rsm0-rcm11-esm310-rsr0-rcr69-esr29.npz,,,,,0,2,2,456,,right,red,1.1,149.687077999115,150.18213891983032,,1,,5,4,lightness,readingArea,realistic,75,2023-03-14_10h07.08.751,tripletExp_regina_11082022,2022.2.4,119.97883216481164,
0,5,6,0,0.027777777777778,0.298245614035088,0,1.0,0.298245614035088,0,0.027777777777778,1.0,ReadingArea_rsl0-rcl2-esl29-rsm0-rcm100-esm29-rsr0-rcr2-esr100,exr/ReadingArea_rsl0-rcl2-esl29-rsm0-rcm100-esm29-rsr0-rcr2-esr100.exr,ReadingArea_rsl0-rcl2-esl29-rsm0-rcm100-esm29-rsr0-rcr2-esr100.npz,,,,,0,3,3,374,,right,red,1.39,151.90064191818237,152.32087588310242,,1,,5,4,lightness,readingArea,realistic,75,2023-03-14_10h07.08.751,tripletExp_regina_11082022,2022.2.4,119.97883216481164,
6,3,1,0,0.027777777777778,1.0,0,0.444444444444444,0.298245614035088,0,0.111111111111111,0.298245614035088,ReadingArea_rsl0-rcl2-esl100-rsm0-rcm44-esm29-rsr0-rcr11-esr29,exr/ReadingArea_rsl0-rcl2-esl100-rsm0-rcm44-esm29-rsr0-rcr11-esr29.exr,ReadingArea_rsl0-rcl2-esl100-rsm0-rcm44-esm29-rsr0-rcr11-esr29.npz,,,,,0,4,4,430,,right,red,1.5,154.04382300376892,,,1,,5,4,lightness,readingArea,realistic,75,2023-03-14_10h07.08.751,tripletExp_regina_11082022,2022.2.4,119.97883216481164,
3,11,2,0,0.444444444444444,0.298245614035088,0,1.0,1.0,0,0.25,0.298245614035088,ReadingArea_rsl0-rcl44-esl29-rsm0-rcm100-esm100-rsr0-rcr25-esr29,exr/ReadingArea_rsl0-rcl44-esl29-rsm0-rcm100-esm100-rsr0-rcr25-esr29.exr,ReadingArea_rsl0-rcl44-esl29-rsm0-rcm100-esm100-rsr0-rcr25-esr29.npz,,,,,0,5,5,220,,left,green,2.35,157.94193387031555,158.35823893547058,,1,,5,4,lightness,readingArea,realistic,75,2023-03-14_10h07.08.751,tripletExp_regina_11082022,2022.2.4,119.97883216481164,
9,0,8,0,0.444444444444444,1.0,0,0.027777777777778,0.298245614035088,0,0.25,1.0,ReadingArea_rsl0-rcl44-esl100-rsm0-rcm2-esm29-rsr0-rcr25-esr100,exr/ReadingArea_rsl0-rcl44-esl100-rsm0-rcm2-esm29-rsr0-rcr25-esr100.exr,ReadingArea_rsl0-rcl44-esl100-rsm0-rcm2-esm29-rsr0-rcr25-esr100.npz,,,,,0,6,6,27,,right,red,1.25,160.06411290168762,160.48761296272278,,1,,5,4,lightness,readingArea,realistic,75,2023-03-14_10h07.08.751,tripletExp_regina_11082022,2022.2.4,119.97883216481164,
12,3,10,0,0.027777777777778,3.10526315789474,0,0.444444444444444,0.298245614035088,0,0.694444444444444,1.0,ReadingArea_rsl0-rcl2-esl310-rsm0-rcm44-esm29-rsr0-rcr69-esr100,exr/ReadingArea_rsl0-rcl2-esl310-rsm0-rcm44-esm29-rsr0-rcr69-esr100.exr,ReadingArea_rsl0-rcl2-esl310-rsm0-rcm44-esm29-rsr0-rcr69-esr100.npz,,,,,0,7,7,437,,left,green,1.29,162.17433285713196,162.67976593971252,,1,,5,4,lightness,readingArea,realistic,75,2023-03-14_10h07.08.751,tripletExp_regina_11082022,2022.2.4,119.97883216481164,
5,14,8,0,1.0,0.298245614035088,0,0.25,3.10526315789474,0,0.25,1.0,ReadingArea_rsl0-rcl100-esl29-rsm0-rcm25-esm310-rsr0-rcr25-esr100,exr/ReadingArea_rsl0-rcl100-esl29-rsm0-rcm25-esm310-rsr0-rcr25-esr100.exr,ReadingArea_rsl0-rcl100-esl29-rsm0-rcm25-esm310-rsr0-rcr25-esr100.npz,,,,,0,8,8,14,,right,red,1.52,164.40346097946167,164.90093994140625,,1,,5,4,lightness,readingArea,realistic,75,2023-03-14_10h07.08.751,tripletExp_regina_11082022,2022.2.4,119.97883216481164,
1,4,7,0,0.111111111111111,0.298245614035088,0,0.694444444444444,0.298245614035088,0,0.111111111111111,1.0,ReadingArea_rsl0-rcl11-esl29-rsm0-rcm69-esm29-rsr0-rcr11-esr100,exr/ReadingArea_rsl0-rcl11-esl29-rsm0-rcm69-esm29-rsr0-rcr11-esr100.exr,ReadingArea_rsl0-rcl11-esl29-rsm0-rcm69-esm29-rsr0-rcr11-esr100.npz,,,,,0,9,9,522,,right,red,1.11,166.59665298461914,,,1,,5,4,lightness,readingArea,realistic,75,2023-03-14_10h07.08.751,tripletExp_regina_11082022,2022.2.4,119.97883216481164,
2,9,12,0,0.25,0.298245614035088,0,0.444444444444444,1.0,0,0.027777777777778,3.10526315789474,ReadingArea_rsl0-rcl25-esl29-rsm0-rcm44-esm100-rsr0-rcr2-esr310,exr/ReadingArea_rsl0-rcl25-esl29-rsm0-rcm44-esm100-rsr0-rcr2-esr310.exr,ReadingArea_rsl0-rcl25-esl29-rsm0-rcm44-esm100-rsr0-rcr2-esr310.npz,,,,,0,10,10,354,,left,green,1.33,168.72802186012268,169.13584804534912,,1,,5,4,lightness,readingArea,realistic,75,2023-03-14_10h07.08.751,tripletExp_regina_11082022,2022.2.4,119.97883216481164,
10,4,9,0,0.694444444444444,1.0,0,0.694444444444444,0.298245614035088,0,0.444444444444444,1.0,ReadingArea_rsl0-rcl69-esl100-rsm0-rcm69-esm29-rsr0-rcr44-esr100,exr/ReadingArea_rsl0-rcl69-esl100-rsm0-rcm69-esm29-rsr0-rcr44-esr100.exr,ReadingArea_rsl0-rcl69-esl100-rsm0-rcm69-esm29-rsr0-rcr44-esr100.npz,,,,,0,11,11,452,,right,red,2.24,172.58749890327454,173.01617693901062,,1,,5,4,lightness,readingArea,realistic,75,2023-03-14_10h07.08.751,tripletExp_regina_11082022,2022.2.4,119.97883216481164,
7,4,2,0,0.111111111111111,1.0,0,0.694444444444444,0.298245614035088,0,0.25,0.298245614035088,ReadingArea_rsl0-rcl11-esl100-rsm0-rcm69-esm29-rsr0-rcr25-esr29,exr/ReadingArea_rsl0-rcl11-esl100-rsm0-rcm69-esm29-rsr0-rcr25-esr29.exr,ReadingArea_rsl0-rcl11-esl100-rsm0-rcm69-esm29-rsr0-rcr25-esr29.npz,,,,,0,12,12,146,,right,red,1.23,174.72604990005493,175.1373770236969,,1,,5,4,lightness,readingArea,realistic,75,2023-03-14_10h07.08.751,tripletExp_regina_11082022,2022.2.4,119.97883216481164,
7,14,3,0,0.111111111111111,1.0,0,0.25,3.10526315789474,0,0.444444444444444,0.298245614035088,ReadingArea_rsl0-rcl11-esl100-rsm0-rcm25-esm310-rsr0-rcr44-esr29,exr/ReadingArea_rsl0-rcl11-esl100-rsm0-rcm25-esm310-rsr0-rcr44-esr29.exr,ReadingArea_rsl0-rcl11-esl100-rsm0-rcm25-esm310-rsr0-rcr44-esr29.npz,,,,,0,13,13,103,,right,red,1.12,176.84095907211304,177.3432788848877,,1,,5,4,lightness,readingArea,realistic,75,2023-03-14_10h07.08.751,tripletExp_regina_11082022,2022.2.4,119.97883216481164,
11,12,10,0,1.0,1.0,0,0.027777777777778,3.10526315789474,0,0.694444444444444,1.0,ReadingArea_rsl0-rcl100-esl100-rsm0-rcm2-esm310-rsr0-rcr69-esr100,exr/ReadingArea_rsl0-rcl100-esl100-rsm0-rcm2-esm310-rsr0-rcr69-esr100.exr,ReadingArea_rsl0-rcl100-esl100-rsm0-rcm2-esm310-rsr0-rcr69-esr100.npz,,,,,0,14,14,465,,left,green,3.1,180.7846019268036,181.22892999649048,,1,,5,4,lightness,readingArea,realistic,75,2023-03-14_10h07.08.751,tripletExp_regina_11082022,2022.2.4,119.97883216481164,
11,5,2,0,1.0,1.0,0,1.0,0.298245614035088,0,0.25,0.298245614035088,ReadingArea_rsl0-rcl100-esl100-rsm0-rcm100-esm29-rsr0-rcr25-esr29,exr/ReadingArea_rsl0-rcl100-esl100-rsm0-rcm100-esm29-rsr0-rcr25-esr29.exr,ReadingArea_rsl0-rcl100-esl100-rsm0-rcm100-esm29-rsr0-rcr25-esr29.npz,,,,,0,15,15,596,,left,green,2.9,184.694787979126,185.1213428974152,,1,,5,4,lightness,readingArea,realistic,75,2023-03-14_10h07.08.751,tripletExp_regina_11082022,2022.2.4,119.97883216481164,
3,14,12,0,0.444444444444444,0.298245614035088,0,0.25,3.10526315789474,0,0.027777777777778,3.10526315789474,ReadingArea_rsl0-rcl44-esl29-rsm0-rcm25-esm310-rsr0-rcr2-esr310,exr/ReadingArea_rsl0-rcl44-esl29-rsm0-rcm25-esm310-rsr0-rcr2-esr310.exr,ReadingArea_rsl0-rcl44-esl29-rsm0-rcm25-esm310-rsr0-rcr2-esr310.npz,,,,,0,16,16,336,,right,red,2.96,188.5909039974213,,,1,,5,4,lightness,readingArea,realistic,75,2023-03-14_10h07.08.751,tripletExp_regina_11082022,2022.2.4,119.97883216481164,
8,3,12,0,0.25,1.0,0,0.444444444444444,0.298245614035088,0,0.027777777777778,3.10526315789474,ReadingArea_rsl0-rcl25-esl100-rsm0-rcm44-esm29-rsr0-rcr2-esr310,exr/ReadingArea_rsl0-rcl25-esl100-rsm0-rcm44-esm29-rsr0-rcr2-esr310.exr,ReadingArea_rsl0-rcl25-esl100-rsm0-rcm44-esm29-rsr0-rcr2-esr310.npz,,,,,0,17,17,22,,left,green,1.4,190.85486602783203,191.2958209514618,,1,,5,4,lightness,readingArea,realistic,75,2023-03-14_10h07.08.751,tripletExp_regina_11082022,2022.2.4,119.97883216481164,
8,9,2,0,0.25,1.0,0,0.444444444444444,1.0,0,0.25,0.298245614035088,ReadingArea_rsl0-rcl25-esl100-rsm0-rcm44-esm100-rsr0-rcr25-esr29,exr/ReadingArea_rsl0-rcl25-esl100-rsm0-rcm44-esm100-rsr0-rcr25-esr29.exr,ReadingArea_rsl0-rcl25-esl100-rsm0-rcm44-esm100-rsr0-rcr25-esr29.npz,,,,,0,18,18,559,,left,green,1.55,193.0194170475006,193.44626092910767,,1,,5,4,lightness,readingArea,realistic,75,2023-03-14_10h07.08.751,tripletExp_regina_11082022,2022.2.4,119.97883216481164,
0,8,14,0,0.027777777777778,0.298245614035088,0,0.25,1.0,0,0.25,3.10526315789474,ReadingArea_rsl0-rcl2-esl29-rsm0-rcm25-esm100-rsr0-rcr25-esr310,exr/ReadingArea_rsl0-rcl2-esl29-rsm0-rcm25-esm100-rsr0-rcr25-esr310.exr,ReadingArea_rsl0-rcl2-esl29-rsm0-rcm25-esm100-rsr0-rcr25-esr310.npz,,,,,0,19,19,114,,right,red,2.77,196.9217500686645,197.33777594566345,,1,,5,4,lightness,readingArea,realistic,75,2023-03-14_10h07.08.751,tripletExp_regina_11082022,2022.2.4,119.97883216481164,
12,5,14,0,0.027777777777778,3.10526315789474,0,1.0,0.298245614035088,0,0.25,3.10526315789474,ReadingArea_rsl0-rcl2-esl310-rsm0-rcm100-esm29-rsr0-rcr25-esr310,exr/ReadingArea_rsl0-rcl2-esl310-rsm0-rcm100-esm29-rsr0-rcr25-esr310.exr,ReadingArea_rsl0-rcl2-esl310-rsm0-rcm100-esm29-rsr0-rcr25-esr310.npz,,,,,0,20,20,193,,right,red,3.02,200.8131358623505,201.41508507728577,,1,,5,4,lightness,readingArea,realistic,75,2023-03-14_10h07.08.751,tripletExp_regina_11082022,2022.2.4,119.97883216481164,
2,12,6,0,0.25,0.298245614035088,0,0.027777777777778,3.10526315789474,0,0.027777777777778,1.0,ReadingArea_rsl0-rcl25-esl29-rsm0-rcm2-esm310-rsr0-rcr2-esr100,exr/ReadingArea_rsl0-rcl25-esl29-rsm0-rcm2-esm310-rsr0-rcr2-esr100.exr,ReadingArea_rsl0-rcl25-esl29-rsm0-rcm2-esm310-rsr0-rcr2-esr100.npz,,,,,0,21,21,400,,left,green,2.94,204.900465965271,205.3363058567047,,1,,5,4,lightness,readingArea,realistic,75,2023-03-14_10h07.08.751,tripletExp_regina_11082022,2022.2.4,119.97883216481164,
4,1,3,0,0.694444444444444,0.298245614035088,0,0.111111111111111,0.298245614035088,0,0.444444444444444,0.298245614035088,ReadingArea_rsl0-rcl69-esl29-rsm0-rcm11-esm29-rsr0-rcr44-esr29,exr/ReadingArea_rsl0-rcl69-esl29-rsm0-rcm11-esm29-rsr0-rcr44-esr29.exr,ReadingArea_rsl0-rcl69-esl29-rsm0-rcm11-esm29-rsr0-rcr44-esr29.npz,,,,,0,22,22,70,,right,red,2.81,208.8107659816742,,,1,,5,4,lightness,readingArea,realistic,75,2023-03-14_10h07.08.751,tripletExp_regina_11082022,2022.2.4,119.97883216481164,
4,0,3,0,0.694444444444444,0.298245614035088,0,0.027777777777778,0.298245614035088,0,0.444444444444444,0.298245614035088,ReadingArea_rsl0-rcl69-esl29-rsm0-rcm2-esm29-rsr0-rcr44-esr29,exr/ReadingArea_rsl0-rcl69-esl29-rsm0-rcm2-esm29-rsr0-rcr44-esr29.exr,ReadingArea_rsl0-rcl69-esl29-rsm0-rcm2-esm29-rsr0-rcr44-esr29.npz,,,,,0,23,23,88,,right,red,2.93,212.69372987747192,213.17802000045776,,1,,5,4,lightness,readingArea,realistic,75,2023-03-14_10h07.08.751,tripletExp_regina_11082022,2022.2.4,119.97883216481164,
10,6,3,0,0.694444444444444,1.0,0,0.027777777777778,1.0,0,0.444444444444444,0.298245614035088,ReadingArea_rsl0-rcl69-esl100-rsm0-rcm2-esm100-rsr0-rcr44-esr29,exr/ReadingArea_rsl0-rcl69-esl100-rsm0-rcm2-esm100-rsr0-rcr44-esr29.exr,ReadingArea_rsl0-rcl69-esl100-rsm0-rcm2-esm100-rsr0-rcr44-esr29.npz,,,,,0,24,24,0,,right,red,2.34,216.66253399848927,,,1,,5,4,lightness,readingArea,realistic,75,2023-03-14_10h07.08.751,tripletExp_regina_11082022,2022.2.4,119.97883216481164,
9,6,13,0,0.444444444444444,1.0,0,0.027777777777778,1.0,0,0.111111111111111,3.10526315789474,ReadingArea_rsl0-rcl44-esl100-rsm0-rcm2-esm100-rsr0-rcr11-esr310,exr/ReadingArea_rsl0-rcl44-esl100-rsm0-rcm2-esm100-rsr0-rcr11-esr310.exr,ReadingArea_rsl0-rcl44-esl100-rsm0-rcm2-esm100-rsr0-rcr11-esr310.npz,,,,,0,25,25,285,,right,red,1.2,218.78351402282715,219.2834439277649,,1,,5,4,lightness,readingArea,realistic,75,2023-03-14_10h07.08.751,tripletExp_regina_11082022,2022.2.4,119.97883216481164,
13,7,11,0,0.111111111111111,3.10526315789474,0,0.111111111111111,1.0,0,1.0,1.0,ReadingArea_rsl0-rcl11-esl310-rsm0-rcm11-esm100-rsr0-rcr100-esr100,exr/ReadingArea_rsl0-rcl11-esl310-rsm0-rcm11-esm100-rsr0-rcr100-esr100.exr,ReadingArea_rsl0-rcl11-esl310-rsm0-rcm11-esm100-rsr0-rcr100-esr100.npz,,,,,0,26,26,121,,left,green,0.97,220.9712600708008,,,1,,5,4,lightness,readingArea,realistic,75,2023-03-14_10h07.08.751,tripletExp_regina_11082022,2022.2.4,119.97883216481164,
5,14,4,0,1.0,0.298245614035088,0,0.25,3.10526315789474,0,0.694444444444444,0.298245614035088,ReadingArea_rsl0-rcl100-esl29-rsm0-rcm25-esm310-rsr0-rcr69-esr29,exr/ReadingArea_rsl0-rcl100-esl29-rsm0-rcm25-esm310-rsr0-rcr69-esr29.exr,ReadingArea_rsl0-rcl100-esl29-rsm0-rcm25-esm310-rsr0-rcr69-esr29.npz,,,,,0,27,27,69,,right,red,2.8,224.86485290527344,225.30378794670105,,1,,5,4,lightness,readingArea,realistic,75,2023-03-14_10h07.08.751,tripletExp_regina_11082022,2022.2.4,119.97883216481164,
11,3,12,0,1.0,1.0,0,0.444444444444444,0.298245614035088,0,0.027777777777778,3.10526315789474,ReadingArea_rsl0-rcl100-esl100-rsm0-rcm44-esm29-rsr0-rcr2-esr310,exr/ReadingArea_rsl0-rcl100-esl100-rsm0-rcm44-esm29-rsr0-rcr2-esr310.exr,ReadingArea_rsl0-rcl100-esl100-rsm0-rcm44-esm29-rsr0-rcr2-esr310.npz,,,,,0,28,28,355,,right,red,1.12,227.0119149684906,227.43922400474548,,1,,5,4,lightness,readingArea,realistic,75,2023-03-14_10h07.08.751,tripletExp_regina_11082022,2022.2.4,119.97883216481164,
5,13,12,0,1.0,0.298245614035088,0,0.111111111111111,3.10526315789474,0,0.027777777777778,3.10526315789474,ReadingArea_rsl0-rcl100-esl29-rsm0-rcm11-esm310-rsr0-rcr2-esr310,exr/ReadingArea_rsl0-rcl100-esl29-rsm0-rcm11-esm310-rsr0-rcr2-esr310.exr,ReadingArea_rsl0-rcl100-esl29-rsm0-rcm11-esm310-rsr0-rcr2-esr310.npz,,,,,0,29,29,389,,left,green,2.25,230.8931739330292,231.30919194221497,,1,,5,4,lightness,readingArea,realistic,75,2023-03-14_10h07.08.751,tripletExp_regina_11082022,2022.2.4,119.97883216481164,
11,0,6,0,1.0,1.0,0,0.027777777777778,0.298245614035088,0,0.027777777777778,1.0,ReadingArea_rsl0-rcl100-esl100-rsm0-rcm2-esm29-rsr0-rcr2-esr100,exr/ReadingArea_rsl0-rcl100-esl100-rsm0-rcm2-esm29-rsr0-rcr2-esr100.exr,ReadingArea_rsl0-rcl100-esl100-rsm0-rcm2-esm29-rsr0-rcr2-esr100.npz,,,,,0,30,30,586,,right,red,2.74,234.77761888504028,235.207330942154,,1,,5,4,lightness,readingArea,realistic,75,2023-03-14_10h07.08.751,tripletExp_regina_11082022,2022.2.4,119.97883216481164,
2,12,13,0,0.25,0.298245614035088,0,0.027777777777778,3.10526315789474,0,0.111111111111111,3.10526315789474,ReadingArea_rsl0-rcl25-esl29-rsm0-rcm2-esm310-rsr0-rcr11-esr310,exr/ReadingArea_rsl0-rcl25-esl29-rsm0-rcm2-esm310-rsr0-rcr11-esr310.exr,ReadingArea_rsl0-rcl25-esl29-rsm0-rcm2-esm310-rsr0-rcr11-esr310.npz,,,,,0,31,31,232,,left,green,2.69,238.6608250141144,239.1313319206237,,1,,5,4,lightness,readingArea,realistic,75,2023-03-14_10h07.08.751,tripletExp_regina_11082022,2022.2.4,119.97883216481164,
0,5,11,0,0.027777777777778,0.298245614035088,0,1.0,0.298245614035088,0,1.0,1.0,ReadingArea_rsl0-rcl2-esl29-rsm0-rcm100-esm29-rsr0-rcr100-esr100,exr/ReadingArea_rsl0-rcl2-esl29-rsm0-rcm100-esm29-rsr0-rcr100-esr100.exr,ReadingArea_rsl0-rcl2-esl29-rsm0-rcm100-esm29-rsr0-rcr100-esr100.npz,,,,,0,32,32,422,,right,red,1.31,240.85577201843265,241.28160905838013,,1,,5,4,lightness,readingArea,realistic,75,2023-03-14_10h07.08.751,tripletExp_regina_11082022,2022.2.4,119.97883216481164,
7,2,0,0,0.111111111111111,1.0,0,0.25,0.298245614035088,0,0.027777777777778,0.298245614035088,ReadingArea_rsl0-rcl11-esl100-rsm0-rcm25-esm29-rsr0-rcr2-esr29,exr/ReadingArea_rsl0-rcl11-esl100-rsm0-rcm25-esm29-rsr0-rcr2-esr29.exr,ReadingArea_rsl0-rcl11-esl100-rsm0-rcm25-esm29-rsr0-rcr2-esr29.npz,,,,,0,33,33,520,,left,green,2.48,244.76519298553467,245.1952679157257,,1,,5,4,lightness,readingArea,realistic,75,2023-03-14_10h07.08.751,tripletExp_regina_11082022,2022.2.4,119.97883216481164,
14,6,2,0,0.25,3.10526315789474,0,0.027777777777778,1.0,0,0.25,0.298245614035088,ReadingArea_rsl0-rcl25-esl310-rsm0-rcm2-esm100-rsr0-rcr25-esr29,exr/ReadingArea_rsl0-rcl25-esl310-rsm0-rcm2-esm100-rsr0-rcr25-esr29.exr,ReadingArea_rsl0-rcl25-esl310-rsm0-rcm2-esm100-rsr0-rcr25-esr29.npz,,,,,0,34,34,272,,right,red,2.97,248.6594579219818,249.2142400741577,,1,,5,4,lightness,readingArea,realistic,75,2023-03-14_10h07.08.751,tripletExp_regina_11082022,2022.2.4,119.97883216481164,
8,13,3,0,0.25,1.0,0,0.111111111111111,3.10526315789474,0,0.444444444444444,0.298245614035088,ReadingArea_rsl0-rcl25-esl100-rsm0-rcm11-esm310-rsr0-rcr44-esr29,exr/ReadingArea_rsl0-rcl25-esl100-rsm0-rcm11-esm310-rsr0-rcr44-esr29.exr,ReadingArea_rsl0-rcl25-esl100-rsm0-rcm11-esm310-rsr0-rcr44-esr29.npz,,,,,0,35,35,553,,left,green,2.78,252.6927530765533,,,1,,5,4,lightness,readingArea,realistic,75,2023-03-14_10h07.08.751,tripletExp_regina_11082022,2022.2.4,119.97883216481164,
2,6,0,0,0.25,0.298245614035088,0,0.027777777777778,1.0,0,0.027777777777778,0.298245614035088,ReadingArea_rsl0-rcl25-esl29-rsm0-rcm2-esm100-rsr0-rcr2-esr29,exr/ReadingArea_rsl0-rcl25-esl29-rsm0-rcm2-esm100-rsr0-rcr2-esr29.exr,ReadingArea_rsl0-rcl25-esl29-rsm0-rcm2-esm100-rsr0-rcr2-esr29.npz,,,,,0,36,36,525,,right,red,2.93,256.6062078475952,257.0261878967285,,1,,5,4,lightness,readingArea,realistic,75,2023-03-14_10h07.08.751,tripletExp_regina_11082022,2022.2.4,119.97883216481164,
7,12,0,0,0.111111111111111,1.0,0,0.027777777777778,3.10526315789474,0,0.027777777777778,0.298245614035088,ReadingArea_rsl0-rcl11-esl100-rsm0-rcm2-esm310-rsr0-rcr2-esr29,exr/ReadingArea_rsl0-rcl11-esl100-rsm0-rcm2-esm310-rsr0-rcr2-esr29.exr,ReadingArea_rsl0-rcl11-esl100-rsm0-rcm2-esm310-rsr0-rcr2-esr29.npz,,,,,0,37,37,425,,left,green,1.09,258.751435995102,259.2183539867401,,1,,5,4,lightness,readingArea,realistic,75,2023-03-14_10h07.08.751,tripletExp_regina_11082022,2022.2.4,119.97883216481164,
5,4,10,0,1.0,0.298245614035088,0,0.694444444444444,0.298245614035088,0,0.694444444444444,1.0,ReadingArea_rsl0-rcl100-esl29-rsm0-rcm69-esm29-rsr0-rcr69-esr100,exr/ReadingArea_rsl0-rcl100-esl29-rsm0-rcm69-esm29-rsr0-rcr69-esr100.exr,ReadingArea_rsl0-rcl100-esl29-rsm0-rcm69-esm29-rsr0-rcr69-esr100.npz,,,,,0,38,38,536,,left,green,2.78,262.6978499889374,263.14259600639343,,1,,5,4,lightness,readingArea,realistic,75,2023-03-14_10h07.08.751,tripletExp_regina_11082022,2022.2.4,119.97883216481164,
1,13,14,0,0.111111111111111,0.298245614035088,0,0.111111111111111,3.10526315789474,0,0.25,3.10526315789474,ReadingArea_rsl0-rcl11-esl29-rsm0-rcm11-esm310-rsr0-rcr25-esr310,exr/ReadingArea_rsl0-rcl11-esl29-rsm0-rcm11-esm310-rsr0-rcr25-esr310.exr,ReadingArea_rsl0-rcl11-esl29-rsm0-rcm11-esm310-rsr0-rcr25-esr310.npz,,,,,0,39,39,183,,right,red,2.49,266.6520390510559,267.1429328918457,,1,,5,4,lightness,readingArea,realistic,75,2023-03-14_10h07.08.751,tripletExp_regina_11082022,2022.2.4,119.97883216481164,
5,12,7,0,1.0,0.298245614035088,0,0.027777777777778,3.10526315789474,0,0.111111111111111,1.0,ReadingArea_rsl0-rcl100-esl29-rsm0-rcm2-esm310-rsr0-rcr11-esr100,exr/ReadingArea_rsl0-rcl100-esl29-rsm0-rcm2-esm310-rsr0-rcr11-esr100.exr,ReadingArea_rsl0-rcl100-esl29-rsm0-rcm2-esm310-rsr0-rcr11-esr100.npz,,,,,0,40,40,447,,right,red,2.63,270.59156489372253,271.0313010215759,,1,,5,4,lightness,readingArea,realistic,75,2023-03-14_10h07.08.751,tripletExp_regina_11082022,2022.2.4,119.97883216481164,
6,11,14,0,0.027777777777778,1.0,0,1.0,1.0,0,0.25,3.10526315789474,ReadingArea_rsl0-rcl2-esl100-rsm0-rcm100-esm100-rsr0-rcr25-esr310,exr/ReadingArea_rsl0-rcl2-esl100-rsm0-rcm100-esm100-rsr0-rcr25-esr310.exr,ReadingArea_rsl0-rcl2-esl100-rsm0-rcm100-esm100-rsr0-rcr25-esr310.npz,,,,,0,41,41,262,,right,red,1.16,272.7487449645996,273.20668506622314,,1,,5,4,lightness,readingArea,realistic,75,2023-03-14_10h07.08.751,tripletExp_regina_11082022,2022.2.4,119.97883216481164,
1,5,13,0,0.111111111111111,0.298245614035088,0,1.0,0.298245614035088,0,0.111111111111111,3.10526315789474,ReadingArea_rsl0-rcl11-esl29-rsm0-rcm100-esm29-rsr0-rcr11-esr310,exr/ReadingArea_rsl0-rcl11-esl29-rsm0-rcm100-esm29-rsr0-rcr11-esr310.exr,ReadingArea_rsl0-rcl11-esl29-rsm0-rcm100-esm29-rsr0-rcr11-esr310.npz,,,,,0,42,42,598,,right,red,1.21,274.930438041687,275.3499209880829,,1,,5,4,lightness,readingArea,realistic,75,2023-03-14_10h07.08.751,tripletExp_regina_11082022,2022.2.4,119.97883216481164,
0,13,1,0,0.027777777777778,0.298245614035088,0,0.111111111111111,3.10526315789474,0,0.111111111111111,0.298245614035088,ReadingArea_rsl0-rcl2-esl29-rsm0-rcm11-esm310-rsr0-rcr11-esr29,exr/ReadingArea_rsl0-rcl2-esl29-rsm0-rcm11-esm310-rsr0-rcr11-esr29.exr,ReadingArea_rsl0-rcl2-esl29-rsm0-rcm11-esm310-rsr0-rcr11-esr29.npz,,,,,0,43,43,458,,right,red,2.44,278.82282185554504,279.268611907959,,1,,5,4,lightness,readingArea,realistic,75,2023-03-14_10h07.08.751,tripletExp_regina_11082022,2022.2.4,119.97883216481164,
0,4,12,0,0.027777777777778,0.298245614035088,0,0.694444444444444,0.298245614035088,0,0.027777777777778,3.10526315789474,ReadingArea_rsl0-rcl2-esl29-rsm0-rcm69-esm29-rsr0-rcr2-esr310,exr/ReadingArea_rsl0-rcl2-esl29-rsm0-rcm69-esm29-rsr0-rcr2-esr310.exr,ReadingArea_rsl0-rcl2-esl29-rsm0-rcm69-esm29-rsr0-rcr2-esr310.npz,,,,,0,44,44,150,,right,red,2.85,282.7633819580078,283.2745108604431,,1,,5,4,lightness,readingArea,realistic,75,2023-03-14_10h07.08.751,tripletExp_regina_11082022,2022.2.4,119.97883216481164,
9,11,10,0,0.444444444444444,1.0,0,1.0,1.0,0,0.694444444444444,1.0,ReadingArea_rsl0-rcl44-esl100-rsm0-rcm100-esm100-rsr0-rcr69-esr100,exr/ReadingArea_rsl0-rcl44-esl100-rsm0-rcm100-esm100-rsr0-rcr69-esr100.exr,ReadingArea_rsl0-rcl44-esl100-rsm0-rcm100-esm100-rsr0-rcr69-esr100.npz,,,,,0,45,45,591,,right,red,2.82,286.7387709617615,287.1917538642884,,1,,5,4,lightness,readingArea,realistic,75,2023-03-14_10h07.08.751,tripletExp_regina_11082022,2022.2.4,119.97883216481164,
13,2,9,0,0.111111111111111,3.10526315789474,0,0.25,0.298245614035088,0,0.444444444444444,1.0,ReadingArea_rsl0-rcl11-esl310-rsm0-rcm25-esm29-rsr0-rcr44-esr100,exr/ReadingArea_rsl0-rcl11-esl310-rsm0-rcm25-esm29-rsr0-rcr44-esr100.exr,ReadingArea_rsl0-rcl11-esl310-rsm0-rcm25-esm29-rsr0-rcr44-esr100.npz,,,,,0,46,46,457,,left,green,1.31,288.9115760326385,289.3344988822937,,1,,5,4,lightness,readingArea,realistic,75,2023-03-14_10h07.08.751,tripletExp_regina_11082022,2022.2.4,119.97883216481164,
7,3,5,0,0.111111111111111,1.0,0,0.444444444444444,0.298245614035088,0,1.0,0.298245614035088,ReadingArea_rsl0-rcl11-esl100-rsm0-rcm44-esm29-rsr0-rcr100-esr29,exr/ReadingArea_rsl0-rcl11-esl100-rsm0-rcm44-esm29-rsr0-rcr100-esr29.exr,ReadingArea_rsl0-rcl11-esl100-rsm0-rcm44-esm29-rsr0-rcr100-esr29.npz,,,,,0,47,47,589,,left,green,1.23,291.0297989845276,291.46504306793213,,1,,5,4,lightness,readingArea,realistic,75,2023-03-14_10h07.08.751,tripletExp_regina_11082022,2022.2.4,119.97883216481164,
14,8,3,0,0.25,3.10526315789474,0,0.25,1.0,0,0.444444444444444,0.298245614035088,ReadingArea_rsl0-rcl25-esl310-rsm0-rcm25-esm100-rsr0-rcr44-esr29,exr/ReadingArea_rsl0-rcl25-esl310-rsm0-rcm25-esm100-rsr0-rcr44-esr29.exr,ReadingArea_rsl0-rcl25-esl310-rsm0-rcm25-esm100-rsr0-rcr44-esr29.npz,,,,,0,48,48,100,,right,red,1.34,293.1591649055481,293.58976197242737,,1,,5,4,lightness,readingArea,realistic,75,2023-03-14_10h07.08.751,tripletExp_regina_11082022,2022.2.4,119.97883216481164,
8,12,3,0,0.25,1.0,0,0.027777777777778,3.10526315789474,0,0.444444444444444,0.298245614035088,ReadingArea_rsl0-rcl25-esl100-rsm0-rcm2-esm310-rsr0-rcr44-esr29,exr/ReadingArea_rsl0-rcl25-esl100-rsm0-rcm2-esm310-rsr0-rcr44-esr29.exr,ReadingArea_rsl0-rcl25-esl100-rsm0-rcm2-esm310-rsr0-rcr44-esr29.npz,,,,,0,49,49,6,,left,green,2.79,297.0856809616089,297.5073800086975,,1,,5,4,lightness,readingArea,realistic,75,2023-03-14_10h07.08.751,tripletExp_regina_11082022,2022.2.4,119.97883216481164,
12,0,2,0,0.027777777777778,3.10526315789474,0,0.027777777777778,0.298245614035088,0,0.25,0.298245614035088,ReadingArea_rsl0-rcl2-esl310-rsm0-rcm2-esm29-rsr0-rcr25-esr29,exr/ReadingArea_rsl0-rcl2-esl310-rsm0-rcm2-esm29-rsr0-rcr25-esr29.exr,ReadingArea_rsl0-rcl2-esl310-rsm0-rcm2-esm29-rsr0-rcr25-esr29.npz,,,,,0,50,50,77,,left,green,2.91,300.9746859073639,301.3958868980408,,1,,5,4,lightness,readingArea,realistic,75,2023-03-14_10h07.08.751,tripletExp_regina_11082022,2022.2.4,119.97883216481164,
6,11,1,0,0.027777777777778,1.0,0,1.0,1.0,0,0.111111111111111,0.298245614035088,ReadingArea_rsl0-rcl2-esl100-rsm0-rcm100-esm100-rsr0-rcr11-esr29,exr/ReadingArea_rsl0-rcl2-esl100-rsm0-rcm100-esm100-rsr0-rcr11-esr29.exr,ReadingArea_rsl0-rcl2-esl100-rsm0-rcm100-esm100-rsr0-rcr11-esr29.npz,,,,,0,51,51,436,,right,red,2.49,304.87301898002625,305.29763984680176,,1,,5,4,lightness,readingArea,realistic,75,2023-03-14_10h07.08.751,tripletExp_regina_11082022,2022.2.4,119.97883216481164,
14,3,4,0,0.25,3.10526315789474,0,0.444444444444444,0.298245614035088,0,0.694444444444444,0.298245614035088,ReadingArea_rsl0-rcl25-esl310-rsm0-rcm44-esm29-rsr0-rcr69-esr29,exr/ReadingArea_rsl0-rcl25-esl310-rsm0-rcm44-esm29-rsr0-rcr69-esr29.exr,ReadingArea_rsl0-rcl25-esl310-rsm0-rcm44-esm29-rsr0-rcr69-esr29.npz,,,,,0,52,52,127,,right,red,2.4,308.7647268772125,309.2609510421753,,1,,5,4,lightness,readingArea,realistic,75,2023-03-14_10h07.08.751,tripletExp_regina_11082022,2022.2.4,119.97883216481164,
13,10,12,0,0.111111111111111,3.10526315789474,0,0.694444444444444,1.0,0,0.027777777777778,3.10526315789474,ReadingArea_rsl0-rcl11-esl310-rsm0-rcm69-esm100-rsr0-rcr2-esr310,exr/ReadingArea_rsl0-rcl11-esl310-rsm0-rcm69-esm100-rsr0-rcr2-esr310.exr,ReadingArea_rsl0-rcl11-esl310-rsm0-rcm69-esm100-rsr0-rcr2-esr310.npz,,,,,0,53,53,384,,left,green,4.1,314.5016269683838,315.023001909256,,1,,5,4,lightness,readingArea,realistic,75,2023-03-14_10h07.08.751,tripletExp_regina_11082022,2022.2.4,119.97883216481164,
5,10,12,0,1.0,0.298245614035088,0,0.694444444444444,1.0,0,0.027777777777778,3.10526315789474,ReadingArea_rsl0-rcl100-esl29-rsm0-rcm69-esm100-rsr0-rcr2-esr310,exr/ReadingArea_rsl0-rcl100-esl29-rsm0-rcm69-esm100-rsr0-rcr2-esr310.exr,ReadingArea_rsl0-rcl100-esl29-rsm0-rcm69-esm100-rsr0-rcr2-esr310.npz,,,,,0,54,54,587,,left,green,2.35,318.4763259887696,318.8976089954376,,1,,5,4,lightness,readingArea,realistic,75,2023-03-14_10h07.08.751,tripletExp_regina_11082022,2022.2.4,119.97883216481164,
11,5,8,0,1.0,1.0,0,1.0,0.298245614035088,0,0.25,1.0,ReadingArea_rsl0-rcl100-esl100-rsm0-rcm100-esm29-rsr0-rcr25-esr100,exr/ReadingArea_rsl0-rcl100-esl100-rsm0-rcm100-esm29-rsr0-rcr25-esr100.exr,ReadingArea_rsl0-rcl100-esl100-rsm0-rcm100-esm29-rsr0-rcr25-esr100.npz,,,,,0,55,55,86,,right,red,1.13,320.62244486808777,321.05607986450195,,1,,5,4,lightness,readingArea,realistic,75,2023-03-14_10h07.08.751,tripletExp_regina_11082022,2022.2.4,119.97883216481164,
8,0,6,0,0.25,1.0,0,0.027777777777778,0.298245614035088,0,0.027777777777778,1.0,ReadingArea_rsl0-rcl25-esl100-rsm0-rcm2-esm29-rsr0-rcr2-esr100,exr/ReadingArea_rsl0-rcl25-esl100-rsm0-rcm2-esm29-rsr0-rcr2-esr100.exr,ReadingArea_rsl0-rcl25-esl100-rsm0-rcm2-esm29-rsr0-rcr2-esr100.npz,,,,,0,56,56,401,,right,red,2.28,324.5099070072174,324.94169306755066,,1,,5,4,lightness,readingArea,realistic,75,2023-03-14_10h07.08.751,tripletExp_regina_11082022,2022.2.4,119.97883216481164,
10,11,12,0,0.694444444444444,1.0,0,1.0,1.0,0,0.027777777777778,3.10526315789474,ReadingArea_rsl0-rcl69-esl100-rsm0-rcm100-esm100-rsr0-rcr2-esr310,exr/ReadingArea_rsl0-rcl69-esl100-rsm0-rcm100-esm100-rsr0-rcr2-esr310.exr,ReadingArea_rsl0-rcl69-esl100-rsm0-rcm100-esm100-rsr0-rcr2-esr310.npz,,,,,0,57,57,533,,left,green,2.82,328.38720202445984,328.81135392189026,,1,,5,4,lightness,readingArea,realistic,75,2023-03-14_10h07.08.751,tripletExp_regina_11082022,2022.2.4,119.97883216481164,
4,9,13,0,0.694444444444444,0.298245614035088,0,0.444444444444444,1.0,0,0.111111111111111,3.10526315789474,ReadingArea_rsl0-rcl69-esl29-rsm0-rcm44-esm100-rsr0-rcr11-esr310,exr/ReadingArea_rsl0-rcl69-esl29-rsm0-rcm44-esm100-rsr0-rcr11-esr310.exr,ReadingArea_rsl0-rcl69-esl29-rsm0-rcm44-esm100-rsr0-rcr11-esr310.npz,,,,,0,58,58,488,,left,green,2.66,332.2686059474945,332.7544870376587,,1,,5,4,lightness,readingArea,realistic,75,2023-03-14_10h07.08.751,tripletExp_regina_11082022,2022.2.4,119.97883216481164,
0,9,10,0,0.027777777777778,0.298245614035088,0,0.444444444444444,1.0,0,0.694444444444444,1.0,ReadingArea_rsl0-rcl2-esl29-rsm0-rcm44-esm100-rsr0-rcr69-esr100,exr/ReadingArea_rsl0-rcl2-esl29-rsm0-rcm44-esm100-rsr0-rcr69-esr100.exr,ReadingArea_rsl0-rcl2-esl29-rsm0-rcm44-esm100-rsr0-rcr69-esr100.npz,,,,,0,59,59,434,,right,red,1.41,334.4545269012451,334.87230706214905,,1,,5,4,lightness,readingArea,realistic,75,2023-03-14_10h07.08.751,tripletExp_regina_11082022,2022.2.4,119.97883216481164,
8,6,13,0,0.25,1.0,0,0.027777777777778,1.0,0,0.111111111111111,3.10526315789474,ReadingArea_rsl0-rcl25-esl100-rsm0-rcm2-esm100-rsr0-rcr11-esr310,exr/ReadingArea_rsl0-rcl25-esl100-rsm0-rcm2-esm100-rsr0-rcr11-esr310.exr,ReadingArea_rsl0-rcl25-esl100-rsm0-rcm2-esm100-rsr0-rcr11-esr310.npz,,,,,0,60,60,440,,right,red,2.85,338.3496720790863,338.93509697914124,,1,,5,4,lightness,readingArea,realistic,75,2023-03-14_10h07.08.751,tripletExp_regina_11082022,2022.2.4,119.97883216481164,
14,12,10,0,0.25,3.10526315789474,0,0.027777777777778,3.10526315789474,0,0.694444444444444,1.0,ReadingArea_rsl0-rcl25-esl310-rsm0-rcm2-esm310-rsr0-rcr69-esr100,exr/ReadingArea_rsl0-rcl25-esl310-rsm0-rcm2-esm310-rsr0-rcr69-esr100.exr,ReadingArea_rsl0-rcl25-esl310-rsm0-rcm2-esm310-rsr0-rcr69-esr100.npz,,,,,0,61,61,331,,right,red,2.62,342.38011407852173,342.8143949508667,,1,,5,4,lightness,readingArea,realistic,75,2023-03-14_10h07.08.751,tripletExp_regina_11082022,2022.2.4,119.97883216481164,
11,4,2,0,1.0,1.0,0,0.694444444444444,0.298245614035088,0,0.25,0.298245614035088,ReadingArea_rsl0-rcl100-esl100-rsm0-rcm69-esm29-rsr0-rcr25-esr29,exr/ReadingArea_rsl0-rcl100-esl100-rsm0-rcm69-esm29-rsr0-rcr25-esr29.exr,ReadingArea_rsl0-rcl100-esl100-rsm0-rcm69-esm29-rsr0-rcr25-esr29.npz,,,,,0,62,62,280,,right,red,1.23,344.50904297828674,344.9311418533325,,1,,5,4,lightness,readingArea,realistic,75,2023-03-14_10h07.08.751,tripletExp_regina_11082022,2022.2.4,119.97883216481164,
13,6,4,0,0.111111111111111,3.10526315789474,0,0.027777777777778,1.0,0,0.694444444444444,0.298245614035088,ReadingArea_rsl0-rcl11-esl310-rsm0-rcm2-esm100-rsr0-rcr69-esr29,exr/ReadingArea_rsl0-rcl11-esl310-rsm0-rcm2-esm100-rsr0-rcr69-esr29.exr,ReadingArea_rsl0-rcl11-esl310-rsm0-rcm2-esm100-rsr0-rcr69-esr29.npz,,,,,0,63,63,328,,left,green,3.95,350.16253185272217,350.60578989982605,,1,,5,4,lightness,readingArea,realistic,75,2023-03-14_10h07.08.751,tripletExp_regina_11082022,2022.2.4,119.97883216481164,
12,8,10,0,0.027777777777778,3.10526315789474,0,0.25,1.0,0,0.694444444444444,1.0,ReadingArea_rsl0-rcl2-esl310-rsm0-rcm25-esm100-rsr0-rcr69-esr100,exr/ReadingArea_rsl0-rcl2-esl310-rsm0-rcm25-esm100-rsr0-rcr69-esr100.exr,ReadingArea_rsl0-rcl2-esl310-rsm0-rcm25-esm100-rsr0-rcr69-esr100.npz,,,,,0,64,64,216,,left,green,1.03,352.3040599822998,352.7014808654785,,1,,5,4,lightness,readingArea,realistic,75,2023-03-14_10h07.08.751,tripletExp_regina_11082022,2022.2.4,119.97883216481164,
14,5,11,0,0.25,3.10526315789474,0,1.0,0.298245614035088,0,1.0,1.0,ReadingArea_rsl0-rcl25-esl310-rsm0-rcm100-esm29-rsr0-rcr100-esr100,exr/ReadingArea_rsl0-rcl25-esl310-rsm0-rcm100-esm29-rsr0-rcr100-esr100.exr,ReadingArea_rsl0-rcl25-esl310-rsm0-rcm100-esm29-rsr0-rcr100-esr100.npz,,,,,0,65,65,161,,left,green,2.62,356.15614199638367,356.5657730102539,,1,,5,4,lightness,readingArea,realistic,75,2023-03-14_10h07.08.751,tripletExp_regina_11082022,2022.2.4,119.97883216481164,
10,7,8,0,0.694444444444444,1.0,0,0.111111111111111,1.0,0,0.25,1.0,ReadingArea_rsl0-rcl69-esl100-rsm0-rcm11-esm100-rsr0-rcr25-esr100,exr/ReadingArea_rsl0-rcl69-esl100-rsm0-rcm11-esm100-rsr0-rcr25-esr100.exr,ReadingArea_rsl0-rcl69-esl100-rsm0-rcm11-esm100-rsr0-rcr25-esr100.npz,,,,,0,66,66,57,,right,red,1.2,358.255038022995,358.6960470676422,,1,,5,4,lightness,readingArea,realistic,75,2023-03-14_10h07.08.751,tripletExp_regina_11082022,2022.2.4,119.97883216481164,
9,11,13,0,0.444444444444444,1.0,0,1.0,1.0,0,0.111111111111111,3.10526315789474,ReadingArea_rsl0-rcl44-esl100-rsm0-rcm100-esm100-rsr0-rcr11-esr310,exr/ReadingArea_rsl0-rcl44-esl100-rsm0-rcm100-esm100-rsr0-rcr11-esr310.exr,ReadingArea_rsl0-rcl44-esl100-rsm0-rcm100-esm100-rsr0-rcr11-esr310.npz,,,,,0,67,67,254,,left,green,3.19,362.1583778858185,362.60452795028687,,1,,5,4,lightness,readingArea,realistic,75,2023-03-14_10h07.08.751,tripletExp_regina_11082022,2022.2.4,119.97883216481164,
3,4,0,0,0.444444444444444,0.298245614035088,0,0.694444444444444,0.298245614035088,0,0.027777777777778,0.298245614035088,ReadingArea_rsl0-rcl44-esl29-rsm0-rcm69-esm29-rsr0-rcr2-esr29,exr/ReadingArea_rsl0-rcl44-esl29-rsm0-rcm69-esm29-rsr0-rcr2-esr29.exr,ReadingArea_rsl0-rcl44-esl29-rsm0-rcm69-esm29-rsr0-rcr2-esr29.npz,,,,,0,68,68,130,,left,green,2.16,366.0724239349365,366.4976260662079,,1,,5,4,lightness,readingArea,realistic,75,2023-03-14_10h07.08.751,tripletExp_regina_11082022,2022.2.4,119.97883216481164,
3,8,7,0,0.444444444444444,0.298245614035088,0,0.25,1.0,0,0.111111111111111,1.0,ReadingArea_rsl0-rcl44-esl29-rsm0-rcm25-esm100-rsr0-rcr11-esr100,exr/ReadingArea_rsl0-rcl44-esl29-rsm0-rcm25-esm100-rsr0-rcr11-esr100.exr,ReadingArea_rsl0-rcl44-esl29-rsm0-rcm25-esm100-rsr0-rcr11-esr100.npz,,,,,0,69,69,484,,right,red,2.48,369.9643568992615,370.3834278583527,,1,,5,4,lightness,readingArea,realistic,75,2023-03-14_10h07.08.751,tripletExp_regina_11082022,2022.2.4,119.97883216481164,
1,10,7,0,0.111111111111111,0.298245614035088,0,0.694444444444444,1.0,0,0.111111111111111,1.0,ReadingArea_rsl0-rcl11-esl29-rsm0-rcm69-esm100-rsr0-rcr11-esr100,exr/ReadingArea_rsl0-rcl11-esl29-rsm0-rcm69-esm100-rsr0-rcr11-esr100.exr,ReadingArea_rsl0-rcl11-esl29-rsm0-rcm69-esm100-rsr0-rcr11-esr100.npz,,,,,0,70,70,94,,right,red,1.45,372.0854420661926,372.4970219135285,,1,,5,4,lightness,readingArea,realistic,75,2023-03-14_10h07.08.751,tripletExp_regina_11082022,2022.2.4,119.97883216481164,
3,2,8,0,0.444444444444444,0.298245614035088,0,0.25,0.298245614035088,0,0.25,1.0,ReadingArea_rsl0-rcl44-esl29-rsm0-rcm25-esm29-rsr0-rcr25-esr100,exr/ReadingArea_rsl0-rcl44-esl29-rsm0-rcm25-esm29-rsr0-rcr25-esr100.exr,ReadingArea_rsl0-rcl44-esl29-rsm0-rcm25-esm29-rsr0-rcr25-esr100.npz,,,,,0,71,71,181,,left,green,1.26,374.1922340393066,374.6177759170532,,1,,5,4,lightness,readingArea,realistic,75,2023-03-14_10h07.08.751,tripletExp_regina_11082022,2022.2.4,119.97883216481164,
4,10,6,0,0.694444444444444,0.298245614035088,0,0.694444444444444,1.0,0,0.027777777777778,1.0,ReadingArea_rsl0-rcl69-esl29-rsm0-rcm69-esm100-rsr0-rcr2-esr100,exr/ReadingArea_rsl0-rcl69-esl29-rsm0-rcm69-esm100-rsr0-rcr2-esr100.exr,ReadingArea_rsl0-rcl69-esl29-rsm0-rcm69-esm100-rsr0-rcr2-esr100.npz,,,,,0,72,72,468,,left,green,1.2,376.31528306007385,376.7549889087677,,1,,5,4,lightness,readingArea,realistic,75,2023-03-14_10h07.08.751,tripletExp_regina_11082022,2022.2.4,119.97883216481164,
4,2,5,0,0.694444444444444,0.298245614035088,0,0.25,0.298245614035088,0,1.0,0.298245614035088,ReadingArea_rsl0-rcl69-esl29-rsm0-rcm25-esm29-rsr0-rcr100-esr29,exr/ReadingArea_rsl0-rcl69-esl29-rsm0-rcm25-esm29-rsr0-rcr100-esr29.exr,ReadingArea_rsl0-rcl69-esl29-rsm0-rcm25-esm29-rsr0-rcr100-esr29.npz,,,,,0,73,73,101,,left,green,2.39,380.2087368965149,380.7028660774231,,1,,5,4,lightness,readingArea,realistic,75,2023-03-14_10h07.08.751,tripletExp_regina_11082022,2022.2.4,119.97883216481164,
12,6,8,0,0.027777777777778,3.10526315789474,0,0.027777777777778,1.0,0,0.25,1.0,ReadingArea_rsl0-rcl2-esl310-rsm0-rcm2-esm100-rsr0-rcr25-esr100,exr/ReadingArea_rsl0-rcl2-esl310-rsm0-rcm2-esm100-rsr0-rcr25-esr100.exr,ReadingArea_rsl0-rcl2-esl310-rsm0-rcm2-esm100-rsr0-rcr25-esr100.npz,,,,,0,74,74,540,,left,green,2.75,384.1539640426636,384.3539888858795,,1,,5,4,lightness,readingArea,realistic,75,2023-03-14_10h07.08.751,tripletExp_regina_11082022,2022.2.4,119.97883216481164,
2,8,7,0,0.25,0.298245614035088,0,0.25,1.0,0,0.111111111111111,1.0,ReadingArea_rsl0-rcl25-esl29-rsm0-rcm25-esm100-rsr0-rcr11-esr100,exr/ReadingArea_rsl0-rcl25-esl29-rsm0-rcm25-esm100-rsr0-rcr11-esr100.exr,ReadingArea_rsl0-rcl25-esl29-rsm0-rcm25-esm100-rsr0-rcr11-esr100.npz,,,,,0,75,75,393,,right,red,2.34,391.3029088973999,391.7532699108124,,2,,5,4,lightness,readingArea,realistic,75,2023-03-14_10h07.08.751,tripletExp_regina_11082022,2022.2.4,119.97883216481164,
10,1,0,0,0.694444444444444,1.0,0,0.111111111111111,0.298245614035088,0,0.027777777777778,0.298245614035088,ReadingArea_rsl0-rcl69-esl100-rsm0-rcm11-esm29-rsr0-rcr2-esr29,exr/ReadingArea_rsl0-rcl69-esl100-rsm0-rcm11-esm29-rsr0-rcr2-esr29.exr,ReadingArea_rsl0-rcl69-esl100-rsm0-rcm11-esm29-rsr0-rcr2-esr29.npz,,,,,0,76,76,276,,left,green,2.52,395.2028069496155,395.6309208869934,,2,,5,4,lightness,readingArea,realistic,75,2023-03-14_10h07.08.751,tripletExp_regina_11082022,2022.2.4,119.97883216481164,
1,14,8,0,0.111111111111111,0.298245614035088,0,0.25,3.10526315789474,0,0.25,1.0,ReadingArea_rsl0-rcl11-esl29-rsm0-rcm25-esm310-rsr0-rcr25-esr100,exr/ReadingArea_rsl0-rcl11-esl29-rsm0-rcm25-esm310-rsr0-rcr25-esr100.exr,ReadingArea_rsl0-rcl11-esl29-rsm0-rcm25-esm310-rsr0-rcr25-esr100.npz,,,,,0,77,77,108,,right,red,1.28,397.32453203201294,397.7661368846893,,2,,5,4,lightness,readingArea,realistic,75,2023-03-14_10h07.08.751,tripletExp_regina_11082022,2022.2.4,119.97883216481164,
2,6,10,0,0.25,0.298245614035088,0,0.027777777777778,1.0,0,0.694444444444444,1.0,ReadingArea_rsl0-rcl25-esl29-rsm0-rcm2-esm100-rsr0-rcr69-esr100,exr/ReadingArea_rsl0-rcl25-esl29-rsm0-rcm2-esm100-rsr0-rcr69-esr100.exr,ReadingArea_rsl0-rcl25-esl29-rsm0-rcm2-esm100-rsr0-rcr69-esr100.npz,,,,,0,78,78,42,,left,green,4.61,403.0498769283295,,,2,,5,4,lightness,readingArea,realistic,75,2023-03-14_10h07.08.751,tripletExp_regina_11082022,2022.2.4,119.97883216481164,
2,1,6,0,0.25,0.298245614035088,0,0.111111111111111,0.298245614035088,0,0.027777777777778,1.0,ReadingArea_rsl0-rcl25-esl29-rsm0-rcm11-esm29-rsr0-rcr2-esr100,exr/ReadingArea_rsl0-rcl25-esl29-rsm0-rcm11-esm29-rsr0-rcr2-esr100.exr,ReadingArea_rsl0-rcl25-esl29-rsm0-rcm11-esm29-rsr0-rcr2-esr100.npz,,,,,0,79,79,171,,right,red,4.19,408.7226119041443,409.16286396980286,,2,,5,4,lightness,readingArea,realistic,75,2023-03-14_10h07.08.751,tripletExp_regina_11082022,2022.2.4,119.97883216481164,
3,0,8,0,0.444444444444444,0.298245614035088,0,0.027777777777778,0.298245614035088,0,0.25,1.0,ReadingArea_rsl0-rcl44-esl29-rsm0-rcm2-esm29-rsr0-rcr25-esr100,exr/ReadingArea_rsl0-rcl44-esl29-rsm0-rcm2-esm29-rsr0-rcr25-esr100.exr,ReadingArea_rsl0-rcl44-esl29-rsm0-rcm2-esm29-rsr0-rcr25-esr100.npz,,,,,0,80,80,510,,right,red,2.68,412.618852853775,413.04867005348206,,2,,5,4,lightness,readingArea,realistic,75,2023-03-14_10h07.08.751,tripletExp_regina_11082022,2022.2.4,119.97883216481164,
4,12,5,0,0.694444444444444,0.298245614035088,0,0.027777777777778,3.10526315789474,0,1.0,0.298245614035088,ReadingArea_rsl0-rcl69-esl29-rsm0-rcm2-esm310-rsr0-rcr100-esr29,exr/ReadingArea_rsl0-rcl69-esl29-rsm0-rcm2-esm310-rsr0-rcr100-esr29.exr,ReadingArea_rsl0-rcl69-esl29-rsm0-rcm2-esm310-rsr0-rcr100-esr29.npz,,,,,0,81,81,296,,right,red,2.85,416.5341160297394,416.9796869754791,,2,,5,4,lightness,readingArea,realistic,75,2023-03-14_10h07.08.751,tripletExp_regina_11082022,2022.2.4,119.97883216481164,
14,2,1,0,0.25,3.10526315789474,0,0.25,0.298245614035088,0,0.111111111111111,0.298245614035088,ReadingArea_rsl0-rcl25-esl310-rsm0-rcm25-esm29-rsr0-rcr11-esr29,exr/ReadingArea_rsl0-rcl25-esl310-rsm0-rcm25-esm29-rsr0-rcr11-esr29.exr,ReadingArea_rsl0-rcl25-esl310-rsm0-rcm25-esm29-rsr0-rcr11-esr29.npz,,,,,0,82,82,321,,left,green,2.45,420.4443829059601,,,2,,5,4,lightness,readingArea,realistic,75,2023-03-14_10h07.08.751,tripletExp_regina_11082022,2022.2.4,119.97883216481164,
9,3,8,0,0.444444444444444,1.0,0,0.444444444444444,0.298245614035088,0,0.25,1.0,ReadingArea_rsl0-rcl44-esl100-rsm0-rcm44-esm29-rsr0-rcr25-esr100,exr/ReadingArea_rsl0-rcl44-esl100-rsm0-rcm44-esm29-rsr0-rcr25-esr100.exr,ReadingArea_rsl0-rcl44-esl100-rsm0-rcm44-esm29-rsr0-rcr25-esr100.npz,,,,,0,83,83,530,,right,red,3.86,426.0912878513336,426.52712297439575,,2,,5,4,lightness,readingArea,realistic,75,2023-03-14_10h07.08.751,tripletExp_regina_11082022,2022.2.4,119.97883216481164,
5,0,6,0,1.0,0.298245614035088,0,0.027777777777778,0.298245614035088,0,0.027777777777778,1.0,ReadingArea_rsl0-rcl100-esl29-rsm0-rcm2-esm29-rsr0-rcr2-esr100,exr/ReadingArea_rsl0-rcl100-esl29-rsm0-rcm2-esm29-rsr0-rcr2-esr100.exr,ReadingArea_rsl0-rcl100-esl29-rsm0-rcm2-esm29-rsr0-rcr2-esr100.npz,,,,,0,84,84,1,,right,red,1.09,428.2352590560913,428.6548500061035,,2,,5,4,lightness,readingArea,realistic,75,2023-03-14_10h07.08.751,tripletExp_regina_11082022,2022.2.4,119.97883216481164,
9,6,14,0,0.444444444444444,1.0,0,0.027777777777778,1.0,0,0.25,3.10526315789474,ReadingArea_rsl0-rcl44-esl100-rsm0-rcm2-esm100-rsr0-rcr25-esr310,exr/ReadingArea_rsl0-rcl44-esl100-rsm0-rcm2-esm100-rsr0-rcr25-esr310.exr,ReadingArea_rsl0-rcl44-esl100-rsm0-rcm2-esm100-rsr0-rcr25-esr310.npz,,,,,0,85,85,213,,right,red,4.56,433.9235799312592,434.3647198677063,,2,,5,4,lightness,readingArea,realistic,75,2023-03-14_10h07.08.751,tripletExp_regina_11082022,2022.2.4,119.97883216481164,
5,3,4,0,1.0,0.298245614035088,0,0.444444444444444,0.298245614035088,0,0.694444444444444,0.298245614035088,ReadingArea_rsl0-rcl100-esl29-rsm0-rcm44-esm29-rsr0-rcr69-esr29,exr/ReadingArea_rsl0-rcl100-esl29-rsm0-rcm44-esm29-rsr0-rcr69-esr29.exr,ReadingArea_rsl0-rcl100-esl29-rsm0-rcm44-esm29-rsr0-rcr69-esr29.npz,,,,,0,86,86,201,,right,red,1.47,436.066034078598,436.48292994499207,,2,,5,4,lightness,readingArea,realistic,75,2023-03-14_10h07.08.751,tripletExp_regina_11082022,2022.2.4,119.97883216481164,
2,8,3,0,0.25,0.298245614035088,0,0.25,1.0,0,0.444444444444444,0.298245614035088,ReadingArea_rsl0-rcl25-esl29-rsm0-rcm25-esm100-rsr0-rcr44-esr29,exr/ReadingArea_rsl0-rcl25-esl29-rsm0-rcm25-esm100-rsr0-rcr44-esr29.exr,ReadingArea_rsl0-rcl25-esl29-rsm0-rcm25-esm100-rsr0-rcr44-esr29.npz,,,,,0,87,87,568,,right,red,2.26,439.9502329826355,440.39311599731445,,2,,5,4,lightness,readingArea,realistic,75,2023-03-14_10h07.08.751,tripletExp_regina_11082022,2022.2.4,119.97883216481164,
7,12,2,0,0.111111111111111,1.0,0,0.027777777777778,3.10526315789474,0,0.25,0.298245614035088,ReadingArea_rsl0-rcl11-esl100-rsm0-rcm2-esm310-rsr0-rcr25-esr29,exr/ReadingArea_rsl0-rcl11-esl100-rsm0-rcm2-esm310-rsr0-rcr25-esr29.exr,ReadingArea_rsl0-rcl11-esl100-rsm0-rcm2-esm310-rsr0-rcr25-esr29.npz,,,,,0,88,88,72,,left,green,4.82,445.6379039287567,446.1571099758148,,2,,5,4,lightness,readingArea,realistic,75,2023-03-14_10h07.08.751,tripletExp_regina_11082022,2022.2.4,119.97883216481164,
10,0,14,0,0.694444444444444,1.0,0,0.027777777777778,0.298245614035088,0,0.25,3.10526315789474,ReadingArea_rsl0-rcl69-esl100-rsm0-rcm2-esm29-rsr0-rcr25-esr310,exr/ReadingArea_rsl0-rcl69-esl100-rsm0-rcm2-esm29-rsr0-rcr25-esr310.exr,ReadingArea_rsl0-rcl69-esl100-rsm0-rcm2-esm29-rsr0-rcr25-esr310.npz,,,,,0,89,89,95,,right,red,4.09,451.3849010467529,451.8996229171753,,2,,5,4,lightness,readingArea,realistic,75,2023-03-14_10h07.08.751,tripletExp_regina_11082022,2022.2.4,119.97883216481164,
8,6,5,0,0.25,1.0,0,0.027777777777778,1.0,0,1.0,0.298245614035088,ReadingArea_rsl0-rcl25-esl100-rsm0-rcm2-esm100-rsr0-rcr100-esr29,exr/ReadingArea_rsl0-rcl25-esl100-rsm0-rcm2-esm100-rsr0-rcr100-esr29.exr,ReadingArea_rsl0-rcl25-esl100-rsm0-rcm2-esm100-rsr0-rcr100-esr29.npz,,,,,0,90,90,241,,right,red,2.99,455.3527150154114,455.7858619689941,,2,,5,4,lightness,readingArea,realistic,75,2023-03-14_10h07.08.751,tripletExp_regina_11082022,2022.2.4,119.97883216481164,
14,5,13,0,0.25,3.10526315789474,0,1.0,0.298245614035088,0,0.111111111111111,3.10526315789474,ReadingArea_rsl0-rcl25-esl310-rsm0-rcm100-esm29-rsr0-rcr11-esr310,exr/ReadingArea_rsl0-rcl25-esl310-rsm0-rcm100-esm29-rsr0-rcr11-esr310.exr,ReadingArea_rsl0-rcl25-esl310-rsm0-rcm100-esm29-rsr0-rcr11-esr310.npz,,,,,0,91,91,524,,left,green,1.34,457.4921979904175,458.0446288585663,,2,,5,4,lightness,readingArea,realistic,75,2023-03-14_10h07.08.751,tripletExp_regina_11082022,2022.2.4,119.97883216481164,
1,11,14,0,0.111111111111111,0.298245614035088,0,1.0,1.0,0,0.25,3.10526315789474,ReadingArea_rsl0-rcl11-esl29-rsm0-rcm100-esm100-rsr0-rcr25-esr310,exr/ReadingArea_rsl0-rcl11-esl29-rsm0-rcm100-esm100-rsr0-rcr25-esr310.exr,ReadingArea_rsl0-rcl11-esl29-rsm0-rcm100-esm100-rsr0-rcr25-esr310.npz,,,,,0,92,92,399,,right,red,2.63,461.51962304115295,461.9591710567474,,2,,5,4,lightness,readingArea,realistic,75,2023-03-14_10h07.08.751,tripletExp_regina_11082022,2022.2.4,119.97883216481164,
3,2,11,0,0.444444444444444,0.298245614035088,0,0.25,0.298245614035088,0,1.0,1.0,ReadingArea_rsl0-rcl44-esl29-rsm0-rcm25-esm29-rsr0-rcr100-esr100,exr/ReadingArea_rsl0-rcl44-esl29-rsm0-rcm25-esm29-rsr0-rcr100-esr100.exr,ReadingArea_rsl0-rcl44-esl29-rsm0-rcm25-esm29-rsr0-rcr100-esr100.npz,,,,,0,93,93,257,,left,green,2.21,465.4251890182495,465.8638889789581,,2,,5,4,lightness,readingArea,realistic,75,2023-03-14_10h07.08.751,tripletExp_regina_11082022,2022.2.4,119.97883216481164,
13,6,2,0,0.111111111111111,3.10526315789474,0,0.027777777777778,1.0,0,0.25,0.298245614035088,ReadingArea_rsl0-rcl11-esl310-rsm0-rcm2-esm100-rsr0-rcr25-esr29,exr/ReadingArea_rsl0-rcl11-esl310-rsm0-rcm2-esm100-rsr0-rcr25-esr29.exr,ReadingArea_rsl0-rcl11-esl310-rsm0-rcm2-esm100-rsr0-rcr25-esr29.npz,,,,,0,94,94,115,,left,green,2.54,469.3342640399933,469.8009400367737,,2,,5,4,lightness,readingArea,realistic,75,2023-03-14_10h07.08.751,tripletExp_regina_11082022,2022.2.4,119.97883216481164,
1,3,12,0,0.111111111111111,0.298245614035088,0,0.444444444444444,0.298245614035088,0,0.027777777777778,3.10526315789474,ReadingArea_rsl0-rcl11-esl29-rsm0-rcm44-esm29-rsr0-rcr2-esr310,exr/ReadingArea_rsl0-rcl11-esl29-rsm0-rcm44-esm29-rsr0-rcr2-esr310.exr,ReadingArea_rsl0-rcl11-esl29-rsm0-rcm44-esm29-rsr0-rcr2-esr310.npz,,,,,0,95,95,323,,right,red,4.37,475.0356810092926,475.559278011322,,2,,5,4,lightness,readingArea,realistic,75,2023-03-14_10h07.08.751,tripletExp_regina_11082022,2022.2.4,119.97883216481164,
6,7,3,0,0.027777777777778,1.0,0,0.111111111111111,1.0,0,0.444444444444444,0.298245614035088,ReadingArea_rsl0-rcl2-esl100-rsm0-rcm11-esm100-rsr0-rcr44-esr29,exr/ReadingArea_rsl0-rcl2-esl100-rsm0-rcm11-esm100-rsr0-rcr44-esr29.exr,ReadingArea_rsl0-rcl2-esl100-rsm0-rcm11-esm100-rsr0-rcr44-esr29.npz,,,,,0,96,96,47,,right,red,2.65,479.0292799472809,479.44769287109375,,2,,5,4,lightness,readingArea,realistic,75,2023-03-14_10h07.08.751,tripletExp_regina_11082022,2022.2.4,119.97883216481164,
8,9,6,0,0.25,1.0,0,0.444444444444444,1.0,0,0.027777777777778,1.0,ReadingArea_rsl0-rcl25-esl100-rsm0-rcm44-esm100-rsr0-rcr2-esr100,exr/ReadingArea_rsl0-rcl25-esl100-rsm0-rcm44-esm100-rsr0-rcr2-esr100.exr,ReadingArea_rsl0-rcl25-esl100-rsm0-rcm44-esm100-rsr0-rcr2-esr100.npz,,,,,0,97,97,3,,left,green,1.13,481.14963388442993,481.5856859683991,,2,,5,4,lightness,readingArea,realistic,75,2023-03-14_10h07.08.751,tripletExp_regina_11082022,2022.2.4,119.97883216481164,
1,8,12,0,0.111111111111111,0.298245614035088,0,0.25,1.0,0,0.027777777777778,3.10526315789474,ReadingArea_rsl0-rcl11-esl29-rsm0-rcm25-esm100-rsr0-rcr2-esr310,exr/ReadingArea_rsl0-rcl11-esl29-rsm0-rcm25-esm100-rsr0-rcr2-esr310.exr,ReadingArea_rsl0-rcl11-esl29-rsm0-rcm25-esm100-rsr0-rcr2-esr310.npz,,,,,0,98,98,156,,left,green,2.6,485.0612599849701,485.5024380683899,,2,,5,4,lightness,readingArea,realistic,75,2023-03-14_10h07.08.751,tripletExp_regina_11082022,2022.2.4,119.97883216481164,
13,12,5,0,0.111111111111111,3.10526315789474,0,0.027777777777778,3.10526315789474,0,1.0,0.298245614035088,ReadingArea_rsl0-rcl11-esl310-rsm0-rcm2-esm310-rsr0-rcr100-esr29,exr/ReadingArea_rsl0-rcl11-esl310-rsm0-rcm2-esm310-rsr0-rcr100-esr29.exr,ReadingArea_rsl0-rcl11-esl310-rsm0-rcm2-esm310-rsr0-rcr100-esr29.npz,,,,,0,99,99,294,,left,green,3.47,488.969927072525,489.3940770626068,,2,,5,4,lightness,readingArea,realistic,75,2023-03-14_10h07.08.751,tripletExp_regina_11082022,2022.2.4,119.97883216481164,
9,14,7,0,0.444444444444444,1.0,0,0.25,3.10526315789474,0,0.111111111111111,1.0,ReadingArea_rsl0-rcl44-esl100-rsm0-rcm25-esm310-rsr0-rcr11-esr100,exr/ReadingArea_rsl0-rcl44-esl100-rsm0-rcm25-esm310-rsr0-rcr11-esr100.exr,ReadingArea_rsl0-rcl44-esl100-rsm0-rcm25-esm310-rsr0-rcr11-esr100.npz,,,,,0,100,100,44,,left,green,2.29,492.8616330623626,493.3000750541687,,2,,5,4,lightness,readingArea,realistic,75,2023-03-14_10h07.08.751,tripletExp_regina_11082022,2022.2.4,119.97883216481164,
4,1,13,0,0.694444444444444,0.298245614035088,0,0.111111111111111,0.298245614035088,0,0.111111111111111,3.10526315789474,ReadingArea_rsl0-rcl69-esl29-rsm0-rcm11-esm29-rsr0-rcr11-esr310,exr/ReadingArea_rsl0-rcl69-esl29-rsm0-rcm11-esm29-rsr0-rcr11-esr310.exr,ReadingArea_rsl0-rcl69-esl29-rsm0-rcm11-esm29-rsr0-rcr11-esr310.npz,,,,,0,101,101,565,,right,red,4.37,498.5515489578247,498.98647594451904,,2,,5,4,lightness,readingArea,realistic,75,2023-03-14_10h07.08.751,tripletExp_regina_11082022,2022.2.4,119.97883216481164,
14,7,8,0,0.25,3.10526315789474,0,0.111111111111111,1.0,0,0.25,1.0,ReadingArea_rsl0-rcl25-esl310-rsm0-rcm11-esm100-rsr0-rcr25-esr100,exr/ReadingArea_rsl0-rcl25-esl310-rsm0-rcm11-esm100-rsr0-rcr25-esr100.exr,ReadingArea_rsl0-rcl25-esl310-rsm0-rcm11-esm100-rsr0-rcr25-esr100.npz,,,,,0,102,102,326,,left,green,4.3,504.19762206077576,504.5688860416413,,2,,5,4,lightness,readingArea,realistic,75,2023-03-14_10h07.08.751,tripletExp_regina_11082022,2022.2.4,119.97883216481164,
8,6,0,0,0.25,1.0,0,0.027777777777778,1.0,0,0.027777777777778,0.298245614035088,ReadingArea_rsl0-rcl25-esl100-rsm0-rcm2-esm100-rsr0-rcr2-esr29,exr/ReadingArea_rsl0-rcl25-esl100-rsm0-rcm2-esm100-rsr0-rcr2-esr29.exr,ReadingArea_rsl0-rcl25-esl100-rsm0-rcm2-esm100-rsr0-rcr2-esr29.npz,,,,,0,103,103,187,,right,red,2.71,508.0588169097901,508.494992017746,,2,,5,4,lightness,readingArea,realistic,75,2023-03-14_10h07.08.751,tripletExp_regina_11082022,2022.2.4,119.97883216481164,
6,13,5,0,0.027777777777778,1.0,0,0.111111111111111,3.10526315789474,0,1.0,0.298245614035088,ReadingArea_rsl0-rcl2-esl100-rsm0-rcm11-esm310-rsr0-rcr100-esr29,exr/ReadingArea_rsl0-rcl2-esl100-rsm0-rcm11-esm310-rsr0-rcr100-esr29.exr,ReadingArea_rsl0-rcl2-esl100-rsm0-rcm11-esm310-rsr0-rcr100-esr29.npz,,,,,0,104,104,53,,right,red,2.23,511.9740369319916,512.409471988678,,2,,5,4,lightness,readingArea,realistic,75,2023-03-14_10h07.08.751,tripletExp_regina_11082022,2022.2.4,119.97883216481164,
14,0,5,0,0.25,3.10526315789474,0,0.027777777777778,0.298245614035088,0,1.0,0.298245614035088,ReadingArea_rsl0-rcl25-esl310-rsm0-rcm2-esm29-rsr0-rcr100-esr29,exr/ReadingArea_rsl0-rcl25-esl310-rsm0-rcm2-esm29-rsr0-rcr100-esr29.exr,ReadingArea_rsl0-rcl25-esl310-rsm0-rcm2-esm29-rsr0-rcr100-esr29.npz,,,,,0,105,105,418,,left,green,4.07,517.6546740531921,518.1521399021149,,2,,5,4,lightness,readingArea,realistic,75,2023-03-14_10h07.08.751,tripletExp_regina_11082022,2022.2.4,119.97883216481164,
9,0,14,0,0.444444444444444,1.0,0,0.027777777777778,0.298245614035088,0,0.25,3.10526315789474,ReadingArea_rsl0-rcl44-esl100-rsm0-rcm2-esm29-rsr0-rcr25-esr310,exr/ReadingArea_rsl0-rcl44-esl100-rsm0-rcm2-esm29-rsr0-rcr25-esr310.exr,ReadingArea_rsl0-rcl44-esl100-rsm0-rcm2-esm29-rsr0-rcr25-esr310.npz,,,,,0,106,106,550,,left,green,4.28,523.3978788852692,523.8212850093842,,2,,5,4,lightness,readingArea,realistic,75,2023-03-14_10h07.08.751,tripletExp_regina_11082022,2022.2.4,119.97883216481164,
13,6,1,0,0.111111111111111,3.10526315789474,0,0.027777777777778,1.0,0,0.111111111111111,0.298245614035088,ReadingArea_rsl0-rcl11-esl310-rsm0-rcm2-esm100-rsr0-rcr11-esr29,exr/ReadingArea_rsl0-rcl11-esl310-rsm0-rcm2-esm100-rsr0-rcr11-esr29.exr,ReadingArea_rsl0-rcl11-esl310-rsm0-rcm2-esm100-rsr0-rcr11-esr29.npz,,,,,0,107,107,486,,right,red,1.15,525.515725851059,525.939444065094,,2,,5,4,lightness,readingArea,realistic,75,2023-03-14_10h07.08.751,tripletExp_regina_11082022,2022.2.4,119.97883216481164,
4,8,7,0,0.694444444444444,0.298245614035088,0,0.25,1.0,0,0.111111111111111,1.0,ReadingArea_rsl0-rcl69-esl29-rsm0-rcm25-esm100-rsr0-rcr11-esr100,exr/ReadingArea_rsl0-rcl69-esl29-rsm0-rcm25-esm100-rsr0-rcr11-esr100.exr,ReadingArea_rsl0-rcl69-esl29-rsm0-rcm25-esm100-rsr0-rcr11-esr100.npz,,,,,0,108,108,461,,right,red,2.55,529.4101450443268,529.8673779964447,,2,,5,4,lightness,readingArea,realistic,75,2023-03-14_10h07.08.751,tripletExp_regina_11082022,2022.2.4,119.97883216481164,
10,5,1,0,0.694444444444444,1.0,0,1.0,0.298245614035088,0,0.111111111111111,0.298245614035088,ReadingArea_rsl0-rcl69-esl100-rsm0-rcm100-esm29-rsr0-rcr11-esr29,exr/ReadingArea_rsl0-rcl69-esl100-rsm0-rcm100-esm29-rsr0-rcr11-esr29.exr,ReadingArea_rsl0-rcl69-esl100-rsm0-rcm100-esm29-rsr0-rcr11-esr29.npz,,,,,0,109,109,152,,left,green,1.32,531.5919878482819,532.0370879173279,,2,,5,4,lightness,readingArea,realistic,75,2023-03-14_10h07.08.751,tripletExp_regina_11082022,2022.2.4,119.97883216481164,
12,7,1,0,0.027777777777778,3.10526315789474,0,0.111111111111111,1.0,0,0.111111111111111,0.298245614035088,ReadingArea_rsl0-rcl2-esl310-rsm0-rcm11-esm100-rsr0-rcr11-esr29,exr/ReadingArea_rsl0-rcl2-esl310-rsm0-rcm11-esm100-rsr0-rcr11-esr29.exr,ReadingArea_rsl0-rcl2-esl310-rsm0-rcm11-esm100-rsr0-rcr11-esr29.npz,,,,,0,110,110,264,,left,green,1.19,533.7422549724579,534.1661288738251,,2,,5,4,lightness,readingArea,realistic,75,2023-03-14_10h07.08.751,tripletExp_regina_11082022,2022.2.4,119.97883216481164,
7,1,9,0,0.111111111111111,1.0,0,0.111111111111111,0.298245614035088,0,0.444444444444444,1.0,ReadingArea_rsl0-rcl11-esl100-rsm0-rcm11-esm29-rsr0-rcr44-esr100,exr/ReadingArea_rsl0-rcl11-esl100-rsm0-rcm11-esm29-rsr0-rcr44-esr100.exr,ReadingArea_rsl0-rcl11-esl100-rsm0-rcm11-esm29-rsr0-rcr44-esr100.npz,,,,,0,111,111,89,,left,green,1.32,535.8605539798737,536.2974879741669,,2,,5,4,lightness,readingArea,realistic,75,2023-03-14_10h07.08.751,tripletExp_regina_11082022,2022.2.4,119.97883216481164,
11,8,0,0,1.0,1.0,0,0.25,1.0,0,0.027777777777778,0.298245614035088,ReadingArea_rsl0-rcl100-esl100-rsm0-rcm25-esm100-rsr0-rcr2-esr29,exr/ReadingArea_rsl0-rcl100-esl100-rsm0-rcm25-esm100-rsr0-rcr2-esr29.exr,ReadingArea_rsl0-rcl100-esl100-rsm0-rcm25-esm100-rsr0-rcr2-esr29.npz,,,,,0,112,112,81,,left,green,1.29,538.00727891922,538.4520349502563,,2,,5,4,lightness,readingArea,realistic,75,2023-03-14_10h07.08.751,tripletExp_regina_11082022,2022.2.4,119.97883216481164,
0,13,12,0,0.027777777777778,0.298245614035088,0,0.111111111111111,3.10526315789474,0,0.027777777777778,3.10526315789474,ReadingArea_rsl0-rcl2-esl29-rsm0-rcm11-esm310-rsr0-rcr2-esr310,exr/ReadingArea_rsl0-rcl2-esl29-rsm0-rcm11-esm310-rsr0-rcr2-esr310.exr,ReadingArea_rsl0-rcl2-esl29-rsm0-rcm11-esm310-rsr0-rcr2-esr310.npz,,,,,0,113,113,501,,right,red,0.9,540.152284860611,540.5513370037079,,2,,5,4,lightness,readingArea,realistic,75,2023-03-14_10h07.08.751,tripletExp_regina_11082022,2022.2.4,119.97883216481164,
9,7,10,0,0.444444444444444,1.0,0,0.111111111111111,1.0,0,0.694444444444444,1.0,ReadingArea_rsl0-rcl44-esl100-rsm0-rcm11-esm100-rsr0-rcr69-esr100,exr/ReadingArea_rsl0-rcl44-esl100-rsm0-rcm11-esm100-rsr0-rcr69-esr100.exr,ReadingArea_rsl0-rcl44-esl100-rsm0-rcm11-esm100-rsr0-rcr69-esr100.npz,,,,,0,114,114,508,,left,green,2.6,544.0509600639343,544.4873650074005,,2,,5,4,lightness,readingArea,realistic,75,2023-03-14_10h07.08.751,tripletExp_regina_11082022,2022.2.4,119.97883216481164,
13,6,8,0,0.111111111111111,3.10526315789474,0,0.027777777777778,1.0,0,0.25,1.0,ReadingArea_rsl0-rcl11-esl310-rsm0-rcm2-esm100-rsr0-rcr25-esr100,exr/ReadingArea_rsl0-rcl11-esl310-rsm0-rcm2-esm100-rsr0-rcr25-esr100.exr,ReadingArea_rsl0-rcl11-esl310-rsm0-rcm2-esm100-rsr0-rcr25-esr100.npz,,,,,0,115,115,340,,right,red,4.33,549.7293999195099,550.2235310077667,,2,,5,4,lightness,readingArea,realistic,75,2023-03-14_10h07.08.751,tripletExp_regina_11082022,2022.2.4,119.97883216481164,
7,4,1,0,0.111111111111111,1.0,0,0.694444444444444,0.298245614035088,0,0.111111111111111,0.298245614035088,ReadingArea_rsl0-rcl11-esl100-rsm0-rcm69-esm29-rsr0-rcr11-esr29,exr/ReadingArea_rsl0-rcl11-esl100-rsm0-rcm69-esm29-rsr0-rcr11-esr29.exr,ReadingArea_rsl0-rcl11-esl100-rsm0-rcm69-esm29-rsr0-rcr11-esr29.npz,,,,,0,116,116,369,,left,green,1.26,551.9308459758759,552.3561270236969,,2,,5,4,lightness,readingArea,realistic,75,2023-03-14_10h07.08.751,tripletExp_regina_11082022,2022.2.4,119.97883216481164,
5,2,0,0,1.0,0.298245614035088,0,0.25,0.298245614035088,0,0.027777777777778,0.298245614035088,ReadingArea_rsl0-rcl100-esl29-rsm0-rcm25-esm29-rsr0-rcr2-esr29,exr/ReadingArea_rsl0-rcl100-esl29-rsm0-rcm25-esm29-rsr0-rcr2-esr29.exr,ReadingArea_rsl0-rcl100-esl29-rsm0-rcm25-esm29-rsr0-rcr2-esr29.npz,,,,,0,117,117,476,,left,green,0.86,554.0568540096283,,,2,,5,4,lightness,readingArea,realistic,75,2023-03-14_10h07.08.751,tripletExp_regina_11082022,2022.2.4,119.97883216481164,
6,14,10,0,0.027777777777778,1.0,0,0.25,3.10526315789474,0,0.694444444444444,1.0,ReadingArea_rsl0-rcl2-esl100-rsm0-rcm25-esm310-rsr0-rcr69-esr100,exr/ReadingArea_rsl0-rcl2-esl100-rsm0-rcm25-esm310-rsr0-rcr69-esr100.exr,ReadingArea_rsl0-rcl2-esl100-rsm0-rcm25-esm310-rsr0-rcr69-esr100.npz,,,,,0,118,118,413,,right,red,0.91,556.1658220291138,,,2,,5,4,lightness,readingArea,realistic,75,2023-03-14_10h07.08.751,tripletExp_regina_11082022,2022.2.4,119.97883216481164,
5,3,2,0,1.0,0.298245614035088,0,0.444444444444444,0.298245614035088,0,0.25,0.298245614035088,ReadingArea_rsl0-rcl100-esl29-rsm0-rcm44-esm29-rsr0-rcr25-esr29,exr/ReadingArea_rsl0-rcl100-esl29-rsm0-rcm44-esm29-rsr0-rcr25-esr29.exr,ReadingArea_rsl0-rcl100-esl29-rsm0-rcm44-esm29-rsr0-rcr25-esr29.npz,,,,,0,119,119,143,,right,red,2.53,560.1219930648804,560.5580229759216,,2,,5,4,lightness,readingArea,realistic,75,2023-03-14_10h07.08.751,tripletExp_regina_11082022,2022.2.4,119.97883216481164,
7,12,3,0,0.111111111111111,1.0,0,0.027777777777778,3.10526315789474,0,0.444444444444444,0.298245614035088,ReadingArea_rsl0-rcl11-esl100-rsm0-rcm2-esm310-rsr0-rcr44-esr29,exr/ReadingArea_rsl0-rcl11-esl100-rsm0-rcm2-esm310-rsr0-rcr44-esr29.exr,ReadingArea_rsl0-rcl11-esl100-rsm0-rcm2-esm310-rsr0-rcr44-esr29.npz,,,,,0,120,120,584,,left,green,2.63,564.0602519512177,564.4967799186707,,2,,5,4,lightness,readingArea,realistic,75,2023-03-14_10h07.08.751,tripletExp_regina_11082022,2022.2.4,119.97883216481164,
2,1,8,0,0.25,0.298245614035088,0,0.111111111111111,0.298245614035088,0,0.25,1.0,ReadingArea_rsl0-rcl25-esl29-rsm0-rcm11-esm29-rsr0-rcr25-esr100,exr/ReadingArea_rsl0-rcl25-esl29-rsm0-rcm11-esm29-rsr0-rcr25-esr100.exr,ReadingArea_rsl0-rcl25-esl29-rsm0-rcm11-esm29-rsr0-rcr25-esr100.npz,,,,,0,121,121,125,,left,green,2.47,567.9748539924622,568.6095449924469,,2,,5,4,lightness,readingArea,realistic,75,2023-03-14_10h07.08.751,tripletExp_regina_11082022,2022.2.4,119.97883216481164,
12,2,9,0,0.027777777777778,3.10526315789474,0,0.25,0.298245614035088,0,0.444444444444444,1.0,ReadingArea_rsl0-rcl2-esl310-rsm0-rcm25-esm29-rsr0-rcr44-esr100,exr/ReadingArea_rsl0-rcl2-esl310-rsm0-rcm25-esm29-rsr0-rcr44-esr100.exr,ReadingArea_rsl0-rcl2-esl310-rsm0-rcm25-esm29-rsr0-rcr44-esr100.npz,,,,,0,122,122,495,,left,green,1.18,570.312066078186,570.8674080371857,,2,,5,4,lightness,readingArea,realistic,75,2023-03-14_10h07.08.751,tripletExp_regina_11082022,2022.2.4,119.97883216481164,
12,13,14,0,0.027777777777778,3.10526315789474,0,0.111111111111111,3.10526315789474,0,0.25,3.10526315789474,ReadingArea_rsl0-rcl2-esl310-rsm0-rcm11-esm310-rsr0-rcr25-esr310,exr/ReadingArea_rsl0-rcl2-esl310-rsm0-rcm11-esm310-rsr0-rcr25-esr310.exr,ReadingArea_rsl0-rcl2-esl310-rsm0-rcm11-esm310-rsr0-rcr25-esr310.npz,,,,,0,123,123,208,,right,red,4.1,576.1191029548645,,,2,,5,4,lightness,readingArea,realistic,75,2023-03-14_10h07.08.751,tripletExp_regina_11082022,2022.2.4,119.97883216481164,
0,14,11,0,0.027777777777778,0.298245614035088,0,0.25,3.10526315789474,0,1.0,1.0,ReadingArea_rsl0-rcl2-esl29-rsm0-rcm25-esm310-rsr0-rcr100-esr100,exr/ReadingArea_rsl0-rcl2-esl29-rsm0-rcm25-esm310-rsr0-rcr100-esr100.exr,ReadingArea_rsl0-rcl2-esl29-rsm0-rcm25-esm310-rsr0-rcr100-esr100.npz,,,,,0,124,124,557,,right,red,1.13,578.3237900733948,578.7490839958191,,2,,5,4,lightness,readingArea,realistic,75,2023-03-14_10h07.08.751,tripletExp_regina_11082022,2022.2.4,119.97883216481164,
7,5,1,0,0.111111111111111,1.0,0,1.0,0.298245614035088,0,0.111111111111111,0.298245614035088,ReadingArea_rsl0-rcl11-esl100-rsm0-rcm100-esm29-rsr0-rcr11-esr29,exr/ReadingArea_rsl0-rcl11-esl100-rsm0-rcm100-esm29-rsr0-rcr11-esr29.exr,ReadingArea_rsl0-rcl11-esl100-rsm0-rcm100-esm29-rsr0-rcr11-esr29.npz,,,,,0,125,125,513,,left,green,2.28,582.2277600765228,,,2,,5,4,lightness,readingArea,realistic,75,2023-03-14_10h07.08.751,tripletExp_regina_11082022,2022.2.4,119.97883216481164,
12,6,7,0,0.027777777777778,3.10526315789474,0,0.027777777777778,1.0,0,0.111111111111111,1.0,ReadingArea_rsl0-rcl2-esl310-rsm0-rcm2-esm100-rsr0-rcr11-esr100,exr/ReadingArea_rsl0-rcl2-esl310-rsm0-rcm2-esm100-rsr0-rcr11-esr100.exr,ReadingArea_rsl0-rcl2-esl310-rsm0-rcm2-esm100-rsr0-rcr11-esr100.npz,,,,,0,126,126,308,,left,green,3.28,586.357085943222,586.7990429401398,,2,,5,4,lightness,readingArea,realistic,75,2023-03-14_10h07.08.751,tripletExp_regina_11082022,2022.2.4,119.97883216481164,
0,4,6,0,0.027777777777778,0.298245614035088,0,0.694444444444444,0.298245614035088,0,0.027777777777778,1.0,ReadingArea_rsl0-rcl2-esl29-rsm0-rcm69-esm29-rsr0-rcr2-esr100,exr/ReadingArea_rsl0-rcl2-esl29-rsm0-rcm69-esm29-rsr0-rcr2-esr100.exr,ReadingArea_rsl0-rcl2-esl29-rsm0-rcm69-esm29-rsr0-rcr2-esr100.npz,,,,,0,127,127,49,,right,red,2.32,590.2616698741913,590.6891729831696,,2,,5,4,lightness,readingArea,realistic,75,2023-03-14_10h07.08.751,tripletExp_regina_11082022,2022.2.4,119.97883216481164,
13,14,7,0,0.111111111111111,3.10526315789474,0,0.25,3.10526315789474,0,0.111111111111111,1.0,ReadingArea_rsl0-rcl11-esl310-rsm0-rcm25-esm310-rsr0-rcr11-esr100,exr/ReadingArea_rsl0-rcl11-esl310-rsm0-rcm25-esm310-rsr0-rcr11-esr100.exr,ReadingArea_rsl0-rcl11-esl310-rsm0-rcm25-esm310-rsr0-rcr11-esr100.npz,,,,,0,128,128,324,,left,green,1.02,592.3924269676208,592.7991919517517,,2,,5,4,lightness,readingArea,realistic,75,2023-03-14_10h07.08.751,tripletExp_regina_11082022,2022.2.4,119.97883216481164,
6,1,2,0,0.027777777777778,1.0,0,0.111111111111111,0.298245614035088,0,0.25,0.298245614035088,ReadingArea_rsl0-rcl2-esl100-rsm0-rcm11-esm29-rsr0-rcr25-esr29,exr/ReadingArea_rsl0-rcl2-esl100-rsm0-rcm11-esm29-rsr0-rcr25-esr29.exr,ReadingArea_rsl0-rcl2-esl100-rsm0-rcm11-esm29-rsr0-rcr25-esr29.npz,,,,,0,129,129,68,,right,red,4.14,598.0431890487671,598.4867699146271,,2,,5,4,lightness,readingArea,realistic,75,2023-03-14_10h07.08.751,tripletExp_regina_11082022,2022.2.4,119.97883216481164,
13,10,3,0,0.111111111111111,3.10526315789474,0,0.694444444444444,1.0,0,0.444444444444444,0.298245614035088,ReadingArea_rsl0-rcl11-esl310-rsm0-rcm69-esm100-rsr0-rcr44-esr29,exr/ReadingArea_rsl0-rcl11-esl310-rsm0-rcm69-esm100-rsr0-rcr44-esr29.exr,ReadingArea_rsl0-rcl11-esl310-rsm0-rcm69-esm100-rsr0-rcr44-esr29.npz,,,,,0,130,130,224,,left,green,2.49,601.9710099697113,602.4034340381622,,2,,5,4,lightness,readingArea,realistic,75,2023-03-14_10h07.08.751,tripletExp_regina_11082022,2022.2.4,119.97883216481164,
1,2,12,0,0.111111111111111,0.298245614035088,0,0.25,0.298245614035088,0,0.027777777777778,3.10526315789474,ReadingArea_rsl0-rcl11-esl29-rsm0-rcm25-esm29-rsr0-rcr2-esr310,exr/ReadingArea_rsl0-rcl11-esl29-rsm0-rcm25-esm29-rsr0-rcr2-esr310.exr,ReadingArea_rsl0-rcl11-esl29-rsm0-rcm25-esm29-rsr0-rcr2-esr310.npz,,,,,0,131,131,229,,left,green,2.87,605.8729839324951,606.2950119972229,,2,,5,4,lightness,readingArea,realistic,75,2023-03-14_10h07.08.751,tripletExp_regina_11082022,2022.2.4,119.97883216481164,
10,4,8,0,0.694444444444444,1.0,0,0.694444444444444,0.298245614035088,0,0.25,1.0,ReadingArea_rsl0-rcl69-esl100-rsm0-rcm69-esm29-rsr0-rcr25-esr100,exr/ReadingArea_rsl0-rcl69-esl100-rsm0-rcm69-esm29-rsr0-rcr25-esr100.exr,ReadingArea_rsl0-rcl69-esl100-rsm0-rcm69-esm29-rsr0-rcr25-esr100.npz,,,,,0,132,132,562,,right,red,4.23,611.531553030014,612.0304598808289,,2,,5,4,lightness,readingArea,realistic,75,2023-03-14_10h07.08.751,tripletExp_regina_11082022,2022.2.4,119.97883216481164,
8,11,1,0,0.25,1.0,0,1.0,1.0,0,0.111111111111111,0.298245614035088,ReadingArea_rsl0-rcl25-esl100-rsm0-rcm100-esm100-rsr0-rcr11-esr29,exr/ReadingArea_rsl0-rcl25-esl100-rsm0-rcm100-esm100-rsr0-rcr11-esr29.exr,ReadingArea_rsl0-rcl25-esl100-rsm0-rcm100-esm100-rsr0-rcr11-esr29.npz,,,,,0,133,133,132,,left,green,2.44,615.4856109619141,615.9208080768585,,2,,5,4,lightness,readingArea,realistic,75,2023-03-14_10h07.08.751,tripletExp_regina_11082022,2022.2.4,119.97883216481164,
9,6,1,0,0.444444444444444,1.0,0,0.027777777777778,1.0,0,0.111111111111111,0.298245614035088,ReadingArea_rsl0-rcl44-esl100-rsm0-rcm2-esm100-rsr0-rcr11-esr29,exr/ReadingArea_rsl0-rcl44-esl100-rsm0-rcm2-esm100-rsr0-rcr11-esr29.exr,ReadingArea_rsl0-rcl44-esl100-rsm0-rcm2-esm100-rsr0-rcr11-esr29.npz,,,,,0,134,134,526,,left,green,4.45,621.1705160140991,621.6110780239105,,2,,5,4,lightness,readingArea,realistic,75,2023-03-14_10h07.08.751,tripletExp_regina_11082022,2022.2.4,119.97883216481164,
2,13,0,0,0.25,0.298245614035088,0,0.111111111111111,3.10526315789474,0,0.027777777777778,0.298245614035088,ReadingArea_rsl0-rcl25-esl29-rsm0-rcm11-esm310-rsr0-rcr2-esr29,exr/ReadingArea_rsl0-rcl25-esl29-rsm0-rcm11-esm310-rsr0-rcr2-esr29.exr,ReadingArea_rsl0-rcl25-esl29-rsm0-rcm11-esm310-rsr0-rcr2-esr29.npz,,,,,0,135,135,454,,left,green,2.77,625.0715010166168,625.5061068534851,,2,,5,4,lightness,readingArea,realistic,75,2023-03-14_10h07.08.751,tripletExp_regina_11082022,2022.2.4,119.97883216481164,
11,7,9,0,1.0,1.0,0,0.111111111111111,1.0,0,0.444444444444444,1.0,ReadingArea_rsl0-rcl100-esl100-rsm0-rcm11-esm100-rsr0-rcr44-esr100,exr/ReadingArea_rsl0-rcl100-esl100-rsm0-rcm11-esm100-rsr0-rcr44-esr100.exr,ReadingArea_rsl0-rcl100-esl100-rsm0-rcm11-esm100-rsr0-rcr44-esr100.npz,,,,,0,136,136,521,,right,red,2.95,628.9709188938141,629.3985390663147,,2,,5,4,lightness,readingArea,realistic,75,2023-03-14_10h07.08.751,tripletExp_regina_11082022,2022.2.4,119.97883216481164,
8,9,1,0,0.25,1.0,0,0.444444444444444,1.0,0,0.111111111111111,0.298245614035088,ReadingArea_rsl0-rcl25-esl100-rsm0-rcm44-esm100-rsr0-rcr11-esr29,exr/ReadingArea_rsl0-rcl25-esl100-rsm0-rcm44-esm100-rsr0-rcr11-esr29.exr,ReadingArea_rsl0-rcl25-esl100-rsm0-rcm44-esm100-rsr0-rcr11-esr29.npz,,,,,0,137,137,266,,left,green,2.24,632.8683769702911,633.317645072937,,2,,5,4,lightness,readingArea,realistic,75,2023-03-14_10h07.08.751,tripletExp_regina_11082022,2022.2.4,119.97883216481164,
3,10,4,0,0.444444444444444,0.298245614035088,0,0.694444444444444,1.0,0,0.694444444444444,0.298245614035088,ReadingArea_rsl0-rcl44-esl29-rsm0-rcm69-esm100-rsr0-rcr69-esr29,exr/ReadingArea_rsl0-rcl44-esl29-rsm0-rcm69-esm100-rsr0-rcr69-esr29.exr,ReadingArea_rsl0-rcl44-esl29-rsm0-rcm69-esm100-rsr0-rcr69-esr29.npz,,,,,0,138,138,435,,right,red,2.51,636.7838380336761,637.1925039291382,,2,,5,4,lightness,readingArea,realistic,75,2023-03-14_10h07.08.751,tripletExp_regina_11082022,2022.2.4,119.97883216481164,
4,0,1,0,0.694444444444444,0.298245614035088,0,0.027777777777778,0.298245614035088,0,0.111111111111111,0.298245614035088,ReadingArea_rsl0-rcl69-esl29-rsm0-rcm2-esm29-rsr0-rcr11-esr29,exr/ReadingArea_rsl0-rcl69-esl29-rsm0-rcm2-esm29-rsr0-rcr11-esr29.exr,ReadingArea_rsl0-rcl69-esl29-rsm0-rcm2-esm29-rsr0-rcr11-esr29.npz,,,,,0,139,139,173,,right,red,2.97,640.6557769775391,641.1417610645294,,2,,5,4,lightness,readingArea,realistic,75,2023-03-14_10h07.08.751,tripletExp_regina_11082022,2022.2.4,119.97883216481164,
11,7,10,0,1.0,1.0,0,0.111111111111111,1.0,0,0.694444444444444,1.0,ReadingArea_rsl0-rcl100-esl100-rsm0-rcm11-esm100-rsr0-rcr69-esr100,exr/ReadingArea_rsl0-rcl100-esl100-rsm0-rcm11-esm100-rsr0-rcr69-esr100.exr,ReadingArea_rsl0-rcl100-esl100-rsm0-rcm11-esm100-rsr0-rcr69-esr100.npz,,,,,0,140,140,411,,right,red,2.38,644.6054830551147,645.0361678600311,,2,,5,4,lightness,readingArea,realistic,75,2023-03-14_10h07.08.751,tripletExp_regina_11082022,2022.2.4,119.97883216481164,
3,6,4,0,0.444444444444444,0.298245614035088,0,0.027777777777778,1.0,0,0.694444444444444,0.298245614035088,ReadingArea_rsl0-rcl44-esl29-rsm0-rcm2-esm100-rsr0-rcr69-esr29,exr/ReadingArea_rsl0-rcl44-esl29-rsm0-rcm2-esm100-rsr0-rcr69-esr29.exr,ReadingArea_rsl0-rcl44-esl29-rsm0-rcm2-esm100-rsr0-rcr69-esr29.npz,,,,,0,141,141,154,,left,green,2.89,648.5031559467316,648.9341969490051,,2,,5,4,lightness,readingArea,realistic,75,2023-03-14_10h07.08.751,tripletExp_regina_11082022,2022.2.4,119.97883216481164,
4,14,12,0,0.694444444444444,0.298245614035088,0,0.25,3.10526315789474,0,0.027777777777778,3.10526315789474,ReadingArea_rsl0-rcl69-esl29-rsm0-rcm25-esm310-rsr0-rcr2-esr310,exr/ReadingArea_rsl0-rcl69-esl29-rsm0-rcm25-esm310-rsr0-rcr2-esr310.exr,ReadingArea_rsl0-rcl69-esl29-rsm0-rcm25-esm310-rsr0-rcr2-esr310.npz,,,,,0,142,142,392,,left,green,2.78,652.4218258857727,652.8762998580933,,2,,5,4,lightness,readingArea,realistic,75,2023-03-14_10h07.08.751,tripletExp_regina_11082022,2022.2.4,119.97883216481164,
11,8,10,0,1.0,1.0,0,0.25,1.0,0,0.694444444444444,1.0,ReadingArea_rsl0-rcl100-esl100-rsm0-rcm25-esm100-rsr0-rcr69-esr100,exr/ReadingArea_rsl0-rcl100-esl100-rsm0-rcm25-esm100-rsr0-rcr69-esr100.exr,ReadingArea_rsl0-rcl100-esl100-rsm0-rcm25-esm100-rsr0-rcr69-esr100.npz,,,,,0,143,143,67,,right,red,2.38,656.3408708572388,656.7722129821777,,2,,5,4,lightness,readingArea,realistic,75,2023-03-14_10h07.08.751,tripletExp_regina_11082022,2022.2.4,119.97883216481164,
13,7,6,0,0.111111111111111,3.10526315789474,0,0.111111111111111,1.0,0,0.027777777777778,1.0,ReadingArea_rsl0-rcl11-esl310-rsm0-rcm11-esm100-rsr0-rcr2-esr100,exr/ReadingArea_rsl0-rcl11-esl310-rsm0-rcm11-esm100-rsr0-rcr2-esr100.exr,ReadingArea_rsl0-rcl11-esl310-rsm0-rcm11-esm100-rsr0-rcr2-esr100.npz,,,,,0,144,144,283,,left,green,1.48,658.4659378528595,658.9086229801178,,2,,5,4,lightness,readingArea,realistic,75,2023-03-14_10h07.08.751,tripletExp_regina_11082022,2022.2.4,119.97883216481164,
14,4,7,0,0.25,3.10526315789474,0,0.694444444444444,0.298245614035088,0,0.111111111111111,1.0,ReadingArea_rsl0-rcl25-esl310-rsm0-rcm69-esm29-rsr0-rcr11-esr100,exr/ReadingArea_rsl0-rcl25-esl310-rsm0-rcm69-esm29-rsr0-rcr11-esr100.exr,ReadingArea_rsl0-rcl25-esl310-rsm0-rcm69-esm29-rsr0-rcr11-esr100.npz,,,,,0,145,145,136,,right,red,2.88,662.3749759197235,662.8566808700562,,2,,5,4,lightness,readingArea,realistic,75,2023-03-14_10h07.08.751,tripletExp_regina_11082022,2022.2.4,119.97883216481164,
10,3,14,0,0.694444444444444,1.0,0,0.444444444444444,0.298245614035088,0,0.25,3.10526315789474,ReadingArea_rsl0-rcl69-esl100-rsm0-rcm44-esm29-rsr0-rcr25-esr310,exr/ReadingArea_rsl0-rcl69-esl100-rsm0-rcm44-esm29-rsr0-rcr25-esr310.exr,ReadingArea_rsl0-rcl69-esl100-rsm0-rcm44-esm29-rsr0-rcr25-esr310.npz,,,,,0,146,146,597,,right,red,2.54,666.3157398700714,666.9426460266113,,2,,5,4,lightness,readingArea,realistic,75,2023-03-14_10h07.08.751,tripletExp_regina_11082022,2022.2.4,119.97883216481164,
0,7,13,0,0.027777777777778,0.298245614035088,0,0.111111111111111,1.0,0,0.111111111111111,3.10526315789474,ReadingArea_rsl0-rcl2-esl29-rsm0-rcm11-esm100-rsr0-rcr11-esr310,exr/ReadingArea_rsl0-rcl2-esl29-rsm0-rcm11-esm100-rsr0-rcr11-esr310.exr,ReadingArea_rsl0-rcl2-esl29-rsm0-rcm11-esm100-rsr0-rcr11-esr310.npz,,,,,0,147,147,159,,right,red,1.46,668.6466948986053,669.0808720588684,,2,,5,4,lightness,readingArea,realistic,75,2023-03-14_10h07.08.751,tripletExp_regina_11082022,2022.2.4,119.97883216481164,
5,0,10,0,1.0,0.298245614035088,0,0.027777777777778,0.298245614035088,0,0.694444444444444,1.0,ReadingArea_rsl0-rcl100-esl29-rsm0-rcm2-esm29-rsr0-rcr69-esr100,exr/ReadingArea_rsl0-rcl100-esl29-rsm0-rcm2-esm29-rsr0-rcr69-esr100.exr,ReadingArea_rsl0-rcl100-esl29-rsm0-rcm2-esm29-rsr0-rcr69-esr100.npz,,,,,0,148,148,361,,,red,1.46,674.3117430210114,674.9163730144501,,2,673.9399956703186,5,4,lightness,readingArea,realistic,75,2023-03-14_10h07.08.751,tripletExp_regina_11082022,2022.2.4,119.97883216481164,
2,0,3,0,0.25,0.298245614035088,0,0.027777777777778,0.298245614035088,0,0.444444444444444,0.298245614035088,ReadingArea_rsl0-rcl25-esl29-rsm0-rcm2-esm29-rsr0-rcr44-esr29,exr/ReadingArea_rsl0-rcl25-esl29-rsm0-rcm2-esm29-rsr0-rcr44-esr29.exr,ReadingArea_rsl0-rcl25-esl29-rsm0-rcm2-esm29-rsr0-rcr44-esr29.npz,,,,,0,149,149,338,,left,green,1.4,676.6186618804932,676.8249530792236,,2,,5,4,lightness,readingArea,realistic,75,2023-03-14_10h07.08.751,tripletExp_regina_11082022,2022.2.4,119.97883216481164,
2,0,13,0,0.25,0.298245614035088,0,0.027777777777778,0.298245614035088,0,0.111111111111111,3.10526315789474,ReadingArea_rsl0-rcl25-esl29-rsm0-rcm2-esm29-rsr0-rcr11-esr310,exr/ReadingArea_rsl0-rcl25-esl29-rsm0-rcm2-esm29-rsr0-rcr11-esr310.exr,ReadingArea_rsl0-rcl25-esl29-rsm0-rcm2-esm29-rsr0-rcr11-esr310.npz,,,,,0,150,150,50,,right,red,1.59,690.6964249610901,691.1159770488739,,3,,5,4,lightness,readingArea,realistic,75,2023-03-14_10h07.08.751,tripletExp_regina_11082022,2022.2.4,119.97883216481164,
3,6,10,0,0.444444444444444,0.298245614035088,0,0.027777777777778,1.0,0,0.694444444444444,1.0,ReadingArea_rsl0-rcl44-esl29-rsm0-rcm2-esm100-rsr0-rcr69-esr100,exr/ReadingArea_rsl0-rcl44-esl29-rsm0-rcm2-esm100-rsr0-rcr69-esr100.exr,ReadingArea_rsl0-rcl44-esl29-rsm0-rcm2-esm100-rsr0-rcr69-esr100.npz,,,,,0,151,151,138,,left,green,1.43,692.8271360397339,693.249274969101,,3,,5,4,lightness,readingArea,realistic,75,2023-03-14_10h07.08.751,tripletExp_regina_11082022,2022.2.4,119.97883216481164,
12,3,13,0,0.027777777777778,3.10526315789474,0,0.444444444444444,0.298245614035088,0,0.111111111111111,3.10526315789474,ReadingArea_rsl0-rcl2-esl310-rsm0-rcm44-esm29-rsr0-rcr11-esr310,exr/ReadingArea_rsl0-rcl2-esl310-rsm0-rcm44-esm29-rsr0-rcr11-esr310.exr,ReadingArea_rsl0-rcl2-esl310-rsm0-rcm44-esm29-rsr0-rcr11-esr310.npz,,,,,0,152,152,383,,right,red,2.63,696.7364890575409,697.1745049953461,,3,,5,4,lightness,readingArea,realistic,75,2023-03-14_10h07.08.751,tripletExp_regina_11082022,2022.2.4,119.97883216481164,
4,3,9,0,0.694444444444444,0.298245614035088,0,0.444444444444444,0.298245614035088,0,0.444444444444444,1.0,ReadingArea_rsl0-rcl69-esl29-rsm0-rcm44-esm29-rsr0-rcr44-esr100,exr/ReadingArea_rsl0-rcl69-esl29-rsm0-rcm44-esm29-rsr0-rcr44-esr100.exr,ReadingArea_rsl0-rcl69-esl29-rsm0-rcm44-esm29-rsr0-rcr44-esr100.npz,,,,,0,153,153,451,,right,red,0.89,698.8674700260162,699.2861440181732,,3,,5,4,lightness,readingArea,realistic,75,2023-03-14_10h07.08.751,tripletExp_regina_11082022,2022.2.4,119.97883216481164,
3,9,13,0,0.444444444444444,0.298245614035088,0,0.444444444444444,1.0,0,0.111111111111111,3.10526315789474,ReadingArea_rsl0-rcl44-esl29-rsm0-rcm44-esm100-rsr0-rcr11-esr310,exr/ReadingArea_rsl0-rcl44-esl29-rsm0-rcm44-esm100-rsr0-rcr11-esr310.exr,ReadingArea_rsl0-rcl44-esl29-rsm0-rcm44-esm100-rsr0-rcr11-esr310.npz,,,,,0,154,154,341,,right,red,0.88,700.9786069393158,701.3893349170685,,3,,5,4,lightness,readingArea,realistic,75,2023-03-14_10h07.08.751,tripletExp_regina_11082022,2022.2.4,119.97883216481164,
12,8,9,0,0.027777777777778,3.10526315789474,0,0.25,1.0,0,0.444444444444444,1.0,ReadingArea_rsl0-rcl2-esl310-rsm0-rcm25-esm100-rsr0-rcr44-esr100,exr/ReadingArea_rsl0-rcl2-esl310-rsm0-rcm25-esm100-rsr0-rcr44-esr100.exr,ReadingArea_rsl0-rcl2-esl310-rsm0-rcm25-esm100-rsr0-rcr44-esr100.npz,,,,,0,155,155,517,,right,red,1.21,703.0922908782959,703.5640890598297,,3,,5,4,lightness,readingArea,realistic,75,2023-03-14_10h07.08.751,tripletExp_regina_11082022,2022.2.4,119.97883216481164,
7,14,10,0,0.111111111111111,1.0,0,0.25,3.10526315789474,0,0.694444444444444,1.0,ReadingArea_rsl0-rcl11-esl100-rsm0-rcm25-esm310-rsr0-rcr69-esr100,exr/ReadingArea_rsl0-rcl11-esl100-rsm0-rcm25-esm310-rsr0-rcr69-esr100.exr,ReadingArea_rsl0-rcl11-esl100-rsm0-rcm25-esm310-rsr0-rcr69-esr100.npz,,,,,0,156,156,472,,right,red,1.03,705.2706580162048,705.7066519260406,,3,,5,4,lightness,readingArea,realistic,75,2023-03-14_10h07.08.751,tripletExp_regina_11082022,2022.2.4,119.97883216481164,
10,11,13,0,0.694444444444444,1.0,0,1.0,1.0,0,0.111111111111111,3.10526315789474,ReadingArea_rsl0-rcl69-esl100-rsm0-rcm100-esm100-rsr0-rcr11-esr310,exr/ReadingArea_rsl0-rcl69-esl100-rsm0-rcm100-esm100-rsr0-rcr11-esr310.exr,ReadingArea_rsl0-rcl69-esl100-rsm0-rcm100-esm100-rsr0-rcr11-esr310.npz,,,,,0,157,157,79,,left,green,1.3,707.4241030216217,707.8739399909973,,3,,5,4,lightness,readingArea,realistic,75,2023-03-14_10h07.08.751,tripletExp_regina_11082022,2022.2.4,119.97883216481164,
10,7,4,0,0.694444444444444,1.0,0,0.111111111111111,1.0,0,0.694444444444444,0.298245614035088,ReadingArea_rsl0-rcl69-esl100-rsm0-rcm11-esm100-rsr0-rcr69-esr29,exr/ReadingArea_rsl0-rcl69-esl100-rsm0-rcm11-esm100-rsr0-rcr69-esr29.exr,ReadingArea_rsl0-rcl69-esl100-rsm0-rcm11-esm100-rsr0-rcr69-esr29.npz,,,,,0,158,158,223,,left,green,2.72,711.3721780776978,711.806324005127,,3,,5,4,lightness,readingArea,realistic,75,2023-03-14_10h07.08.751,tripletExp_regina_11082022,2022.2.4,119.97883216481164,
11,0,12,0,1.0,1.0,0,0.027777777777778,0.298245614035088,0,0.027777777777778,3.10526315789474,ReadingArea_rsl0-rcl100-esl100-rsm0-rcm2-esm29-rsr0-rcr2-esr310,exr/ReadingArea_rsl0-rcl100-esl100-rsm0-rcm2-esm29-rsr0-rcr2-esr310.exr,ReadingArea_rsl0-rcl100-esl100-rsm0-rcm2-esm29-rsr0-rcr2-esr310.npz,,,,,0,159,159,166,,right,red,2.17,715.2575309276581,,,3,,5,4,lightness,readingArea,realistic,75,2023-03-14_10h07.08.751,tripletExp_regina_11082022,2022.2.4,119.97883216481164,
7,0,3,0,0.111111111111111,1.0,0,0.027777777777778,0.298245614035088,0,0.444444444444444,0.298245614035088,ReadingArea_rsl0-rcl11-esl100-rsm0-rcm2-esm29-rsr0-rcr44-esr29,exr/ReadingArea_rsl0-rcl11-esl100-rsm0-rcm2-esm29-rsr0-rcr44-esr29.exr,ReadingArea_rsl0-rcl11-esl100-rsm0-rcm2-esm29-rsr0-rcr44-esr29.npz,,,,,0,160,160,237,,left,green,2.55,719.2082049846649,719.664176940918,,3,,5,4,lightness,readingArea,realistic,75,2023-03-14_10h07.08.751,tripletExp_regina_11082022,2022.2.4,119.97883216481164,
11,8,2,0,1.0,1.0,0,0.25,1.0,0,0.25,0.298245614035088,ReadingArea_rsl0-rcl100-esl100-rsm0-rcm25-esm100-rsr0-rcr25-esr29,exr/ReadingArea_rsl0-rcl100-esl100-rsm0-rcm25-esm100-rsr0-rcr25-esr29.exr,ReadingArea_rsl0-rcl100-esl100-rsm0-rcm25-esm100-rsr0-rcr25-esr29.npz,,,,,0,161,161,406,,right,red,1.11,721.3814940452576,721.8003330230713,,3,,5,4,lightness,readingArea,realistic,75,2023-03-14_10h07.08.751,tripletExp_regina_11082022,2022.2.4,119.97883216481164,
12,3,5,0,0.027777777777778,3.10526315789474,0,0.444444444444444,0.298245614035088,0,1.0,0.298245614035088,ReadingArea_rsl0-rcl2-esl310-rsm0-rcm44-esm29-rsr0-rcr100-esr29,exr/ReadingArea_rsl0-rcl2-esl310-rsm0-rcm44-esm29-rsr0-rcr100-esr29.exr,ReadingArea_rsl0-rcl2-esl310-rsm0-rcm44-esm29-rsr0-rcr100-esr29.npz,,,,,0,162,162,188,,left,green,1.04,723.5083739757538,,,3,,5,4,lightness,readingArea,realistic,75,2023-03-14_10h07.08.751,tripletExp_regina_11082022,2022.2.4,119.97883216481164,
14,12,0,0,0.25,3.10526315789474,0,0.027777777777778,3.10526315789474,0,0.027777777777778,0.298245614035088,ReadingArea_rsl0-rcl25-esl310-rsm0-rcm2-esm310-rsr0-rcr2-esr29,exr/ReadingArea_rsl0-rcl25-esl310-rsm0-rcm2-esm310-rsr0-rcr2-esr29.exr,ReadingArea_rsl0-rcl25-esl310-rsm0-rcm2-esm310-rsr0-rcr2-esr29.npz,,,,,0,163,163,409,,right,red,1.38,725.7826979160309,726.2199549674988,,3,,5,4,lightness,readingArea,realistic,75,2023-03-14_10h07.08.751,tripletExp_regina_11082022,2022.2.4,119.97883216481164,
8,2,0,0,0.25,1.0,0,0.25,0.298245614035088,0,0.027777777777778,0.298245614035088,ReadingArea_rsl0-rcl25-esl100-rsm0-rcm25-esm29-rsr0-rcr2-esr29,exr/ReadingArea_rsl0-rcl25-esl100-rsm0-rcm25-esm29-rsr0-rcr2-esr29.exr,ReadingArea_rsl0-rcl25-esl100-rsm0-rcm25-esm29-rsr0-rcr2-esr29.npz,,,,,0,164,164,574,,left,green,0.98,727.9105758666992,728.3339989185333,,3,,5,4,lightness,readingArea,realistic,75,2023-03-14_10h07.08.751,tripletExp_regina_11082022,2022.2.4,119.97883216481164,
14,8,9,0,0.25,3.10526315789474,0,0.25,1.0,0,0.444444444444444,1.0,ReadingArea_rsl0-rcl25-esl310-rsm0-rcm25-esm100-rsr0-rcr44-esr100,exr/ReadingArea_rsl0-rcl25-esl310-rsm0-rcm25-esm100-rsr0-rcr44-esr100.exr,ReadingArea_rsl0-rcl25-esl310-rsm0-rcm25-esm100-rsr0-rcr44-esr100.npz,,,,,0,165,165,518,,right,red,1.3,730.0383100509644,730.4607560634613,,3,,5,4,lightness,readingArea,realistic,75,2023-03-14_10h07.08.751,tripletExp_regina_11082022,2022.2.4,119.97883216481164,
6,0,4,0,0.027777777777778,1.0,0,0.027777777777778,0.298245614035088,0,0.694444444444444,0.298245614035088,ReadingArea_rsl0-rcl2-esl100-rsm0-rcm2-esm29-rsr0-rcr69-esr29,exr/ReadingArea_rsl0-rcl2-esl100-rsm0-rcm2-esm29-rsr0-rcr69-esr29.exr,ReadingArea_rsl0-rcl2-esl100-rsm0-rcm2-esm29-rsr0-rcr69-esr29.npz,,,,,0,166,166,555,,left,green,0.99,732.1586089134216,732.5740828514099,,3,,5,4,lightness,readingArea,realistic,75,2023-03-14_10h07.08.751,tripletExp_regina_11082022,2022.2.4,119.97883216481164,
10,3,1,0,0.694444444444444,1.0,0,0.444444444444444,0.298245614035088,0,0.111111111111111,0.298245614035088,ReadingArea_rsl0-rcl69-esl100-rsm0-rcm44-esm29-rsr0-rcr11-esr29,exr/ReadingArea_rsl0-rcl69-esl100-rsm0-rcm44-esm29-rsr0-rcr11-esr29.exr,ReadingArea_rsl0-rcl69-esl100-rsm0-rcm44-esm29-rsr0-rcr11-esr29.npz,,,,,0,167,167,420,,left,green,0.85,734.271861076355,734.8539810180664,,3,,5,4,lightness,readingArea,realistic,75,2023-03-14_10h07.08.751,tripletExp_regina_11082022,2022.2.4,119.97883216481164,
9,12,0,0,0.444444444444444,1.0,0,0.027777777777778,3.10526315789474,0,0.027777777777778,0.298245614035088,ReadingArea_rsl0-rcl44-esl100-rsm0-rcm2-esm310-rsr0-rcr2-esr29,exr/ReadingArea_rsl0-rcl44-esl100-rsm0-rcm2-esm310-rsr0-rcr2-esr29.exr,ReadingArea_rsl0-rcl44-esl100-rsm0-rcm2-esm310-rsr0-rcr2-esr29.npz,,,,,0,168,168,175,,right,red,2.54,738.3344650268555,738.7664668560028,,3,,5,4,lightness,readingArea,realistic,75,2023-03-14_10h07.08.751,tripletExp_regina_11082022,2022.2.4,119.97883216481164,
10,14,4,0,0.694444444444444,1.0,0,0.25,3.10526315789474,0,0.694444444444444,0.298245614035088,ReadingArea_rsl0-rcl69-esl100-rsm0-rcm25-esm310-rsr0-rcr69-esr29,exr/ReadingArea_rsl0-rcl69-esl100-rsm0-rcm25-esm310-rsr0-rcr69-esr29.exr,ReadingArea_rsl0-rcl69-esl100-rsm0-rcm25-esm310-rsr0-rcr69-esr29.npz,,,,,0,169,169,267,,left,green,1.5,740.4720270633698,740.916661977768,,3,,5,4,lightness,readingArea,realistic,75,2023-03-14_10h07.08.751,tripletExp_regina_11082022,2022.2.4,119.97883216481164,
5,13,6,0,1.0,0.298245614035088,0,0.111111111111111,3.10526315789474,0,0.027777777777778,1.0,ReadingArea_rsl0-rcl100-esl29-rsm0-rcm11-esm310-rsr0-rcr2-esr100,exr/ReadingArea_rsl0-rcl100-esl29-rsm0-rcm11-esm310-rsr0-rcr2-esr100.exr,ReadingArea_rsl0-rcl100-esl29-rsm0-rcm11-esm310-rsr0-rcr2-esr100.npz,,,,,0,170,170,263,,left,green,0.88,742.6109139919281,743.0169689655304,,3,,5,4,lightness,readingArea,realistic,75,2023-03-14_10h07.08.751,tripletExp_regina_11082022,2022.2.4,119.97883216481164,
14,8,1,0,0.25,3.10526315789474,0,0.25,1.0,0,0.111111111111111,0.298245614035088,ReadingArea_rsl0-rcl25-esl310-rsm0-rcm25-esm100-rsr0-rcr11-esr29,exr/ReadingArea_rsl0-rcl25-esl310-rsm0-rcm25-esm100-rsr0-rcr11-esr29.exr,ReadingArea_rsl0-rcl25-esl310-rsm0-rcm25-esm100-rsr0-rcr11-esr29.npz,,,,,0,171,171,141,,left,green,2.65,746.4814739227295,746.9232170581818,,3,,5,4,lightness,readingArea,realistic,75,2023-03-14_10h07.08.751,tripletExp_regina_11082022,2022.2.4,119.97883216481164,
8,14,3,0,0.25,1.0,0,0.25,3.10526315789474,0,0.444444444444444,0.298245614035088,ReadingArea_rsl0-rcl25-esl100-rsm0-rcm25-esm310-rsr0-rcr44-esr29,exr/ReadingArea_rsl0-rcl25-esl100-rsm0-rcm25-esm310-rsr0-rcr44-esr29.exr,ReadingArea_rsl0-rcl25-esl100-rsm0-rcm25-esm310-rsr0-rcr44-esr29.npz,,,,,0,172,172,503,,right,red,1.46,748.6151828765869,749.036022901535,,3,,5,4,lightness,readingArea,realistic,75,2023-03-14_10h07.08.751,tripletExp_regina_11082022,2022.2.4,119.97883216481164,
1,14,5,0,0.111111111111111,0.298245614035088,0,0.25,3.10526315789474,0,1.0,0.298245614035088,ReadingArea_rsl0-rcl11-esl29-rsm0-rcm25-esm310-rsr0-rcr100-esr29,exr/ReadingArea_rsl0-rcl11-esl29-rsm0-rcm25-esm310-rsr0-rcr100-esr29.exr,ReadingArea_rsl0-rcl11-esl29-rsm0-rcm25-esm310-rsr0-rcr100-esr29.npz,,,,,0,173,173,509,,right,red,1.08,750.7249200344086,751.1488468647003,,3,,5,4,lightness,readingArea,realistic,75,2023-03-14_10h07.08.751,tripletExp_regina_11082022,2022.2.4,119.97883216481164,
13,1,4,0,0.111111111111111,3.10526315789474,0,0.111111111111111,0.298245614035088,0,0.694444444444444,0.298245614035088,ReadingArea_rsl0-rcl11-esl310-rsm0-rcm11-esm29-rsr0-rcr69-esr29,exr/ReadingArea_rsl0-rcl11-esl310-rsm0-rcm11-esm29-rsr0-rcr69-esr29.exr,ReadingArea_rsl0-rcl11-esl310-rsm0-rcm11-esm29-rsr0-rcr69-esr29.npz,,,,,0,174,174,396,,left,green,2.57,754.6247389316559,755.0620748996735,,3,,5,4,lightness,readingArea,realistic,75,2023-03-14_10h07.08.751,tripletExp_regina_11082022,2022.2.4,119.97883216481164,
1,11,12,0,0.111111111111111,0.298245614035088,0,1.0,1.0,0,0.027777777777778,3.10526315789474,ReadingArea_rsl0-rcl11-esl29-rsm0-rcm100-esm100-rsr0-rcr2-esr310,exr/ReadingArea_rsl0-rcl11-esl29-rsm0-rcm100-esm100-rsr0-rcr2-esr310.exr,ReadingArea_rsl0-rcl11-esl29-rsm0-rcm100-esm100-rsr0-rcr2-esr310.npz,,,,,0,175,175,288,,right,red,1.45,756.7858319282532,757.2842669487,,3,,5,4,lightness,readingArea,realistic,75,2023-03-14_10h07.08.751,tripletExp_regina_11082022,2022.2.4,119.97883216481164,
13,11,7,0,0.111111111111111,3.10526315789474,0,1.0,1.0,0,0.111111111111111,1.0,ReadingArea_rsl0-rcl11-esl310-rsm0-rcm100-esm100-rsr0-rcr11-esr100,exr/ReadingArea_rsl0-rcl11-esl310-rsm0-rcm100-esm100-rsr0-rcr11-esr100.exr,ReadingArea_rsl0-rcl11-esl310-rsm0-rcm100-esm100-rsr0-rcr11-esr100.npz,,,,,0,176,176,590,,left,green,2.72,760.7561810016632,,,3,,5,4,lightness,readingArea,realistic,75,2023-03-14_10h07.08.751,tripletExp_regina_11082022,2022.2.4,119.97883216481164,
3,7,0,0,0.444444444444444,0.298245614035088,0,0.111111111111111,1.0,0,0.027777777777778,0.298245614035088,ReadingArea_rsl0-rcl44-esl29-rsm0-rcm11-esm100-rsr0-rcr2-esr29,exr/ReadingArea_rsl0-rcl44-esl29-rsm0-rcm11-esm100-rsr0-rcr2-esr29.exr,ReadingArea_rsl0-rcl44-esl29-rsm0-rcm11-esm100-rsr0-rcr2-esr29.npz,,,,,0,177,177,327,,left,green,2.21,764.6778659820557,765.1163349151611,,3,,5,4,lightness,readingArea,realistic,75,2023-03-14_10h07.08.751,tripletExp_regina_11082022,2022.2.4,119.97883216481164,
9,4,14,0,0.444444444444444,1.0,0,0.694444444444444,0.298245614035088,0,0.25,3.10526315789474,ReadingArea_rsl0-rcl44-esl100-rsm0-rcm69-esm29-rsr0-rcr25-esr310,exr/ReadingArea_rsl0-rcl44-esl100-rsm0-rcm69-esm29-rsr0-rcr25-esr310.exr,ReadingArea_rsl0-rcl44-esl100-rsm0-rcm69-esm29-rsr0-rcr25-esr310.npz,,,,,0,178,178,104,,left,green,2.48,768.5565948486328,768.9743399620056,,3,,5,4,lightness,readingArea,realistic,75,2023-03-14_10h07.08.751,tripletExp_regina_11082022,2022.2.4,119.97883216481164,
4,3,10,0,0.694444444444444,0.298245614035088,0,0.444444444444444,0.298245614035088,0,0.694444444444444,1.0,ReadingArea_rsl0-rcl69-esl29-rsm0-rcm44-esm29-rsr0-rcr69-esr100,exr/ReadingArea_rsl0-rcl69-esl29-rsm0-rcm44-esm29-rsr0-rcr69-esr100.exr,ReadingArea_rsl0-rcl69-esl29-rsm0-rcm44-esm29-rsr0-rcr69-esr100.npz,,,,,0,179,179,371,,left,green,2.23,772.4526400566101,772.8915150165558,,3,,5,4,lightness,readingArea,realistic,75,2023-03-14_10h07.08.751,tripletExp_regina_11082022,2022.2.4,119.97883216481164,
6,0,11,0,0.027777777777778,1.0,0,0.027777777777778,0.298245614035088,0,1.0,1.0,ReadingArea_rsl0-rcl2-esl100-rsm0-rcm2-esm29-rsr0-rcr100-esr100,exr/ReadingArea_rsl0-rcl2-esl100-rsm0-rcm2-esm29-rsr0-rcr100-esr100.exr,ReadingArea_rsl0-rcl2-esl100-rsm0-rcm2-esm29-rsr0-rcr100-esr100.npz,,,,,0,180,180,245,,left,green,2.32,776.3820869922638,776.9145820140839,,3,,5,4,lightness,readingArea,realistic,75,2023-03-14_10h07.08.751,tripletExp_regina_11082022,2022.2.4,119.97883216481164,
3,7,9,0,0.444444444444444,0.298245614035088,0,0.111111111111111,1.0,0,0.444444444444444,1.0,ReadingArea_rsl0-rcl44-esl29-rsm0-rcm11-esm100-rsr0-rcr44-esr100,exr/ReadingArea_rsl0-rcl44-esl29-rsm0-rcm11-esm100-rsr0-rcr44-esr100.exr,ReadingArea_rsl0-rcl44-esl29-rsm0-rcm11-esm100-rsr0-rcr44-esr100.npz,,,,,0,181,181,382,,left,green,2.29,780.3902769088745,780.83314204216,,3,,5,4,lightness,readingArea,realistic,75,2023-03-14_10h07.08.751,tripletExp_regina_11082022,2022.2.4,119.97883216481164,
1,12,10,0,0.111111111111111,0.298245614035088,0,0.027777777777778,3.10526315789474,0,0.694444444444444,1.0,ReadingArea_rsl0-rcl11-esl29-rsm0-rcm2-esm310-rsr0-rcr69-esr100,exr/ReadingArea_rsl0-rcl11-esl29-rsm0-rcm2-esm310-rsr0-rcr69-esr100.exr,ReadingArea_rsl0-rcl11-esl29-rsm0-rcm2-esm310-rsr0-rcr69-esr100.npz,,,,,0,182,182,567,,left,green,1.03,782.539274930954,783.1180880069733,,3,,5,4,lightness,readingArea,realistic,75,2023-03-14_10h07.08.751,tripletExp_regina_11082022,2022.2.4,119.97883216481164,
8,10,6,0,0.25,1.0,0,0.694444444444444,1.0,0,0.027777777777778,1.0,ReadingArea_rsl0-rcl25-esl100-rsm0-rcm69-esm100-rsr0-rcr2-esr100,exr/ReadingArea_rsl0-rcl25-esl100-rsm0-rcm69-esm100-rsr0-rcr2-esr100.exr,ReadingArea_rsl0-rcl25-esl100-rsm0-rcm69-esm100-rsr0-rcr2-esr100.npz,,,,,0,183,183,129,,left,green,1.17,784.8059840202332,785.253161907196,,3,,5,4,lightness,readingArea,realistic,75,2023-03-14_10h07.08.751,tripletExp_regina_11082022,2022.2.4,119.97883216481164,
3,12,14,0,0.444444444444444,0.298245614035088,0,0.027777777777778,3.10526315789474,0,0.25,3.10526315789474,ReadingArea_rsl0-rcl44-esl29-rsm0-rcm2-esm310-rsr0-rcr25-esr310,exr/ReadingArea_rsl0-rcl44-esl29-rsm0-rcm2-esm310-rsr0-rcr25-esr310.exr,ReadingArea_rsl0-rcl44-esl29-rsm0-rcm2-esm310-rsr0-rcr25-esr310.npz,,,,,0,184,184,16,,left,green,2.37,788.7318139076233,789.20494389534,,3,,5,4,lightness,readingArea,realistic,75,2023-03-14_10h07.08.751,tripletExp_regina_11082022,2022.2.4,119.97883216481164,
13,12,11,0,0.111111111111111,3.10526315789474,0,0.027777777777778,3.10526315789474,0,1.0,1.0,ReadingArea_rsl0-rcl11-esl310-rsm0-rcm2-esm310-rsr0-rcr100-esr100,exr/ReadingArea_rsl0-rcl11-esl310-rsm0-rcm2-esm310-rsr0-rcr100-esr100.exr,ReadingArea_rsl0-rcl11-esl310-rsm0-rcm2-esm310-rsr0-rcr100-esr100.npz,,,,,0,185,185,441,,left,green,2.26,792.6779708862305,,,3,,5,4,lightness,readingArea,realistic,75,2023-03-14_10h07.08.751,tripletExp_regina_11082022,2022.2.4,119.97883216481164,
12,7,9,0,0.027777777777778,3.10526315789474,0,0.111111111111111,1.0,0,0.444444444444444,1.0,ReadingArea_rsl0-rcl2-esl310-rsm0-rcm11-esm100-rsr0-rcr44-esr100,exr/ReadingArea_rsl0-rcl2-esl310-rsm0-rcm11-esm100-rsr0-rcr44-esr100.exr,ReadingArea_rsl0-rcl2-esl310-rsm0-rcm11-esm100-rsr0-rcr44-esr100.npz,,,,,0,186,186,124,,left,green,2.46,796.5748929977417,797.0190470218658,,3,,5,4,lightness,readingArea,realistic,75,2023-03-14_10h07.08.751,tripletExp_regina_11082022,2022.2.4,119.97883216481164,
6,0,1,0,0.027777777777778,1.0,0,0.027777777777778,0.298245614035088,0,0.111111111111111,0.298245614035088,ReadingArea_rsl0-rcl2-esl100-rsm0-rcm2-esm29-rsr0-rcr11-esr29,exr/ReadingArea_rsl0-rcl2-esl100-rsm0-rcm2-esm29-rsr0-rcr11-esr29.exr,ReadingArea_rsl0-rcl2-esl100-rsm0-rcm2-esm29-rsr0-rcr11-esr29.npz,,,,,0,187,187,302,,left,green,2.07,800.4956028461456,,,3,,5,4,lightness,readingArea,realistic,75,2023-03-14_10h07.08.751,tripletExp_regina_11082022,2022.2.4,119.97883216481164,
7,12,1,0,0.111111111111111,1.0,0,0.027777777777778,3.10526315789474,0,0.111111111111111,0.298245614035088,ReadingArea_rsl0-rcl11-esl100-rsm0-rcm2-esm310-rsr0-rcr11-esr29,exr/ReadingArea_rsl0-rcl11-esl100-rsm0-rcm2-esm310-rsr0-rcr11-esr29.exr,ReadingArea_rsl0-rcl11-esl100-rsm0-rcm2-esm310-rsr0-rcr11-esr29.npz,,,,,0,188,188,20,,left,green,2.16,804.4193360805511,804.8630468845367,,3,,5,4,lightness,readingArea,realistic,75,2023-03-14_10h07.08.751,tripletExp_regina_11082022,2022.2.4,119.97883216481164,
1,7,2,0,0.111111111111111,0.298245614035088,0,0.111111111111111,1.0,0,0.25,0.298245614035088,ReadingArea_rsl0-rcl11-esl29-rsm0-rcm11-esm100-rsr0-rcr25-esr29,exr/ReadingArea_rsl0-rcl11-esl29-rsm0-rcm11-esm100-rsr0-rcr25-esr29.exr,ReadingArea_rsl0-rcl11-esl29-rsm0-rcm11-esm100-rsr0-rcr25-esr29.npz,,,,,0,189,189,162,,left,green,2.39,808.3401219844818,808.7682769298553,,3,,5,4,lightness,readingArea,realistic,75,2023-03-14_10h07.08.751,tripletExp_regina_11082022,2022.2.4,119.97883216481164,
1,10,0,0,0.111111111111111,0.298245614035088,0,0.694444444444444,1.0,0,0.027777777777778,0.298245614035088,ReadingArea_rsl0-rcl11-esl29-rsm0-rcm69-esm100-rsr0-rcr2-esr29,exr/ReadingArea_rsl0-rcl11-esl29-rsm0-rcm69-esm100-rsr0-rcr2-esr29.exr,ReadingArea_rsl0-rcl11-esl29-rsm0-rcm69-esm100-rsr0-rcr2-esr29.npz,,,,,0,190,190,196,,left,green,2.3,812.224848985672,812.6713600158691,,3,,5,4,lightness,readingArea,realistic,75,2023-03-14_10h07.08.751,tripletExp_regina_11082022,2022.2.4,119.97883216481164,
5,9,0,0,1.0,0.298245614035088,0,0.444444444444444,1.0,0,0.027777777777778,0.298245614035088,ReadingArea_rsl0-rcl100-esl29-rsm0-rcm44-esm100-rsr0-rcr2-esr29,exr/ReadingArea_rsl0-rcl100-esl29-rsm0-rcm44-esm100-rsr0-rcr2-esr29.exr,ReadingArea_rsl0-rcl100-esl29-rsm0-rcm44-esm100-rsr0-rcr2-esr29.npz,,,,,0,191,191,575,,left,green,1.39,814.3919019699097,814.8701589107513,,3,,5,4,lightness,readingArea,realistic,75,2023-03-14_10h07.08.751,tripletExp_regina_11082022,2022.2.4,119.97883216481164,
3,10,9,0,0.444444444444444,0.298245614035088,0,0.694444444444444,1.0,0,0.444444444444444,1.0,ReadingArea_rsl0-rcl44-esl29-rsm0-rcm69-esm100-rsr0-rcr44-esr100,exr/ReadingArea_rsl0-rcl44-esl29-rsm0-rcm69-esm100-rsr0-rcr44-esr100.exr,ReadingArea_rsl0-rcl44-esl29-rsm0-rcm69-esm100-rsr0-rcr44-esr100.npz,,,,,0,192,192,222,,right,red,2.62,818.3717699050903,818.9147958755493,,3,,5,4,lightness,readingArea,realistic,75,2023-03-14_10h07.08.751,tripletExp_regina_11082022,2022.2.4,119.97883216481164,
4,3,1,0,0.694444444444444,0.298245614035088,0,0.444444444444444,0.298245614035088,0,0.111111111111111,0.298245614035088,ReadingArea_rsl0-rcl69-esl29-rsm0-rcm44-esm29-rsr0-rcr11-esr29,exr/ReadingArea_rsl0-rcl69-esl29-rsm0-rcm44-esm29-rsr0-rcr11-esr29.exr,ReadingArea_rsl0-rcl69-esl29-rsm0-rcm44-esm29-rsr0-rcr11-esr29.npz,,,,,0,193,193,60,,left,green,2.32,822.3608179092407,822.7930488586426,,3,,5,4,lightness,readingArea,realistic,75,2023-03-14_10h07.08.751,tripletExp_regina_11082022,2022.2.4,119.97883216481164,
10,9,6,0,0.694444444444444,1.0,0,0.444444444444444,1.0,0,0.027777777777778,1.0,ReadingArea_rsl0-rcl69-esl100-rsm0-rcm44-esm100-rsr0-rcr2-esr100,exr/ReadingArea_rsl0-rcl69-esl100-rsm0-rcm44-esm100-rsr0-rcr2-esr100.exr,ReadingArea_rsl0-rcl69-esl100-rsm0-rcm44-esm100-rsr0-rcr2-esr100.npz,,,,,0,194,194,35,,left,green,1.03,824.5103869438171,824.9511048793793,,3,,5,4,lightness,readingArea,realistic,75,2023-03-14_10h07.08.751,tripletExp_regina_11082022,2022.2.4,119.97883216481164,
10,8,11,0,0.694444444444444,1.0,0,0.25,1.0,0,1.0,1.0,ReadingArea_rsl0-rcl69-esl100-rsm0-rcm25-esm100-rsr0-rcr100-esr100,exr/ReadingArea_rsl0-rcl69-esl100-rsm0-rcm25-esm100-rsr0-rcr100-esr100.exr,ReadingArea_rsl0-rcl69-esl100-rsm0-rcm25-esm100-rsr0-rcr100-esr100.npz,,,,,0,195,195,578,,left,green,2.61,828.4580318927765,828.8789510726929,,3,,5,4,lightness,readingArea,realistic,75,2023-03-14_10h07.08.751,tripletExp_regina_11082022,2022.2.4,119.97883216481164,
8,1,9,0,0.25,1.0,0,0.111111111111111,0.298245614035088,0,0.444444444444444,1.0,ReadingArea_rsl0-rcl25-esl100-rsm0-rcm11-esm29-rsr0-rcr44-esr100,exr/ReadingArea_rsl0-rcl25-esl100-rsm0-rcm11-esm29-rsr0-rcr44-esr100.exr,ReadingArea_rsl0-rcl25-esl100-rsm0-rcm11-esm29-rsr0-rcr44-esr100.npz,,,,,0,196,196,432,,left,green,2.72,832.3836550712585,832.8155949115753,,3,,5,4,lightness,readingArea,realistic,75,2023-03-14_10h07.08.751,tripletExp_regina_11082022,2022.2.4,119.97883216481164,
7,9,8,0,0.111111111111111,1.0,0,0.444444444444444,1.0,0,0.25,1.0,ReadingArea_rsl0-rcl11-esl100-rsm0-rcm44-esm100-rsr0-rcr25-esr100,exr/ReadingArea_rsl0-rcl11-esl100-rsm0-rcm44-esm100-rsr0-rcr25-esr100.exr,ReadingArea_rsl0-rcl11-esl100-rsm0-rcm44-esm100-rsr0-rcr25-esr100.npz,,,,,0,197,197,515,,right,red,2.17,836.2582330703735,836.6889190673828,,3,,5,4,lightness,readingArea,realistic,75,2023-03-14_10h07.08.751,tripletExp_regina_11082022,2022.2.4,119.97883216481164,
3,14,5,0,0.444444444444444,0.298245614035088,0,0.25,3.10526315789474,0,1.0,0.298245614035088,ReadingArea_rsl0-rcl44-esl29-rsm0-rcm25-esm310-rsr0-rcr100-esr29,exr/ReadingArea_rsl0-rcl44-esl29-rsm0-rcm25-esm310-rsr0-rcr100-esr29.exr,ReadingArea_rsl0-rcl44-esl29-rsm0-rcm25-esm310-rsr0-rcr100-esr29.npz,,,,,0,198,198,131,,right,red,1.0,838.4094169139862,838.8646469116211,,3,,5,4,lightness,readingArea,realistic,75,2023-03-14_10h07.08.751,tripletExp_regina_11082022,2022.2.4,119.97883216481164,
0,8,9,0,0.027777777777778,0.298245614035088,0,0.25,1.0,0,0.444444444444444,1.0,ReadingArea_rsl0-rcl2-esl29-rsm0-rcm25-esm100-rsr0-rcr44-esr100,exr/ReadingArea_rsl0-rcl2-esl29-rsm0-rcm25-esm100-rsr0-rcr44-esr100.exr,ReadingArea_rsl0-rcl2-esl29-rsm0-rcm25-esm100-rsr0-rcr44-esr100.npz,,,,,0,199,199,541,,right,red,0.93,840.5839159488678,841.0300829410553,,3,,5,4,lightness,readingArea,realistic,75,2023-03-14_10h07.08.751,tripletExp_regina_11082022,2022.2.4,119.97883216481164,
4,12,6,0,0.694444444444444,0.298245614035088,0,0.027777777777778,3.10526315789474,0,0.027777777777778,1.0,ReadingArea_rsl0-rcl69-esl29-rsm0-rcm2-esm310-rsr0-rcr2-esr100,exr/ReadingArea_rsl0-rcl69-esl29-rsm0-rcm2-esm310-rsr0-rcr2-esr100.exr,ReadingArea_rsl0-rcl69-esl29-rsm0-rcm2-esm310-rsr0-rcr2-esr100.npz,,,,,0,200,200,99,,right,red,2.59,844.5035400390625,844.9573669433594,,3,,5,4,lightness,readingArea,realistic,75,2023-03-14_10h07.08.751,tripletExp_regina_11082022,2022.2.4,119.97883216481164,
14,8,2,0,0.25,3.10526315789474,0,0.25,1.0,0,0.25,0.298245614035088,ReadingArea_rsl0-rcl25-esl310-rsm0-rcm25-esm100-rsr0-rcr25-esr29,exr/ReadingArea_rsl0-rcl25-esl310-rsm0-rcm25-esm100-rsr0-rcr25-esr29.exr,ReadingArea_rsl0-rcl25-esl310-rsm0-rcm25-esm100-rsr0-rcr25-esr29.npz,,,,,0,201,201,251,,left,green,2.55,848.4293248653412,848.88174700737,,3,,5,4,lightness,readingArea,realistic,75,2023-03-14_10h07.08.751,tripletExp_regina_11082022,2022.2.4,119.97883216481164,
14,13,0,0,0.25,3.10526315789474,0,0.111111111111111,3.10526315789474,0,0.027777777777778,0.298245614035088,ReadingArea_rsl0-rcl25-esl310-rsm0-rcm11-esm310-rsr0-rcr2-esr29,exr/ReadingArea_rsl0-rcl25-esl310-rsm0-rcm11-esm310-rsr0-rcr2-esr29.exr,ReadingArea_rsl0-rcl25-esl310-rsm0-rcm11-esm310-rsr0-rcr2-esr29.npz,,,,,0,202,202,417,,left,green,2.29,852.3275370597839,852.7677779197693,,3,,5,4,lightness,readingArea,realistic,75,2023-03-14_10h07.08.751,tripletExp_regina_11082022,2022.2.4,119.97883216481164,
