index_left,index_middle,index_right,reflectance_surround_left,reflectance_center_left,emission_spot_left,reflectance_surround_middle,reflectance_center_middle,emission_spot_middle,reflectance_surround_right,reflectance_center_right,emission_spot_right,ImageName,ImageExr,ImageNpy,trials_2.thisRepN,trials_2.thisTrialN,trials_2.thisN,trials_2.thisIndex,trials.thisRepN,trials.thisTrialN,trials.thisN,trials.thisIndex,sound_1.started,BB_Trial.resp,BB_Trial.color,BB_Trial.rt,text.started,text.stopped,sound_2.started,block,sound_4.started,participant,session,L/B,scene,condition,nTrialsPerBlock,date,expName,psychopyVersion,frameRate,Unnamed: 42
3,9,0,0,0.444444444444444,0.298245614035088,0,0.444444444444444,1.0,0,0.027777777777778,0.298245614035088,ReadingArea_rsl0-rcl44-esl29-rsm0-rcm44-esm100-rsr0-rcr2-esr29,exr/ReadingArea_rsl0-rcl44-esl29-rsm0-rcm44-esm100-rsr0-rcr2-esr29.exr,ReadingArea_rsl0-rcl44-esl29-rsm0-rcm44-esm100-rsr0-rcr2-esr29.npz,,,,,0,0,0,551,803.9560520410538,left,green,2.5,820.0755648612976,805.2370278835297,782.0789711236954,1,,4,5,lightness,readingArea,realistic,75,2023-03-24_09h50.44.260,tripletExp_regina_11082022,2022.2.4,120.20542920029348,
9,11,10,0,0.444444444444444,1.0,0,1.0,1.0,0,0.694444444444444,1.0,ReadingArea_rsl0-rcl44-esl100-rsm0-rcm100-esm100-rsr0-rcr69-esr100,exr/ReadingArea_rsl0-rcl44-esl100-rsm0-rcm100-esm100-rsr0-rcr69-esr100.exr,ReadingArea_rsl0-rcl44-esl100-rsm0-rcm100-esm100-rsr0-rcr69-esr100.npz,,,,,0,1,1,591,,right,red,2.29,824.1841478347778,,,1,,4,5,lightness,readingArea,realistic,75,2023-03-24_09h50.44.260,tripletExp_regina_11082022,2022.2.4,120.20542920029348,
11,0,10,0,1.0,1.0,0,0.027777777777778,0.298245614035088,0,0.694444444444444,1.0,ReadingArea_rsl0-rcl100-esl100-rsm0-rcm2-esm29-rsr0-rcr69-esr100,exr/ReadingArea_rsl0-rcl100-esl100-rsm0-rcm2-esm29-rsr0-rcr69-esr100.exr,ReadingArea_rsl0-rcl100-esl100-rsm0-rcm2-esm29-rsr0-rcr69-esr100.npz,,,,,0,2,2,259,,right,red,3.53,834.4887018203735,834.9597280025482,,1,,4,5,lightness,readingArea,realistic,75,2023-03-24_09h50.44.260,tripletExp_regina_11082022,2022.2.4,120.20542920029348,
0,5,6,0,0.027777777777778,0.298245614035088,0,1.0,0.298245614035088,0,0.027777777777778,1.0,ReadingArea_rsl0-rcl2-esl29-rsm0-rcm100-esm29-rsr0-rcr2-esr100,exr/ReadingArea_rsl0-rcl2-esl29-rsm0-rcm100-esm29-rsr0-rcr2-esr100.exr,ReadingArea_rsl0-rcl2-esl29-rsm0-rcm100-esm29-rsr0-rcr2-esr100.npz,,,,,0,3,3,374,,right,red,3.16,838.4143688678741,838.8500440120697,,1,,4,5,lightness,readingArea,realistic,75,2023-03-24_09h50.44.260,tripletExp_regina_11082022,2022.2.4,120.20542920029348,
3,10,4,0,0.444444444444444,0.298245614035088,0,0.694444444444444,1.0,0,0.694444444444444,0.298245614035088,ReadingArea_rsl0-rcl44-esl29-rsm0-rcm69-esm100-rsr0-rcr69-esr29,exr/ReadingArea_rsl0-rcl44-esl29-rsm0-rcm69-esm100-rsr0-rcr69-esr29.exr,ReadingArea_rsl0-rcl44-esl29-rsm0-rcm69-esm100-rsr0-rcr69-esr29.npz,,,,,0,4,4,435,,right,red,4.03,844.0848588943481,844.7080578804016,,1,,4,5,lightness,readingArea,realistic,75,2023-03-24_09h50.44.260,tripletExp_regina_11082022,2022.2.4,120.20542920029348,
12,7,1,0,0.027777777777778,3.10526315789474,0,0.111111111111111,1.0,0,0.111111111111111,0.298245614035088,ReadingArea_rsl0-rcl2-esl310-rsm0-rcm11-esm100-rsr0-rcr11-esr29,exr/ReadingArea_rsl0-rcl2-esl310-rsm0-rcm11-esm100-rsr0-rcr11-esr29.exr,ReadingArea_rsl0-rcl2-esl310-rsm0-rcm11-esm100-rsr0-rcr11-esr29.npz,,,,,0,5,5,264,,left,green,2.3,848.1928408145905,848.6358299255371,,1,,4,5,lightness,readingArea,realistic,75,2023-03-24_09h50.44.260,tripletExp_regina_11082022,2022.2.4,120.20542920029348,
10,3,6,0,0.694444444444444,1.0,0,0.444444444444444,0.298245614035088,0,0.027777777777778,1.0,ReadingArea_rsl0-rcl69-esl100-rsm0-rcm44-esm29-rsr0-rcr2-esr100,exr/ReadingArea_rsl0-rcl69-esl100-rsm0-rcm44-esm29-rsr0-rcr2-esr100.exr,ReadingArea_rsl0-rcl69-esl100-rsm0-rcm44-esm29-rsr0-rcr2-esr100.npz,,,,,0,6,6,261,,right,red,2.01,852.1072828769684,852.5851500034332,,1,,4,5,lightness,readingArea,realistic,75,2023-03-24_09h50.44.260,tripletExp_regina_11082022,2022.2.4,120.20542920029348,
10,5,2,0,0.694444444444444,1.0,0,1.0,0.298245614035088,0,0.25,0.298245614035088,ReadingArea_rsl0-rcl69-esl100-rsm0-rcm100-esm29-rsr0-rcr25-esr29,exr/ReadingArea_rsl0-rcl69-esl100-rsm0-rcm100-esm29-rsr0-rcr25-esr29.exr,ReadingArea_rsl0-rcl69-esl100-rsm0-rcm100-esm29-rsr0-rcr25-esr29.npz,,,,,0,7,7,299,,right,red,3.84,857.8536369800568,858.3213319778442,,1,,4,5,lightness,readingArea,realistic,75,2023-03-24_09h50.44.260,tripletExp_regina_11082022,2022.2.4,120.20542920029348,
8,1,9,0,0.25,1.0,0,0.111111111111111,0.298245614035088,0,0.444444444444444,1.0,ReadingArea_rsl0-rcl25-esl100-rsm0-rcm11-esm29-rsr0-rcr44-esr100,exr/ReadingArea_rsl0-rcl25-esl100-rsm0-rcm11-esm29-rsr0-rcr44-esr100.exr,ReadingArea_rsl0-rcl25-esl100-rsm0-rcm11-esm29-rsr0-rcr44-esr100.npz,,,,,0,8,8,432,,left,green,2.45,861.7867619991302,862.2956688404083,,1,,4,5,lightness,readingArea,realistic,75,2023-03-24_09h50.44.260,tripletExp_regina_11082022,2022.2.4,120.20542920029348,
0,1,6,0,0.027777777777778,0.298245614035088,0,0.111111111111111,0.298245614035088,0,0.027777777777778,1.0,ReadingArea_rsl0-rcl2-esl29-rsm0-rcm11-esm29-rsr0-rcr2-esr100,exr/ReadingArea_rsl0-rcl2-esl29-rsm0-rcm11-esm29-rsr0-rcr2-esr100.exr,ReadingArea_rsl0-rcl2-esl29-rsm0-rcm11-esm29-rsr0-rcr2-esr100.npz,,,,,0,9,9,375,,right,red,2.38,865.7841808795929,866.2385449409485,,1,,4,5,lightness,readingArea,realistic,75,2023-03-24_09h50.44.260,tripletExp_regina_11082022,2022.2.4,120.20542920029348,
2,14,9,0,0.25,0.298245614035088,0,0.25,3.10526315789474,0,0.444444444444444,1.0,ReadingArea_rsl0-rcl25-esl29-rsm0-rcm25-esm310-rsr0-rcr44-esr100,exr/ReadingArea_rsl0-rcl25-esl29-rsm0-rcm25-esm310-rsr0-rcr44-esr100.exr,ReadingArea_rsl0-rcl25-esl29-rsm0-rcm25-esm310-rsr0-rcr44-esr100.npz,,,,,0,10,10,51,,right,red,2.86,869.7135698795319,870.4152979850769,,1,,4,5,lightness,readingArea,realistic,75,2023-03-24_09h50.44.260,tripletExp_regina_11082022,2022.2.4,120.20542920029348,
12,5,2,0,0.027777777777778,3.10526315789474,0,1.0,0.298245614035088,0,0.25,0.298245614035088,ReadingArea_rsl0-rcl2-esl310-rsm0-rcm100-esm29-rsr0-rcr25-esr29,exr/ReadingArea_rsl0-rcl2-esl310-rsm0-rcm100-esm29-rsr0-rcr25-esr29.exr,ReadingArea_rsl0-rcl2-esl310-rsm0-rcm100-esm29-rsr0-rcr25-esr29.npz,,,,,0,11,11,415,,left,green,3.89,875.625412940979,876.0929548740387,,1,,4,5,lightness,readingArea,realistic,75,2023-03-24_09h50.44.260,tripletExp_regina_11082022,2022.2.4,120.20542920029348,
8,12,7,0,0.25,1.0,0,0.027777777777778,3.10526315789474,0,0.111111111111111,1.0,ReadingArea_rsl0-rcl25-esl100-rsm0-rcm2-esm310-rsr0-rcr11-esr100,exr/ReadingArea_rsl0-rcl25-esl100-rsm0-rcm2-esm310-rsr0-rcr11-esr100.exr,ReadingArea_rsl0-rcl25-esl100-rsm0-rcm2-esm310-rsr0-rcr11-esr100.npz,,,,,0,12,12,467,,right,red,2.23,879.5904788970947,,,1,,4,5,lightness,readingArea,realistic,75,2023-03-24_09h50.44.260,tripletExp_regina_11082022,2022.2.4,120.20542920029348,
6,11,14,0,0.027777777777778,1.0,0,1.0,1.0,0,0.25,3.10526315789474,ReadingArea_rsl0-rcl2-esl100-rsm0-rcm100-esm100-rsr0-rcr25-esr310,exr/ReadingArea_rsl0-rcl2-esl100-rsm0-rcm100-esm100-rsr0-rcr25-esr310.exr,ReadingArea_rsl0-rcl2-esl100-rsm0-rcm100-esm100-rsr0-rcr25-esr310.npz,,,,,0,13,13,262,,right,red,2.19,883.5725808143616,884.031476020813,,1,,4,5,lightness,readingArea,realistic,75,2023-03-24_09h50.44.260,tripletExp_regina_11082022,2022.2.4,120.20542920029348,
5,10,12,0,1.0,0.298245614035088,0,0.694444444444444,1.0,0,0.027777777777778,3.10526315789474,ReadingArea_rsl0-rcl100-esl29-rsm0-rcm69-esm100-rsr0-rcr2-esr310,exr/ReadingArea_rsl0-rcl100-esl29-rsm0-rcm69-esm100-rsr0-rcr2-esr310.exr,ReadingArea_rsl0-rcl100-esl29-rsm0-rcm69-esm100-rsr0-rcr2-esr310.npz,,,,,0,14,14,587,,left,green,2.33,887.5177919864655,887.9769248962402,,1,,4,5,lightness,readingArea,realistic,75,2023-03-24_09h50.44.260,tripletExp_regina_11082022,2022.2.4,120.20542920029348,
10,4,9,0,0.694444444444444,1.0,0,0.694444444444444,0.298245614035088,0,0.444444444444444,1.0,ReadingArea_rsl0-rcl69-esl100-rsm0-rcm69-esm29-rsr0-rcr44-esr100,exr/ReadingArea_rsl0-rcl69-esl100-rsm0-rcm69-esm29-rsr0-rcr44-esr100.exr,ReadingArea_rsl0-rcl69-esl100-rsm0-rcm69-esm29-rsr0-rcr44-esr100.npz,,,,,0,15,15,452,,right,red,1.93,891.4523839950562,891.9562449455261,,1,,4,5,lightness,readingArea,realistic,75,2023-03-24_09h50.44.260,tripletExp_regina_11082022,2022.2.4,120.20542920029348,
14,3,6,0,0.25,3.10526315789474,0,0.444444444444444,0.298245614035088,0,0.027777777777778,1.0,ReadingArea_rsl0-rcl25-esl310-rsm0-rcm44-esm29-rsr0-rcr2-esr100,exr/ReadingArea_rsl0-rcl25-esl310-rsm0-rcm44-esm29-rsr0-rcr2-esr100.exr,ReadingArea_rsl0-rcl25-esl310-rsm0-rcm44-esm29-rsr0-rcr2-esr100.npz,,,,,0,16,16,244,,right,red,2.07,895.4216768741608,895.9054708480835,,1,,4,5,lightness,readingArea,realistic,75,2023-03-24_09h50.44.260,tripletExp_regina_11082022,2022.2.4,120.20542920029348,
12,3,0,0,0.027777777777778,3.10526315789474,0,0.444444444444444,0.298245614035088,0,0.027777777777778,0.298245614035088,ReadingArea_rsl0-rcl2-esl310-rsm0-rcm44-esm29-rsr0-rcr2-esr29,exr/ReadingArea_rsl0-rcl2-esl310-rsm0-rcm44-esm29-rsr0-rcr2-esr29.exr,ReadingArea_rsl0-rcl2-esl310-rsm0-rcm44-esm29-rsr0-rcr2-esr29.npz,,,,,0,17,17,502,,left,green,2.06,899.3757648468018,899.9358990192413,,1,,4,5,lightness,readingArea,realistic,75,2023-03-24_09h50.44.260,tripletExp_regina_11082022,2022.2.4,120.20542920029348,
2,1,12,0,0.25,0.298245614035088,0,0.111111111111111,0.298245614035088,0,0.027777777777778,3.10526315789474,ReadingArea_rsl0-rcl25-esl29-rsm0-rcm11-esm29-rsr0-rcr2-esr310,exr/ReadingArea_rsl0-rcl25-esl29-rsm0-rcm11-esm29-rsr0-rcr2-esr310.exr,ReadingArea_rsl0-rcl25-esl29-rsm0-rcm11-esm29-rsr0-rcr2-esr310.npz,,,,,0,18,18,12,,left,green,2.32,903.3845570087432,903.8773369789124,,1,,4,5,lightness,readingArea,realistic,75,2023-03-24_09h50.44.260,tripletExp_regina_11082022,2022.2.4,120.20542920029348,
13,4,0,0,0.111111111111111,3.10526315789474,0,0.694444444444444,0.298245614035088,0,0.027777777777778,0.298245614035088,ReadingArea_rsl0-rcl11-esl310-rsm0-rcm69-esm29-rsr0-rcr2-esr29,exr/ReadingArea_rsl0-rcl11-esl310-rsm0-rcm69-esm29-rsr0-rcr2-esr29.exr,ReadingArea_rsl0-rcl11-esl310-rsm0-rcm69-esm29-rsr0-rcr2-esr29.npz,,,,,0,19,19,269,,left,green,1.15,905.5940709114076,906.0293748378754,,1,,4,5,lightness,readingArea,realistic,75,2023-03-24_09h50.44.260,tripletExp_regina_11082022,2022.2.4,120.20542920029348,
4,8,0,0,0.694444444444444,0.298245614035088,0,0.25,1.0,0,0.027777777777778,0.298245614035088,ReadingArea_rsl0-rcl69-esl29-rsm0-rcm25-esm100-rsr0-rcr2-esr29,exr/ReadingArea_rsl0-rcl69-esl29-rsm0-rcm25-esm100-rsr0-rcr2-esr29.exr,ReadingArea_rsl0-rcl69-esl29-rsm0-rcm25-esm100-rsr0-rcr2-esr29.npz,,,,,0,20,20,137,,left,green,2.13,909.5155129432678,909.983018875122,,1,,4,5,lightness,readingArea,realistic,75,2023-03-24_09h50.44.260,tripletExp_regina_11082022,2022.2.4,120.20542920029348,
1,14,5,0,0.111111111111111,0.298245614035088,0,0.25,3.10526315789474,0,1.0,0.298245614035088,ReadingArea_rsl0-rcl11-esl29-rsm0-rcm25-esm310-rsr0-rcr100-esr29,exr/ReadingArea_rsl0-rcl11-esl29-rsm0-rcm25-esm310-rsr0-rcr100-esr29.exr,ReadingArea_rsl0-rcl11-esl29-rsm0-rcm25-esm310-rsr0-rcr100-esr29.npz,,,,,0,21,21,509,,right,red,3.01,913.4593379497528,913.9037849903108,,1,,4,5,lightness,readingArea,realistic,75,2023-03-24_09h50.44.260,tripletExp_regina_11082022,2022.2.4,120.20542920029348,
7,8,6,0,0.111111111111111,1.0,0,0.25,1.0,0,0.027777777777778,1.0,ReadingArea_rsl0-rcl11-esl100-rsm0-rcm25-esm100-rsr0-rcr2-esr100,exr/ReadingArea_rsl0-rcl11-esl100-rsm0-rcm25-esm100-rsr0-rcr2-esr100.exr,ReadingArea_rsl0-rcl11-esl100-rsm0-rcm25-esm100-rsr0-rcr2-esr100.npz,,,,,0,22,22,387,,left,green,2.49,917.379546880722,917.847678899765,,1,,4,5,lightness,readingArea,realistic,75,2023-03-24_09h50.44.260,tripletExp_regina_11082022,2022.2.4,120.20542920029348,
2,1,8,0,0.25,0.298245614035088,0,0.111111111111111,0.298245614035088,0,0.25,1.0,ReadingArea_rsl0-rcl25-esl29-rsm0-rcm11-esm29-rsr0-rcr25-esr100,exr/ReadingArea_rsl0-rcl25-esl29-rsm0-rcm11-esm29-rsr0-rcr25-esr100.exr,ReadingArea_rsl0-rcl25-esl29-rsm0-rcm11-esm29-rsr0-rcr25-esr100.npz,,,,,0,23,23,125,,left,green,3.72,923.1280009746552,923.6060318946838,,1,,4,5,lightness,readingArea,realistic,75,2023-03-24_09h50.44.260,tripletExp_regina_11082022,2022.2.4,120.20542920029348,
13,4,12,0,0.111111111111111,3.10526315789474,0,0.694444444444444,0.298245614035088,0,0.027777777777778,3.10526315789474,ReadingArea_rsl0-rcl11-esl310-rsm0-rcm69-esm29-rsr0-rcr2-esr310,exr/ReadingArea_rsl0-rcl11-esl310-rsm0-rcm69-esm29-rsr0-rcr2-esr310.exr,ReadingArea_rsl0-rcl11-esl310-rsm0-rcm69-esm29-rsr0-rcr2-esr310.npz,,,,,0,24,24,122,,left,green,3.49,927.092530965805,927.5587379932404,,1,,4,5,lightness,readingArea,realistic,75,2023-03-24_09h50.44.260,tripletExp_regina_11082022,2022.2.4,120.20542920029348,
6,10,9,0,0.027777777777778,1.0,0,0.694444444444444,1.0,0,0.444444444444444,1.0,ReadingArea_rsl0-rcl2-esl100-rsm0-rcm69-esm100-rsr0-rcr44-esr100,exr/ReadingArea_rsl0-rcl2-esl100-rsm0-rcm69-esm100-rsr0-rcr44-esr100.exr,ReadingArea_rsl0-rcl2-esl100-rsm0-rcm69-esm100-rsr0-rcr44-esr100.npz,,,,,0,25,25,148,,right,red,2.21,931.054121017456,931.51247382164,,1,,4,5,lightness,readingArea,realistic,75,2023-03-24_09h50.44.260,tripletExp_regina_11082022,2022.2.4,120.20542920029348,
7,4,2,0,0.111111111111111,1.0,0,0.694444444444444,0.298245614035088,0,0.25,0.298245614035088,ReadingArea_rsl0-rcl11-esl100-rsm0-rcm69-esm29-rsr0-rcr25-esr29,exr/ReadingArea_rsl0-rcl11-esl100-rsm0-rcm69-esm29-rsr0-rcr25-esr29.exr,ReadingArea_rsl0-rcl11-esl100-rsm0-rcm69-esm29-rsr0-rcr25-esr29.npz,,,,,0,26,26,146,,left,green,3.78,936.7612760066986,937.2356178760529,,1,,4,5,lightness,readingArea,realistic,75,2023-03-24_09h50.44.260,tripletExp_regina_11082022,2022.2.4,120.20542920029348,
3,13,12,0,0.444444444444444,0.298245614035088,0,0.111111111111111,3.10526315789474,0,0.027777777777778,3.10526315789474,ReadingArea_rsl0-rcl44-esl29-rsm0-rcm11-esm310-rsr0-rcr2-esr310,exr/ReadingArea_rsl0-rcl44-esl29-rsm0-rcm11-esm310-rsr0-rcr2-esr310.exr,ReadingArea_rsl0-rcl44-esl29-rsm0-rcm11-esm310-rsr0-rcr2-esr310.npz,,,,,0,27,27,34,,right,red,4.77,942.4718198776244,943.0373659133912,,1,,4,5,lightness,readingArea,realistic,75,2023-03-24_09h50.44.260,tripletExp_regina_11082022,2022.2.4,120.20542920029348,
14,8,9,0,0.25,3.10526315789474,0,0.25,1.0,0,0.444444444444444,1.0,ReadingArea_rsl0-rcl25-esl310-rsm0-rcm25-esm100-rsr0-rcr44-esr100,exr/ReadingArea_rsl0-rcl25-esl310-rsm0-rcm25-esm100-rsr0-rcr44-esr100.exr,ReadingArea_rsl0-rcl25-esl310-rsm0-rcm25-esm100-rsr0-rcr44-esr100.npz,,,,,0,28,28,518,,right,red,2.13,946.4925110340118,946.947953939438,,1,,4,5,lightness,readingArea,realistic,75,2023-03-24_09h50.44.260,tripletExp_regina_11082022,2022.2.4,120.20542920029348,
14,7,8,0,0.25,3.10526315789474,0,0.111111111111111,1.0,0,0.25,1.0,ReadingArea_rsl0-rcl25-esl310-rsm0-rcm11-esm100-rsr0-rcr25-esr100,exr/ReadingArea_rsl0-rcl25-esl310-rsm0-rcm11-esm100-rsr0-rcr25-esr100.exr,ReadingArea_rsl0-rcl25-esl310-rsm0-rcm11-esm100-rsr0-rcr25-esr100.npz,,,,,0,29,29,326,,right,red,1.88,950.413323879242,950.8679599761964,,1,,4,5,lightness,readingArea,realistic,75,2023-03-24_09h50.44.260,tripletExp_regina_11082022,2022.2.4,120.20542920029348,
3,14,10,0,0.444444444444444,0.298245614035088,0,0.25,3.10526315789474,0,0.694444444444444,1.0,ReadingArea_rsl0-rcl44-esl29-rsm0-rcm25-esm310-rsr0-rcr69-esr100,exr/ReadingArea_rsl0-rcl44-esl29-rsm0-rcm25-esm310-rsr0-rcr69-esr100.exr,ReadingArea_rsl0-rcl44-esl29-rsm0-rcm25-esm310-rsr0-rcr69-esr100.npz,,,,,0,30,30,279,,right,red,2.18,954.3693189620972,,,1,,4,5,lightness,readingArea,realistic,75,2023-03-24_09h50.44.260,tripletExp_regina_11082022,2022.2.4,120.20542920029348,
14,12,10,0,0.25,3.10526315789474,0,0.027777777777778,3.10526315789474,0,0.694444444444444,1.0,ReadingArea_rsl0-rcl25-esl310-rsm0-rcm2-esm310-rsr0-rcr69-esr100,exr/ReadingArea_rsl0-rcl25-esl310-rsm0-rcm2-esm310-rsr0-rcr69-esr100.exr,ReadingArea_rsl0-rcl25-esl310-rsm0-rcm2-esm310-rsr0-rcr69-esr100.npz,,,,,0,31,31,331,,right,red,2.12,958.2995100021362,958.94464802742,,1,,4,5,lightness,readingArea,realistic,75,2023-03-24_09h50.44.260,tripletExp_regina_11082022,2022.2.4,120.20542920029348,
2,4,6,0,0.25,0.298245614035088,0,0.694444444444444,0.298245614035088,0,0.027777777777778,1.0,ReadingArea_rsl0-rcl25-esl29-rsm0-rcm69-esm29-rsr0-rcr2-esr100,exr/ReadingArea_rsl0-rcl25-esl29-rsm0-rcm69-esm29-rsr0-rcr2-esr100.exr,ReadingArea_rsl0-rcl25-esl29-rsm0-rcm69-esm29-rsr0-rcr2-esr100.npz,,,,,0,32,32,563,,left,green,3.02,962.428375005722,962.8917100429536,,1,,4,5,lightness,readingArea,realistic,75,2023-03-24_09h50.44.260,tripletExp_regina_11082022,2022.2.4,120.20542920029348,
2,14,7,0,0.25,0.298245614035088,0,0.25,3.10526315789474,0,0.111111111111111,1.0,ReadingArea_rsl0-rcl25-esl29-rsm0-rcm25-esm310-rsr0-rcr11-esr100,exr/ReadingArea_rsl0-rcl25-esl29-rsm0-rcm25-esm310-rsr0-rcr11-esr100.exr,ReadingArea_rsl0-rcl25-esl29-rsm0-rcm25-esm310-rsr0-rcr11-esr100.npz,,,,,0,33,33,310,,right,red,2.64,966.3394639492036,966.8505108356476,,1,,4,5,lightness,readingArea,realistic,75,2023-03-24_09h50.44.260,tripletExp_regina_11082022,2022.2.4,120.20542920029348,
5,3,10,0,1.0,0.298245614035088,0,0.444444444444444,0.298245614035088,0,0.694444444444444,1.0,ReadingArea_rsl0-rcl100-esl29-rsm0-rcm44-esm29-rsr0-rcr69-esr100,exr/ReadingArea_rsl0-rcl100-esl29-rsm0-rcm44-esm29-rsr0-rcr69-esr100.exr,ReadingArea_rsl0-rcl100-esl29-rsm0-rcm44-esm29-rsr0-rcr69-esr100.npz,,,,,0,34,34,546,,left,green,2.04,970.3070750236512,970.766492843628,,1,,4,5,lightness,readingArea,realistic,75,2023-03-24_09h50.44.260,tripletExp_regina_11082022,2022.2.4,120.20542920029348,
12,5,10,0,0.027777777777778,3.10526315789474,0,1.0,0.298245614035088,0,0.694444444444444,1.0,ReadingArea_rsl0-rcl2-esl310-rsm0-rcm100-esm29-rsr0-rcr69-esr100,exr/ReadingArea_rsl0-rcl2-esl310-rsm0-rcm100-esm29-rsr0-rcr69-esr100.exr,ReadingArea_rsl0-rcl2-esl310-rsm0-rcm100-esm29-rsr0-rcr69-esr100.npz,,,,,0,35,35,493,,right,red,2.07,974.2447910308838,974.7357199192048,,1,,4,5,lightness,readingArea,realistic,75,2023-03-24_09h50.44.260,tripletExp_regina_11082022,2022.2.4,120.20542920029348,
14,12,9,0,0.25,3.10526315789474,0,0.027777777777778,3.10526315789474,0,0.444444444444444,1.0,ReadingArea_rsl0-rcl25-esl310-rsm0-rcm2-esm310-rsr0-rcr44-esr100,exr/ReadingArea_rsl0-rcl25-esl310-rsm0-rcm2-esm310-rsr0-rcr44-esr100.exr,ReadingArea_rsl0-rcl25-esl310-rsm0-rcm2-esm310-rsr0-rcr44-esr100.npz,,,,,0,36,36,40,,right,red,2.01,978.2211489677428,978.6828548908234,,1,,4,5,lightness,readingArea,realistic,75,2023-03-24_09h50.44.260,tripletExp_regina_11082022,2022.2.4,120.20542920029348,
10,4,13,0,0.694444444444444,1.0,0,0.694444444444444,0.298245614035088,0,0.111111111111111,3.10526315789474,ReadingArea_rsl0-rcl69-esl100-rsm0-rcm69-esm29-rsr0-rcr11-esr310,exr/ReadingArea_rsl0-rcl69-esl100-rsm0-rcm69-esm29-rsr0-rcr11-esr310.exr,ReadingArea_rsl0-rcl69-esl100-rsm0-rcm69-esm29-rsr0-rcr11-esr310.npz,,,,,0,37,37,24,,right,red,1.17,980.3834838867188,980.8936088085176,,1,,4,5,lightness,readingArea,realistic,75,2023-03-24_09h50.44.260,tripletExp_regina_11082022,2022.2.4,120.20542920029348,
10,11,5,0,0.694444444444444,1.0,0,1.0,1.0,0,1.0,0.298245614035088,ReadingArea_rsl0-rcl69-esl100-rsm0-rcm100-esm100-rsr0-rcr100-esr29,exr/ReadingArea_rsl0-rcl69-esl100-rsm0-rcm100-esm100-rsr0-rcr100-esr29.exr,ReadingArea_rsl0-rcl69-esl100-rsm0-rcm100-esm100-rsr0-rcr100-esr29.npz,,,,,0,38,38,514,,left,green,1.94,984.3805038928986,984.8477749824524,,1,,4,5,lightness,readingArea,realistic,75,2023-03-24_09h50.44.260,tripletExp_regina_11082022,2022.2.4,120.20542920029348,
7,14,10,0,0.111111111111111,1.0,0,0.25,3.10526315789474,0,0.694444444444444,1.0,ReadingArea_rsl0-rcl11-esl100-rsm0-rcm25-esm310-rsr0-rcr69-esr100,exr/ReadingArea_rsl0-rcl11-esl100-rsm0-rcm25-esm310-rsr0-rcr69-esr100.exr,ReadingArea_rsl0-rcl11-esl100-rsm0-rcm25-esm310-rsr0-rcr69-esr100.npz,,,,,0,39,39,472,,right,red,2.22,988.3156549930573,988.7662258148192,,1,,4,5,lightness,readingArea,realistic,75,2023-03-24_09h50.44.260,tripletExp_regina_11082022,2022.2.4,120.20542920029348,
6,13,0,0,0.027777777777778,1.0,0,0.111111111111111,3.10526315789474,0,0.027777777777778,0.298245614035088,ReadingArea_rsl0-rcl2-esl100-rsm0-rcm11-esm310-rsr0-rcr2-esr29,exr/ReadingArea_rsl0-rcl2-esl100-rsm0-rcm11-esm310-rsr0-rcr2-esr29.exr,ReadingArea_rsl0-rcl2-esl100-rsm0-rcm11-esm310-rsr0-rcr2-esr29.npz,,,,,0,40,40,580,,left,green,2.67,992.251114845276,992.7278959751128,,1,,4,5,lightness,readingArea,realistic,75,2023-03-24_09h50.44.260,tripletExp_regina_11082022,2022.2.4,120.20542920029348,
0,8,14,0,0.027777777777778,0.298245614035088,0,0.25,1.0,0,0.25,3.10526315789474,ReadingArea_rsl0-rcl2-esl29-rsm0-rcm25-esm100-rsr0-rcr25-esr310,exr/ReadingArea_rsl0-rcl2-esl29-rsm0-rcm25-esm100-rsr0-rcr25-esr310.exr,ReadingArea_rsl0-rcl2-esl29-rsm0-rcm25-esm100-rsr0-rcr25-esr310.npz,,,,,0,41,41,114,,right,red,1.09,994.4250428676604,994.8949689865112,,1,,4,5,lightness,readingArea,realistic,75,2023-03-24_09h50.44.260,tripletExp_regina_11082022,2022.2.4,120.20542920029348,
12,6,3,0,0.027777777777778,3.10526315789474,0,0.027777777777778,1.0,0,0.444444444444444,0.298245614035088,ReadingArea_rsl0-rcl2-esl310-rsm0-rcm2-esm100-rsr0-rcr44-esr29,exr/ReadingArea_rsl0-rcl2-esl310-rsm0-rcm2-esm100-rsr0-rcr44-esr29.exr,ReadingArea_rsl0-rcl2-esl310-rsm0-rcm2-esm100-rsr0-rcr44-esr29.npz,,,,,0,42,42,139,,left,green,2.01,998.3791718482972,998.8655200004578,,1,,4,5,lightness,readingArea,realistic,75,2023-03-24_09h50.44.260,tripletExp_regina_11082022,2022.2.4,120.20542920029348,
7,9,8,0,0.111111111111111,1.0,0,0.444444444444444,1.0,0,0.25,1.0,ReadingArea_rsl0-rcl11-esl100-rsm0-rcm44-esm100-rsr0-rcr25-esr100,exr/ReadingArea_rsl0-rcl11-esl100-rsm0-rcm44-esm100-rsr0-rcr25-esr100.exr,ReadingArea_rsl0-rcl11-esl100-rsm0-rcm44-esm100-rsr0-rcr25-esr100.npz,,,,,0,43,43,515,,right,red,2.7,1002.3392398357392,1002.8291199207306,,1,,4,5,lightness,readingArea,realistic,75,2023-03-24_09h50.44.260,tripletExp_regina_11082022,2022.2.4,120.20542920029348,
13,10,7,0,0.111111111111111,3.10526315789474,0,0.694444444444444,1.0,0,0.111111111111111,1.0,ReadingArea_rsl0-rcl11-esl310-rsm0-rcm69-esm100-rsr0-rcr11-esr100,exr/ReadingArea_rsl0-rcl11-esl310-rsm0-rcm69-esm100-rsr0-rcr11-esr100.exr,ReadingArea_rsl0-rcl11-esl310-rsm0-rcm69-esm100-rsr0-rcr11-esr100.npz,,,,,0,44,44,385,,left,green,1.57,1004.5409920215608,1005.0380158424376,,1,,4,5,lightness,readingArea,realistic,75,2023-03-24_09h50.44.260,tripletExp_regina_11082022,2022.2.4,120.20542920029348,
9,12,6,0,0.444444444444444,1.0,0,0.027777777777778,3.10526315789474,0,0.027777777777778,1.0,ReadingArea_rsl0-rcl44-esl100-rsm0-rcm2-esm310-rsr0-rcr2-esr100,exr/ReadingArea_rsl0-rcl44-esl100-rsm0-rcm2-esm310-rsr0-rcr2-esr100.exr,ReadingArea_rsl0-rcl44-esl100-rsm0-rcm2-esm310-rsr0-rcr2-esr100.npz,,,,,0,45,45,5,,right,red,1.56,1006.7469239234924,1007.2094509601592,,1,,4,5,lightness,readingArea,realistic,75,2023-03-24_09h50.44.260,tripletExp_regina_11082022,2022.2.4,120.20542920029348,
10,11,13,0,0.694444444444444,1.0,0,1.0,1.0,0,0.111111111111111,3.10526315789474,ReadingArea_rsl0-rcl69-esl100-rsm0-rcm100-esm100-rsr0-rcr11-esr310,exr/ReadingArea_rsl0-rcl69-esl100-rsm0-rcm100-esm100-rsr0-rcr11-esr310.exr,ReadingArea_rsl0-rcl69-esl100-rsm0-rcm100-esm100-rsr0-rcr11-esr310.npz,,,,,0,46,46,79,,left,green,2.22,1010.663151025772,1011.1391038894652,,1,,4,5,lightness,readingArea,realistic,75,2023-03-24_09h50.44.260,tripletExp_regina_11082022,2022.2.4,120.20542920029348,
8,11,1,0,0.25,1.0,0,1.0,1.0,0,0.111111111111111,0.298245614035088,ReadingArea_rsl0-rcl25-esl100-rsm0-rcm100-esm100-rsr0-rcr11-esr29,exr/ReadingArea_rsl0-rcl25-esl100-rsm0-rcm100-esm100-rsr0-rcr11-esr29.exr,ReadingArea_rsl0-rcl25-esl100-rsm0-rcm100-esm100-rsr0-rcr11-esr29.npz,,,,,0,47,47,132,,left,green,2.5,1014.6048269271852,1015.133190870285,,1,,4,5,lightness,readingArea,realistic,75,2023-03-24_09h50.44.260,tripletExp_regina_11082022,2022.2.4,120.20542920029348,
2,5,0,0,0.25,0.298245614035088,0,1.0,0.298245614035088,0,0.027777777777778,0.298245614035088,ReadingArea_rsl0-rcl25-esl29-rsm0-rcm100-esm29-rsr0-rcr2-esr29,exr/ReadingArea_rsl0-rcl25-esl29-rsm0-rcm100-esm29-rsr0-rcr2-esr29.exr,ReadingArea_rsl0-rcl25-esl29-rsm0-rcm100-esm29-rsr0-rcr2-esr29.npz,,,,,0,48,48,414,,left,green,1.19,1016.8220188617706,1017.3520698547364,,1,,4,5,lightness,readingArea,realistic,75,2023-03-24_09h50.44.260,tripletExp_regina_11082022,2022.2.4,120.20542920029348,
10,1,13,0,0.694444444444444,1.0,0,0.111111111111111,0.298245614035088,0,0.111111111111111,3.10526315789474,ReadingArea_rsl0-rcl69-esl100-rsm0-rcm11-esm29-rsr0-rcr11-esr310,exr/ReadingArea_rsl0-rcl69-esl100-rsm0-rcm11-esm29-rsr0-rcr11-esr310.exr,ReadingArea_rsl0-rcl69-esl100-rsm0-rcm11-esm29-rsr0-rcr11-esr310.npz,,,,,0,49,49,45,,right,red,2.13,1020.8360438346864,1021.4020719528198,,1,,4,5,lightness,readingArea,realistic,75,2023-03-24_09h50.44.260,tripletExp_regina_11082022,2022.2.4,120.20542920029348,
12,10,5,0,0.027777777777778,3.10526315789474,0,0.694444444444444,1.0,0,1.0,0.298245614035088,ReadingArea_rsl0-rcl2-esl310-rsm0-rcm69-esm100-rsr0-rcr100-esr29,exr/ReadingArea_rsl0-rcl2-esl310-rsm0-rcm69-esm100-rsr0-rcr100-esr29.exr,ReadingArea_rsl0-rcl2-esl310-rsm0-rcm69-esm100-rsr0-rcr100-esr29.npz,,,,,0,50,50,470,,right,red,1.99,1024.8715908527374,,,1,,4,5,lightness,readingArea,realistic,75,2023-03-24_09h50.44.260,tripletExp_regina_11082022,2022.2.4,120.20542920029348,
4,3,1,0,0.694444444444444,0.298245614035088,0,0.444444444444444,0.298245614035088,0,0.111111111111111,0.298245614035088,ReadingArea_rsl0-rcl69-esl29-rsm0-rcm44-esm29-rsr0-rcr11-esr29,exr/ReadingArea_rsl0-rcl69-esl29-rsm0-rcm44-esm29-rsr0-rcr11-esr29.exr,ReadingArea_rsl0-rcl69-esl29-rsm0-rcm44-esm29-rsr0-rcr11-esr29.npz,,,,,0,51,51,60,,left,green,1.05,1027.0102579593658,1027.6541650295258,,1,,4,5,lightness,readingArea,realistic,75,2023-03-24_09h50.44.260,tripletExp_regina_11082022,2022.2.4,120.20542920029348,
8,4,2,0,0.25,1.0,0,0.694444444444444,0.298245614035088,0,0.25,0.298245614035088,ReadingArea_rsl0-rcl25-esl100-rsm0-rcm69-esm29-rsr0-rcr25-esr29,exr/ReadingArea_rsl0-rcl25-esl100-rsm0-rcm69-esm29-rsr0-rcr25-esr29.exr,ReadingArea_rsl0-rcl25-esl100-rsm0-rcm69-esm29-rsr0-rcr25-esr29.npz,,,,,0,52,52,184,,left,green,2.35,1031.1030099391935,1031.6326990127563,,1,,4,5,lightness,readingArea,realistic,75,2023-03-24_09h50.44.260,tripletExp_regina_11082022,2022.2.4,120.20542920029348,
6,12,7,0,0.027777777777778,1.0,0,0.027777777777778,3.10526315789474,0,0.111111111111111,1.0,ReadingArea_rsl0-rcl2-esl100-rsm0-rcm2-esm310-rsr0-rcr11-esr100,exr/ReadingArea_rsl0-rcl2-esl100-rsm0-rcm2-esm310-rsr0-rcr11-esr100.exr,ReadingArea_rsl0-rcl2-esl100-rsm0-rcm2-esm310-rsr0-rcr11-esr100.npz,,,,,0,53,53,157,,right,red,2.41,1035.1226909160614,1035.605754852295,,1,,4,5,lightness,readingArea,realistic,75,2023-03-24_09h50.44.260,tripletExp_regina_11082022,2022.2.4,120.20542920029348,
2,9,10,0,0.25,0.298245614035088,0,0.444444444444444,1.0,0,0.694444444444444,1.0,ReadingArea_rsl0-rcl25-esl29-rsm0-rcm44-esm100-rsr0-rcr69-esr100,exr/ReadingArea_rsl0-rcl25-esl29-rsm0-rcm44-esm100-rsr0-rcr69-esr100.exr,ReadingArea_rsl0-rcl25-esl29-rsm0-rcm44-esm100-rsr0-rcr69-esr100.npz,,,,,0,54,54,117,,right,red,2.03,1039.070443868637,1039.5358159542084,,1,,4,5,lightness,readingArea,realistic,75,2023-03-24_09h50.44.260,tripletExp_regina_11082022,2022.2.4,120.20542920029348,
8,10,7,0,0.25,1.0,0,0.694444444444444,1.0,0,0.111111111111111,1.0,ReadingArea_rsl0-rcl25-esl100-rsm0-rcm69-esm100-rsr0-rcr11-esr100,exr/ReadingArea_rsl0-rcl25-esl100-rsm0-rcm69-esm100-rsr0-rcr11-esr100.exr,ReadingArea_rsl0-rcl25-esl100-rsm0-rcm69-esm100-rsr0-rcr11-esr100.npz,,,,,0,55,55,424,,left,green,2.65,1043.003998041153,1043.4558990001678,,1,,4,5,lightness,readingArea,realistic,75,2023-03-24_09h50.44.260,tripletExp_regina_11082022,2022.2.4,120.20542920029348,
2,8,11,0,0.25,0.298245614035088,0,0.25,1.0,0,1.0,1.0,ReadingArea_rsl0-rcl25-esl29-rsm0-rcm25-esm100-rsr0-rcr100-esr100,exr/ReadingArea_rsl0-rcl25-esl29-rsm0-rcm25-esm100-rsr0-rcr100-esr100.exr,ReadingArea_rsl0-rcl25-esl29-rsm0-rcm25-esm100-rsr0-rcr100-esr100.npz,,,,,0,56,56,225,,left,green,2.92,1046.9367668628693,1047.414631843567,,1,,4,5,lightness,readingArea,realistic,75,2023-03-24_09h50.44.260,tripletExp_regina_11082022,2022.2.4,120.20542920029348,
14,5,9,0,0.25,3.10526315789474,0,1.0,0.298245614035088,0,0.444444444444444,1.0,ReadingArea_rsl0-rcl25-esl310-rsm0-rcm100-esm29-rsr0-rcr44-esr100,exr/ReadingArea_rsl0-rcl25-esl310-rsm0-rcm100-esm29-rsr0-rcr44-esr100.exr,ReadingArea_rsl0-rcl25-esl310-rsm0-rcm100-esm29-rsr0-rcr44-esr100.npz,,,,,0,57,57,482,,right,red,1.21,1049.1200568675995,1049.59690284729,,1,,4,5,lightness,readingArea,realistic,75,2023-03-24_09h50.44.260,tripletExp_regina_11082022,2022.2.4,120.20542920029348,
11,8,10,0,1.0,1.0,0,0.25,1.0,0,0.694444444444444,1.0,ReadingArea_rsl0-rcl100-esl100-rsm0-rcm25-esm100-rsr0-rcr69-esr100,exr/ReadingArea_rsl0-rcl100-esl100-rsm0-rcm25-esm100-rsr0-rcr69-esr100.exr,ReadingArea_rsl0-rcl100-esl100-rsm0-rcm25-esm100-rsr0-rcr69-esr100.npz,,,,,0,58,58,67,,right,red,2.06,1053.0595819950104,,,1,,4,5,lightness,readingArea,realistic,75,2023-03-24_09h50.44.260,tripletExp_regina_11082022,2022.2.4,120.20542920029348,
1,9,8,0,0.111111111111111,0.298245614035088,0,0.444444444444444,1.0,0,0.25,1.0,ReadingArea_rsl0-rcl11-esl29-rsm0-rcm44-esm100-rsr0-rcr25-esr100,exr/ReadingArea_rsl0-rcl11-esl29-rsm0-rcm44-esm100-rsr0-rcr25-esr100.exr,ReadingArea_rsl0-rcl11-esl29-rsm0-rcm44-esm100-rsr0-rcr25-esr100.npz,,,,,0,59,59,268,,right,red,2.06,1057.0336799621582,1057.504068851471,,1,,4,5,lightness,readingArea,realistic,75,2023-03-24_09h50.44.260,tripletExp_regina_11082022,2022.2.4,120.20542920029348,
1,7,8,0,0.111111111111111,0.298245614035088,0,0.111111111111111,1.0,0,0.25,1.0,ReadingArea_rsl0-rcl11-esl29-rsm0-rcm11-esm100-rsr0-rcr25-esr100,exr/ReadingArea_rsl0-rcl11-esl29-rsm0-rcm11-esm100-rsr0-rcr25-esr100.exr,ReadingArea_rsl0-rcl11-esl29-rsm0-rcm11-esm100-rsr0-rcr25-esr100.npz,,,,,0,60,60,260,,left,green,2.34,1060.9867899417875,1061.4317548274994,,1,,4,5,lightness,readingArea,realistic,75,2023-03-24_09h50.44.260,tripletExp_regina_11082022,2022.2.4,120.20542920029348,
4,8,10,0,0.694444444444444,0.298245614035088,0,0.25,1.0,0,0.694444444444444,1.0,ReadingArea_rsl0-rcl69-esl29-rsm0-rcm25-esm100-rsr0-rcr69-esr100,exr/ReadingArea_rsl0-rcl69-esl29-rsm0-rcm25-esm100-rsr0-rcr69-esr100.exr,ReadingArea_rsl0-rcl69-esl29-rsm0-rcm25-esm100-rsr0-rcr69-esr100.npz,,,,,0,61,61,221,,left,green,2.01,1064.916169881821,1065.4041550159454,,1,,4,5,lightness,readingArea,realistic,75,2023-03-24_09h50.44.260,tripletExp_regina_11082022,2022.2.4,120.20542920029348,
10,7,2,0,0.694444444444444,1.0,0,0.111111111111111,1.0,0,0.25,0.298245614035088,ReadingArea_rsl0-rcl69-esl100-rsm0-rcm11-esm100-rsr0-rcr25-esr29,exr/ReadingArea_rsl0-rcl69-esl100-rsm0-rcm11-esm100-rsr0-rcr25-esr29.exr,ReadingArea_rsl0-rcl69-esl100-rsm0-rcm11-esm100-rsr0-rcr25-esr29.npz,,,,,0,62,62,523,,right,red,0.94,1067.0909309387207,1067.5455849170685,,1,,4,5,lightness,readingArea,realistic,75,2023-03-24_09h50.44.260,tripletExp_regina_11082022,2022.2.4,120.20542920029348,
4,11,14,0,0.694444444444444,0.298245614035088,0,1.0,1.0,0,0.25,3.10526315789474,ReadingArea_rsl0-rcl69-esl29-rsm0-rcm100-esm100-rsr0-rcr25-esr310,exr/ReadingArea_rsl0-rcl69-esl29-rsm0-rcm100-esm100-rsr0-rcr25-esr310.exr,ReadingArea_rsl0-rcl69-esl29-rsm0-rcm100-esm100-rsr0-rcr25-esr310.npz,,,,,0,63,63,165,,right,red,1.93,1070.992311000824,1071.5524199008942,,1,,4,5,lightness,readingArea,realistic,75,2023-03-24_09h50.44.260,tripletExp_regina_11082022,2022.2.4,120.20542920029348,
2,4,13,0,0.25,0.298245614035088,0,0.694444444444444,0.298245614035088,0,0.111111111111111,3.10526315789474,ReadingArea_rsl0-rcl25-esl29-rsm0-rcm69-esm29-rsr0-rcr11-esr310,exr/ReadingArea_rsl0-rcl25-esl29-rsm0-rcm69-esm29-rsr0-rcr11-esr310.exr,ReadingArea_rsl0-rcl25-esl29-rsm0-rcm69-esm29-rsr0-rcr11-esr310.npz,,,,,0,64,64,325,,right,red,2.46,1075.0392198562622,1075.5098569393158,,1,,4,5,lightness,readingArea,realistic,75,2023-03-24_09h50.44.260,tripletExp_regina_11082022,2022.2.4,120.20542920029348,
7,13,12,0,0.111111111111111,1.0,0,0.111111111111111,3.10526315789474,0,0.027777777777778,3.10526315789474,ReadingArea_rsl0-rcl11-esl100-rsm0-rcm11-esm310-rsr0-rcr2-esr310,exr/ReadingArea_rsl0-rcl11-esl100-rsm0-rcm11-esm310-rsr0-rcr2-esr310.exr,ReadingArea_rsl0-rcl11-esl100-rsm0-rcm11-esm310-rsr0-rcr2-esr310.npz,,,,,0,65,65,438,,,red,2.46,1080.757593870163,1081.3938870429993,,1,1080.3372530698775,4,5,lightness,readingArea,realistic,75,2023-03-24_09h50.44.260,tripletExp_regina_11082022,2022.2.4,120.20542920029348,
10,0,14,0,0.694444444444444,1.0,0,0.027777777777778,0.298245614035088,0,0.25,3.10526315789474,ReadingArea_rsl0-rcl69-esl100-rsm0-rcm2-esm29-rsr0-rcr25-esr310,exr/ReadingArea_rsl0-rcl69-esl100-rsm0-rcm2-esm29-rsr0-rcr25-esr310.exr,ReadingArea_rsl0-rcl69-esl100-rsm0-rcm2-esm29-rsr0-rcr25-esr310.npz,,,,,0,66,66,95,,right,red,4.48,1086.638671875,1087.0899138450625,,1,,4,5,lightness,readingArea,realistic,75,2023-03-24_09h50.44.260,tripletExp_regina_11082022,2022.2.4,120.20542920029348,
14,3,4,0,0.25,3.10526315789474,0,0.444444444444444,0.298245614035088,0,0.694444444444444,0.298245614035088,ReadingArea_rsl0-rcl25-esl310-rsm0-rcm44-esm29-rsr0-rcr69-esr29,exr/ReadingArea_rsl0-rcl25-esl310-rsm0-rcm44-esm29-rsr0-rcr69-esr29.exr,ReadingArea_rsl0-rcl25-esl310-rsm0-rcm44-esm29-rsr0-rcr69-esr29.npz,,,,,0,67,67,127,,right,red,2.37,1090.5869710445404,1091.0507588386536,,1,,4,5,lightness,readingArea,realistic,75,2023-03-24_09h50.44.260,tripletExp_regina_11082022,2022.2.4,120.20542920029348,
2,1,6,0,0.25,0.298245614035088,0,0.111111111111111,0.298245614035088,0,0.027777777777778,1.0,ReadingArea_rsl0-rcl25-esl29-rsm0-rcm11-esm29-rsr0-rcr2-esr100,exr/ReadingArea_rsl0-rcl25-esl29-rsm0-rcm11-esm29-rsr0-rcr2-esr100.exr,ReadingArea_rsl0-rcl25-esl29-rsm0-rcm11-esm29-rsr0-rcr2-esr100.npz,,,,,0,68,68,171,,right,red,3.65,1094.545511007309,1095.0046858787537,,1,,4,5,lightness,readingArea,realistic,75,2023-03-24_09h50.44.260,tripletExp_regina_11082022,2022.2.4,120.20542920029348,
4,3,11,0,0.694444444444444,0.298245614035088,0,0.444444444444444,0.298245614035088,0,1.0,1.0,ReadingArea_rsl0-rcl69-esl29-rsm0-rcm44-esm29-rsr0-rcr100-esr100,exr/ReadingArea_rsl0-rcl69-esl29-rsm0-rcm44-esm29-rsr0-rcr100-esr100.exr,ReadingArea_rsl0-rcl69-esl29-rsm0-rcm44-esm29-rsr0-rcr100-esr100.npz,,,,,0,69,69,439,,left,green,2.45,1098.484256029129,1098.937309026718,,1,,4,5,lightness,readingArea,realistic,75,2023-03-24_09h50.44.260,tripletExp_regina_11082022,2022.2.4,120.20542920029348,
7,0,3,0,0.111111111111111,1.0,0,0.027777777777778,0.298245614035088,0,0.444444444444444,0.298245614035088,ReadingArea_rsl0-rcl11-esl100-rsm0-rcm2-esm29-rsr0-rcr44-esr29,exr/ReadingArea_rsl0-rcl11-esl100-rsm0-rcm2-esm29-rsr0-rcr44-esr29.exr,ReadingArea_rsl0-rcl11-esl100-rsm0-rcm2-esm29-rsr0-rcr44-esr29.npz,,,,,0,70,70,237,,left,green,2.36,1102.4055678844452,1102.889168024063,,1,,4,5,lightness,readingArea,realistic,75,2023-03-24_09h50.44.260,tripletExp_regina_11082022,2022.2.4,120.20542920029348,
8,12,3,0,0.25,1.0,0,0.027777777777778,3.10526315789474,0,0.444444444444444,0.298245614035088,ReadingArea_rsl0-rcl25-esl100-rsm0-rcm2-esm310-rsr0-rcr44-esr29,exr/ReadingArea_rsl0-rcl25-esl100-rsm0-rcm2-esm310-rsr0-rcr44-esr29.exr,ReadingArea_rsl0-rcl25-esl100-rsm0-rcm2-esm310-rsr0-rcr44-esr29.npz,,,,,0,71,71,6,,right,red,2.96,1106.3618550300598,1106.8334798812866,,1,,4,5,lightness,readingArea,realistic,75,2023-03-24_09h50.44.260,tripletExp_regina_11082022,2022.2.4,120.20542920029348,
14,7,0,0,0.25,3.10526315789474,0,0.111111111111111,1.0,0,0.027777777777778,0.298245614035088,ReadingArea_rsl0-rcl25-esl310-rsm0-rcm11-esm100-rsr0-rcr2-esr29,exr/ReadingArea_rsl0-rcl25-esl310-rsm0-rcm11-esm100-rsr0-rcr2-esr29.exr,ReadingArea_rsl0-rcl25-esl310-rsm0-rcm11-esm100-rsr0-rcr2-esr29.npz,,,,,0,72,72,412,,right,red,4.52,1112.0957689285278,1112.5543348789215,,1,,4,5,lightness,readingArea,realistic,75,2023-03-24_09h50.44.260,tripletExp_regina_11082022,2022.2.4,120.20542920029348,
9,4,11,0,0.444444444444444,1.0,0,0.694444444444444,0.298245614035088,0,1.0,1.0,ReadingArea_rsl0-rcl44-esl100-rsm0-rcm69-esm29-rsr0-rcr100-esr100,exr/ReadingArea_rsl0-rcl44-esl100-rsm0-rcm69-esm29-rsr0-rcr100-esr100.exr,ReadingArea_rsl0-rcl44-esl100-rsm0-rcm69-esm29-rsr0-rcr100-esr100.npz,,,,,0,73,73,133,,left,green,2.81,1116.0027740001678,,,1,,4,5,lightness,readingArea,realistic,75,2023-03-24_09h50.44.260,tripletExp_regina_11082022,2022.2.4,120.20542920029348,
1,12,10,0,0.111111111111111,0.298245614035088,0,0.027777777777778,3.10526315789474,0,0.694444444444444,1.0,ReadingArea_rsl0-rcl11-esl29-rsm0-rcm2-esm310-rsr0-rcr69-esr100,exr/ReadingArea_rsl0-rcl11-esl29-rsm0-rcm2-esm310-rsr0-rcr69-esr100.exr,ReadingArea_rsl0-rcl11-esl29-rsm0-rcm2-esm310-rsr0-rcr69-esr100.npz,,,,,0,74,74,567,,left,green,3.94,1121.712427854538,,,1,,4,5,lightness,readingArea,realistic,75,2023-03-24_09h50.44.260,tripletExp_regina_11082022,2022.2.4,120.20542920029348,
9,12,0,0,0.444444444444444,1.0,0,0.027777777777778,3.10526315789474,0,0.027777777777778,0.298245614035088,ReadingArea_rsl0-rcl44-esl100-rsm0-rcm2-esm310-rsr0-rcr2-esr29,exr/ReadingArea_rsl0-rcl44-esl100-rsm0-rcm2-esm310-rsr0-rcr2-esr29.exr,ReadingArea_rsl0-rcl44-esl100-rsm0-rcm2-esm310-rsr0-rcr2-esr29.npz,,,,,0,75,75,175,,right,red,2.7,1151.4828369617462,1151.983819961548,,2,,4,5,lightness,readingArea,realistic,75,2023-03-24_09h50.44.260,tripletExp_regina_11082022,2022.2.4,120.20542920029348,
6,1,10,0,0.027777777777778,1.0,0,0.111111111111111,0.298245614035088,0,0.694444444444444,1.0,ReadingArea_rsl0-rcl2-esl100-rsm0-rcm11-esm29-rsr0-rcr69-esr100,exr/ReadingArea_rsl0-rcl2-esl100-rsm0-rcm11-esm29-rsr0-rcr69-esr100.exr,ReadingArea_rsl0-rcl2-esl100-rsm0-rcm11-esm29-rsr0-rcr69-esr100.npz,,,,,0,76,76,561,,left,green,2.19,1155.4543838500977,1155.9239609241486,,2,,4,5,lightness,readingArea,realistic,75,2023-03-24_09h50.44.260,tripletExp_regina_11082022,2022.2.4,120.20542920029348,
14,7,1,0,0.25,3.10526315789474,0,0.111111111111111,1.0,0,0.111111111111111,0.298245614035088,ReadingArea_rsl0-rcl25-esl310-rsm0-rcm11-esm100-rsr0-rcr11-esr29,exr/ReadingArea_rsl0-rcl25-esl310-rsm0-rcm11-esm100-rsr0-rcr11-esr29.exr,ReadingArea_rsl0-rcl25-esl310-rsm0-rcm11-esm100-rsr0-rcr11-esr29.npz,,,,,0,77,77,298,,right,red,2.06,1159.3940079212189,1159.9372789859772,,2,,4,5,lightness,readingArea,realistic,75,2023-03-24_09h50.44.260,tripletExp_regina_11082022,2022.2.4,120.20542920029348,
6,11,3,0,0.027777777777778,1.0,0,1.0,1.0,0,0.444444444444444,0.298245614035088,ReadingArea_rsl0-rcl2-esl100-rsm0-rcm100-esm100-rsr0-rcr44-esr29,exr/ReadingArea_rsl0-rcl2-esl100-rsm0-rcm100-esm100-rsr0-rcr44-esr29.exr,ReadingArea_rsl0-rcl2-esl100-rsm0-rcm100-esm100-rsr0-rcr44-esr29.npz,,,,,0,78,78,11,,right,red,2.58,1163.390380859375,1163.842149019241,,2,,4,5,lightness,readingArea,realistic,75,2023-03-24_09h50.44.260,tripletExp_regina_11082022,2022.2.4,120.20542920029348,
3,1,0,0,0.444444444444444,0.298245614035088,0,0.111111111111111,0.298245614035088,0,0.027777777777778,0.298245614035088,ReadingArea_rsl0-rcl44-esl29-rsm0-rcm11-esm29-rsr0-rcr2-esr29,exr/ReadingArea_rsl0-rcl44-esl29-rsm0-rcm11-esm29-rsr0-rcr2-esr29.exr,ReadingArea_rsl0-rcl44-esl29-rsm0-rcm11-esm29-rsr0-rcr2-esr29.npz,,,,,0,79,79,343,,right,red,4.18,1169.0497448444366,1169.496120929718,,2,,4,5,lightness,readingArea,realistic,75,2023-03-24_09h50.44.260,tripletExp_regina_11082022,2022.2.4,120.20542920029348,
10,6,3,0,0.694444444444444,1.0,0,0.027777777777778,1.0,0,0.444444444444444,0.298245614035088,ReadingArea_rsl0-rcl69-esl100-rsm0-rcm2-esm100-rsr0-rcr44-esr29,exr/ReadingArea_rsl0-rcl69-esl100-rsm0-rcm2-esm100-rsr0-rcr44-esr29.exr,ReadingArea_rsl0-rcl69-esl100-rsm0-rcm2-esm100-rsr0-rcr44-esr29.npz,,,,,0,80,80,0,,right,red,2.03,1172.9670100212095,1173.4277048110962,,2,,4,5,lightness,readingArea,realistic,75,2023-03-24_09h50.44.260,tripletExp_regina_11082022,2022.2.4,120.20542920029348,
9,3,8,0,0.444444444444444,1.0,0,0.444444444444444,0.298245614035088,0,0.25,1.0,ReadingArea_rsl0-rcl44-esl100-rsm0-rcm44-esm29-rsr0-rcr25-esr100,exr/ReadingArea_rsl0-rcl44-esl100-rsm0-rcm44-esm29-rsr0-rcr25-esr100.exr,ReadingArea_rsl0-rcl44-esl100-rsm0-rcm44-esm29-rsr0-rcr25-esr100.npz,,,,,0,81,81,530,,right,red,2.62,1176.8885970115662,1177.4060180187223,,2,,4,5,lightness,readingArea,realistic,75,2023-03-24_09h50.44.260,tripletExp_regina_11082022,2022.2.4,120.20542920029348,
6,2,5,0,0.027777777777778,1.0,0,0.25,0.298245614035088,0,1.0,0.298245614035088,ReadingArea_rsl0-rcl2-esl100-rsm0-rcm25-esm29-rsr0-rcr100-esr29,exr/ReadingArea_rsl0-rcl2-esl100-rsm0-rcm25-esm29-rsr0-rcr100-esr29.exr,ReadingArea_rsl0-rcl2-esl100-rsm0-rcm25-esm29-rsr0-rcr100-esr29.npz,,,,,0,82,82,504,,left,green,2.83,1180.8672189712524,1181.3969688415527,,2,,4,5,lightness,readingArea,realistic,75,2023-03-24_09h50.44.260,tripletExp_regina_11082022,2022.2.4,120.20542920029348,
13,7,6,0,0.111111111111111,3.10526315789474,0,0.111111111111111,1.0,0,0.027777777777778,1.0,ReadingArea_rsl0-rcl11-esl310-rsm0-rcm11-esm100-rsr0-rcr2-esr100,exr/ReadingArea_rsl0-rcl11-esl310-rsm0-rcm11-esm100-rsr0-rcr2-esr100.exr,ReadingArea_rsl0-rcl11-esl310-rsm0-rcm11-esm100-rsr0-rcr2-esr100.npz,,,,,0,83,83,283,,,green,2.83,1186.657464981079,1187.129222869873,,2,1186.1971680879592,4,5,lightness,readingArea,realistic,75,2023-03-24_09h50.44.260,tripletExp_regina_11082022,2022.2.4,120.20542920029348,
13,0,14,0,0.111111111111111,3.10526315789474,0,0.027777777777778,0.298245614035088,0,0.25,3.10526315789474,ReadingArea_rsl0-rcl11-esl310-rsm0-rcm2-esm29-rsr0-rcr25-esr310,exr/ReadingArea_rsl0-rcl11-esl310-rsm0-rcm2-esm29-rsr0-rcr25-esr310.exr,ReadingArea_rsl0-rcl11-esl310-rsm0-rcm2-esm29-rsr0-rcr25-esr310.npz,,,,,0,84,84,278,,left,green,2.01,1190.6144058704376,,,2,,4,5,lightness,readingArea,realistic,75,2023-03-24_09h50.44.260,tripletExp_regina_11082022,2022.2.4,120.20542920029348,
11,0,12,0,1.0,1.0,0,0.027777777777778,0.298245614035088,0,0.027777777777778,3.10526315789474,ReadingArea_rsl0-rcl100-esl100-rsm0-rcm2-esm29-rsr0-rcr2-esr310,exr/ReadingArea_rsl0-rcl100-esl100-rsm0-rcm2-esm29-rsr0-rcr2-esr310.exr,ReadingArea_rsl0-rcl100-esl100-rsm0-rcm2-esm29-rsr0-rcr2-esr310.npz,,,,,0,85,85,166,,right,red,1.28,1192.8866469860077,1193.3587839603424,,2,,4,5,lightness,readingArea,realistic,75,2023-03-24_09h50.44.260,tripletExp_regina_11082022,2022.2.4,120.20542920029348,
2,6,0,0,0.25,0.298245614035088,0,0.027777777777778,1.0,0,0.027777777777778,0.298245614035088,ReadingArea_rsl0-rcl25-esl29-rsm0-rcm2-esm100-rsr0-rcr2-esr29,exr/ReadingArea_rsl0-rcl25-esl29-rsm0-rcm2-esm100-rsr0-rcr2-esr29.exr,ReadingArea_rsl0-rcl25-esl29-rsm0-rcm2-esm100-rsr0-rcr2-esr29.npz,,,,,0,86,86,525,,right,red,2.22,1196.832888841629,1197.2821378707886,,2,,4,5,lightness,readingArea,realistic,75,2023-03-24_09h50.44.260,tripletExp_regina_11082022,2022.2.4,120.20542920029348,
2,4,10,0,0.25,0.298245614035088,0,0.694444444444444,0.298245614035088,0,0.694444444444444,1.0,ReadingArea_rsl0-rcl25-esl29-rsm0-rcm69-esm29-rsr0-rcr69-esr100,exr/ReadingArea_rsl0-rcl25-esl29-rsm0-rcm69-esm29-rsr0-rcr69-esr100.exr,ReadingArea_rsl0-rcl25-esl29-rsm0-rcm69-esm29-rsr0-rcr69-esr100.npz,,,,,0,87,87,174,,left,green,2.99,1200.766173839569,,,2,,4,5,lightness,readingArea,realistic,75,2023-03-24_09h50.44.260,tripletExp_regina_11082022,2022.2.4,120.20542920029348,
8,6,0,0,0.25,1.0,0,0.027777777777778,1.0,0,0.027777777777778,0.298245614035088,ReadingArea_rsl0-rcl25-esl100-rsm0-rcm2-esm100-rsr0-rcr2-esr29,exr/ReadingArea_rsl0-rcl25-esl100-rsm0-rcm2-esm100-rsr0-rcr2-esr29.exr,ReadingArea_rsl0-rcl25-esl100-rsm0-rcm2-esm100-rsr0-rcr2-esr29.npz,,,,,0,88,88,187,,right,red,3.08,1204.6357769966123,1205.11913895607,,2,,4,5,lightness,readingArea,realistic,75,2023-03-24_09h50.44.260,tripletExp_regina_11082022,2022.2.4,120.20542920029348,
4,7,5,0,0.694444444444444,0.298245614035088,0,0.111111111111111,1.0,0,1.0,0.298245614035088,ReadingArea_rsl0-rcl69-esl29-rsm0-rcm11-esm100-rsr0-rcr100-esr29,exr/ReadingArea_rsl0-rcl69-esl29-rsm0-rcm11-esm100-rsr0-rcr100-esr29.exr,ReadingArea_rsl0-rcl69-esl29-rsm0-rcm11-esm100-rsr0-rcr100-esr29.npz,,,,,0,89,89,195,,left,green,2.68,1208.6070330142977,1209.11075091362,,2,,4,5,lightness,readingArea,realistic,75,2023-03-24_09h50.44.260,tripletExp_regina_11082022,2022.2.4,120.20542920029348,
6,1,9,0,0.027777777777778,1.0,0,0.111111111111111,0.298245614035088,0,0.444444444444444,1.0,ReadingArea_rsl0-rcl2-esl100-rsm0-rcm11-esm29-rsr0-rcr44-esr100,exr/ReadingArea_rsl0-rcl2-esl100-rsm0-rcm11-esm29-rsr0-rcr44-esr100.exr,ReadingArea_rsl0-rcl2-esl100-rsm0-rcm11-esm29-rsr0-rcr44-esr100.npz,,,,,0,90,90,74,,left,green,2.23,1212.5695719718933,1213.087193965912,,2,,4,5,lightness,readingArea,realistic,75,2023-03-24_09h50.44.260,tripletExp_regina_11082022,2022.2.4,120.20542920029348,
5,3,4,0,1.0,0.298245614035088,0,0.444444444444444,0.298245614035088,0,0.694444444444444,0.298245614035088,ReadingArea_rsl0-rcl100-esl29-rsm0-rcm44-esm29-rsr0-rcr69-esr29,exr/ReadingArea_rsl0-rcl100-esl29-rsm0-rcm44-esm29-rsr0-rcr69-esr29.exr,ReadingArea_rsl0-rcl100-esl29-rsm0-rcm44-esm29-rsr0-rcr69-esr29.npz,,,,,0,91,91,201,,right,red,2.19,1216.549399852753,1217.0579009056091,,2,,4,5,lightness,readingArea,realistic,75,2023-03-24_09h50.44.260,tripletExp_regina_11082022,2022.2.4,120.20542920029348,
0,8,3,0,0.027777777777778,0.298245614035088,0,0.25,1.0,0,0.444444444444444,0.298245614035088,ReadingArea_rsl0-rcl2-esl29-rsm0-rcm25-esm100-rsr0-rcr44-esr29,exr/ReadingArea_rsl0-rcl2-esl29-rsm0-rcm25-esm100-rsr0-rcr44-esr29.exr,ReadingArea_rsl0-rcl2-esl29-rsm0-rcm25-esm100-rsr0-rcr44-esr29.npz,,,,,0,92,92,301,,right,red,3.06,1220.5384240150452,1221.0418329238892,,2,,4,5,lightness,readingArea,realistic,75,2023-03-24_09h50.44.260,tripletExp_regina_11082022,2022.2.4,120.20542920029348,
13,7,11,0,0.111111111111111,3.10526315789474,0,0.111111111111111,1.0,0,1.0,1.0,ReadingArea_rsl0-rcl11-esl310-rsm0-rcm11-esm100-rsr0-rcr100-esr100,exr/ReadingArea_rsl0-rcl11-esl310-rsm0-rcm11-esm100-rsr0-rcr100-esr100.exr,ReadingArea_rsl0-rcl11-esl310-rsm0-rcm11-esm100-rsr0-rcr100-esr100.npz,,,,,0,93,93,121,,left,green,2.04,1224.5275099277496,1224.9896688461304,,2,,4,5,lightness,readingArea,realistic,75,2023-03-24_09h50.44.260,tripletExp_regina_11082022,2022.2.4,120.20542920029348,
3,1,6,0,0.444444444444444,0.298245614035088,0,0.111111111111111,0.298245614035088,0,0.027777777777778,1.0,ReadingArea_rsl0-rcl44-esl29-rsm0-rcm11-esm29-rsr0-rcr2-esr100,exr/ReadingArea_rsl0-rcl44-esl29-rsm0-rcm11-esm29-rsr0-rcr2-esr100.exr,ReadingArea_rsl0-rcl44-esl29-rsm0-rcm11-esm29-rsr0-rcr2-esr100.npz,,,,,0,94,94,464,,right,red,1.51,1226.6825199127195,1227.1760928630829,,2,,4,5,lightness,readingArea,realistic,75,2023-03-24_09h50.44.260,tripletExp_regina_11082022,2022.2.4,120.20542920029348,
14,5,10,0,0.25,3.10526315789474,0,1.0,0.298245614035088,0,0.694444444444444,1.0,ReadingArea_rsl0-rcl25-esl310-rsm0-rcm100-esm29-rsr0-rcr69-esr100,exr/ReadingArea_rsl0-rcl25-esl310-rsm0-rcm100-esm29-rsr0-rcr69-esr100.exr,ReadingArea_rsl0-rcl25-esl310-rsm0-rcm100-esm29-rsr0-rcr69-esr100.npz,,,,,0,95,95,170,,left,green,3.96,1232.394623041153,1232.95863199234,,2,,4,5,lightness,readingArea,realistic,75,2023-03-24_09h50.44.260,tripletExp_regina_11082022,2022.2.4,120.20542920029348,
10,1,0,0,0.694444444444444,1.0,0,0.111111111111111,0.298245614035088,0,0.027777777777778,0.298245614035088,ReadingArea_rsl0-rcl69-esl100-rsm0-rcm11-esm29-rsr0-rcr2-esr29,exr/ReadingArea_rsl0-rcl69-esl100-rsm0-rcm11-esm29-rsr0-rcr2-esr29.exr,ReadingArea_rsl0-rcl69-esl100-rsm0-rcm11-esm29-rsr0-rcr2-esr29.npz,,,,,0,96,96,276,,right,red,1.22,1234.6546258926392,,,2,,4,5,lightness,readingArea,realistic,75,2023-03-24_09h50.44.260,tripletExp_regina_11082022,2022.2.4,120.20542920029348,
10,1,6,0,0.694444444444444,1.0,0,0.111111111111111,0.298245614035088,0,0.027777777777778,1.0,ReadingArea_rsl0-rcl69-esl100-rsm0-rcm11-esm29-rsr0-rcr2-esr100,exr/ReadingArea_rsl0-rcl69-esl100-rsm0-rcm11-esm29-rsr0-rcr2-esr100.exr,ReadingArea_rsl0-rcl69-esl100-rsm0-rcm11-esm29-rsr0-rcr2-esr100.npz,,,,,0,97,97,160,,right,red,2.61,1238.5907969474792,1239.1039259433746,,2,,4,5,lightness,readingArea,realistic,75,2023-03-24_09h50.44.260,tripletExp_regina_11082022,2022.2.4,120.20542920029348,
3,6,11,0,0.444444444444444,0.298245614035088,0,0.027777777777778,1.0,0,1.0,1.0,ReadingArea_rsl0-rcl44-esl29-rsm0-rcm2-esm100-rsr0-rcr100-esr100,exr/ReadingArea_rsl0-rcl44-esl29-rsm0-rcm2-esm100-rsr0-rcr100-esr100.exr,ReadingArea_rsl0-rcl44-esl29-rsm0-rcm2-esm100-rsr0-rcr100-esr100.npz,,,,,0,98,98,155,,left,green,2.06,1242.5998198986051,1243.1931369304657,,2,,4,5,lightness,readingArea,realistic,75,2023-03-24_09h50.44.260,tripletExp_regina_11082022,2022.2.4,120.20542920029348,
12,8,9,0,0.027777777777778,3.10526315789474,0,0.25,1.0,0,0.444444444444444,1.0,ReadingArea_rsl0-rcl2-esl310-rsm0-rcm25-esm100-rsr0-rcr44-esr100,exr/ReadingArea_rsl0-rcl2-esl310-rsm0-rcm25-esm100-rsr0-rcr44-esr100.exr,ReadingArea_rsl0-rcl2-esl310-rsm0-rcm25-esm100-rsr0-rcr44-esr100.npz,,,,,0,99,99,517,,right,red,3.54,1246.652161836624,1247.118392944336,,2,,4,5,lightness,readingArea,realistic,75,2023-03-24_09h50.44.260,tripletExp_regina_11082022,2022.2.4,120.20542920029348,
8,1,10,0,0.25,1.0,0,0.111111111111111,0.298245614035088,0,0.694444444444444,1.0,ReadingArea_rsl0-rcl25-esl100-rsm0-rcm11-esm29-rsr0-rcr69-esr100,exr/ReadingArea_rsl0-rcl25-esl100-rsm0-rcm11-esm29-rsr0-rcr69-esr100.exr,ReadingArea_rsl0-rcl25-esl100-rsm0-rcm11-esm29-rsr0-rcr69-esr100.npz,,,,,0,100,100,442,,left,green,2.53,1250.5852508544922,1251.0880570411682,,2,,4,5,lightness,readingArea,realistic,75,2023-03-24_09h50.44.260,tripletExp_regina_11082022,2022.2.4,120.20542920029348,
6,4,10,0,0.027777777777778,1.0,0,0.694444444444444,0.298245614035088,0,0.694444444444444,1.0,ReadingArea_rsl0-rcl2-esl100-rsm0-rcm69-esm29-rsr0-rcr69-esr100,exr/ReadingArea_rsl0-rcl2-esl100-rsm0-rcm69-esm29-rsr0-rcr69-esr100.exr,ReadingArea_rsl0-rcl2-esl100-rsm0-rcm69-esm29-rsr0-rcr69-esr100.npz,,,,,0,101,101,554,,left,green,2.59,1254.5386419296265,1255.1128129959106,,2,,4,5,lightness,readingArea,realistic,75,2023-03-24_09h50.44.260,tripletExp_regina_11082022,2022.2.4,120.20542920029348,
6,5,13,0,0.027777777777778,1.0,0,1.0,0.298245614035088,0,0.111111111111111,3.10526315789474,ReadingArea_rsl0-rcl2-esl100-rsm0-rcm100-esm29-rsr0-rcr11-esr310,exr/ReadingArea_rsl0-rcl2-esl100-rsm0-rcm100-esm29-rsr0-rcr11-esr310.exr,ReadingArea_rsl0-rcl2-esl100-rsm0-rcm100-esm29-rsr0-rcr11-esr310.npz,,,,,0,102,102,450,,right,red,2.92,1258.5839309692385,,,2,,4,5,lightness,readingArea,realistic,75,2023-03-24_09h50.44.260,tripletExp_regina_11082022,2022.2.4,120.20542920029348,
0,8,12,0,0.027777777777778,0.298245614035088,0,0.25,1.0,0,0.027777777777778,3.10526315789474,ReadingArea_rsl0-rcl2-esl29-rsm0-rcm25-esm100-rsr0-rcr2-esr310,exr/ReadingArea_rsl0-rcl2-esl29-rsm0-rcm25-esm100-rsr0-rcr2-esr310.exr,ReadingArea_rsl0-rcl2-esl29-rsm0-rcm25-esm100-rsr0-rcr2-esr310.npz,,,,,0,103,103,314,,right,red,2.24,1262.5559389591217,1263.0536499023438,,2,,4,5,lightness,readingArea,realistic,75,2023-03-24_09h50.44.260,tripletExp_regina_11082022,2022.2.4,120.20542920029348,
14,3,2,0,0.25,3.10526315789474,0,0.444444444444444,0.298245614035088,0,0.25,0.298245614035088,ReadingArea_rsl0-rcl25-esl310-rsm0-rcm44-esm29-rsr0-rcr25-esr29,exr/ReadingArea_rsl0-rcl25-esl310-rsm0-rcm44-esm29-rsr0-rcr25-esr29.exr,ReadingArea_rsl0-rcl25-esl310-rsm0-rcm44-esm29-rsr0-rcr25-esr29.npz,,,,,0,104,104,52,,right,red,3.56,1266.54234790802,1267.0326898097992,,2,,4,5,lightness,readingArea,realistic,75,2023-03-24_09h50.44.260,tripletExp_regina_11082022,2022.2.4,120.20542920029348,
0,10,12,0,0.027777777777778,0.298245614035088,0,0.694444444444444,1.0,0,0.027777777777778,3.10526315789474,ReadingArea_rsl0-rcl2-esl29-rsm0-rcm69-esm100-rsr0-rcr2-esr310,exr/ReadingArea_rsl0-rcl2-esl29-rsm0-rcm69-esm100-rsr0-rcr2-esr310.exr,ReadingArea_rsl0-rcl2-esl29-rsm0-rcm69-esm100-rsr0-rcr2-esr310.npz,,,,,0,105,105,531,,right,red,3.14,1270.4871208667755,1270.9888060092926,,2,,4,5,lightness,readingArea,realistic,75,2023-03-24_09h50.44.260,tripletExp_regina_11082022,2022.2.4,120.20542920029348,
4,1,3,0,0.694444444444444,0.298245614035088,0,0.111111111111111,0.298245614035088,0,0.444444444444444,0.298245614035088,ReadingArea_rsl0-rcl69-esl29-rsm0-rcm11-esm29-rsr0-rcr44-esr29,exr/ReadingArea_rsl0-rcl69-esl29-rsm0-rcm11-esm29-rsr0-rcr44-esr29.exr,ReadingArea_rsl0-rcl69-esl29-rsm0-rcm11-esm29-rsr0-rcr44-esr29.npz,,,,,0,106,106,70,,right,red,2.27,1274.4268369674685,1274.9760448932648,,2,,4,5,lightness,readingArea,realistic,75,2023-03-24_09h50.44.260,tripletExp_regina_11082022,2022.2.4,120.20542920029348,
11,5,2,0,1.0,1.0,0,1.0,0.298245614035088,0,0.25,0.298245614035088,ReadingArea_rsl0-rcl100-esl100-rsm0-rcm100-esm29-rsr0-rcr25-esr29,exr/ReadingArea_rsl0-rcl100-esl100-rsm0-rcm100-esm29-rsr0-rcr25-esr29.exr,ReadingArea_rsl0-rcl100-esl100-rsm0-rcm100-esm29-rsr0-rcr25-esr29.npz,,,,,0,107,107,596,,right,red,3.04,1278.4259798526764,1278.907560825348,,2,,4,5,lightness,readingArea,realistic,75,2023-03-24_09h50.44.260,tripletExp_regina_11082022,2022.2.4,120.20542920029348,
12,6,7,0,0.027777777777778,3.10526315789474,0,0.027777777777778,1.0,0,0.111111111111111,1.0,ReadingArea_rsl0-rcl2-esl310-rsm0-rcm2-esm100-rsr0-rcr11-esr100,exr/ReadingArea_rsl0-rcl2-esl310-rsm0-rcm2-esm100-rsr0-rcr11-esr100.exr,ReadingArea_rsl0-rcl2-esl310-rsm0-rcm2-esm100-rsr0-rcr11-esr100.npz,,,,,0,108,108,308,,left,green,2.48,1282.392434835434,1282.8650460243225,,2,,4,5,lightness,readingArea,realistic,75,2023-03-24_09h50.44.260,tripletExp_regina_11082022,2022.2.4,120.20542920029348,
13,9,6,0,0.111111111111111,3.10526315789474,0,0.444444444444444,1.0,0,0.027777777777778,1.0,ReadingArea_rsl0-rcl11-esl310-rsm0-rcm44-esm100-rsr0-rcr2-esr100,exr/ReadingArea_rsl0-rcl11-esl310-rsm0-rcm44-esm100-rsr0-rcr2-esr100.exr,ReadingArea_rsl0-rcl11-esl310-rsm0-rcm44-esm100-rsr0-rcr2-esr100.npz,,,,,0,109,109,19,,left,green,2.34,1286.3568580150604,1286.8332259655,,2,,4,5,lightness,readingArea,realistic,75,2023-03-24_09h50.44.260,tripletExp_regina_11082022,2022.2.4,120.20542920029348,
5,11,14,0,1.0,0.298245614035088,0,1.0,1.0,0,0.25,3.10526315789474,ReadingArea_rsl0-rcl100-esl29-rsm0-rcm100-esm100-rsr0-rcr25-esr310,exr/ReadingArea_rsl0-rcl100-esl29-rsm0-rcm100-esm100-rsr0-rcr25-esr310.exr,ReadingArea_rsl0-rcl100-esl29-rsm0-rcm100-esm100-rsr0-rcr25-esr310.npz,,,,,0,110,110,258,,right,red,1.38,1288.5498509407043,1289.066470861435,,2,,4,5,lightness,readingArea,realistic,75,2023-03-24_09h50.44.260,tripletExp_regina_11082022,2022.2.4,120.20542920029348,
8,3,9,0,0.25,1.0,0,0.444444444444444,0.298245614035088,0,0.444444444444444,1.0,ReadingArea_rsl0-rcl25-esl100-rsm0-rcm44-esm29-rsr0-rcr44-esr100,exr/ReadingArea_rsl0-rcl25-esl100-rsm0-rcm44-esm29-rsr0-rcr44-esr100.exr,ReadingArea_rsl0-rcl25-esl100-rsm0-rcm44-esm29-rsr0-rcr44-esr100.npz,,,,,0,111,111,15,,left,green,2.87,1292.567692041397,1293.029317855835,,2,,4,5,lightness,readingArea,realistic,75,2023-03-24_09h50.44.260,tripletExp_regina_11082022,2022.2.4,120.20542920029348,
12,8,6,0,0.027777777777778,3.10526315789474,0,0.25,1.0,0,0.027777777777778,1.0,ReadingArea_rsl0-rcl2-esl310-rsm0-rcm25-esm100-rsr0-rcr2-esr100,exr/ReadingArea_rsl0-rcl2-esl310-rsm0-rcm25-esm100-rsr0-rcr2-esr100.exr,ReadingArea_rsl0-rcl2-esl310-rsm0-rcm25-esm100-rsr0-rcr2-esr100.npz,,,,,0,112,112,281,,left,green,2.38,1296.509405851364,1296.9905359745026,,2,,4,5,lightness,readingArea,realistic,75,2023-03-24_09h50.44.260,tripletExp_regina_11082022,2022.2.4,120.20542920029348,
2,9,8,0,0.25,0.298245614035088,0,0.444444444444444,1.0,0,0.25,1.0,ReadingArea_rsl0-rcl25-esl29-rsm0-rcm44-esm100-rsr0-rcr25-esr100,exr/ReadingArea_rsl0-rcl25-esl29-rsm0-rcm44-esm100-rsr0-rcr25-esr100.exr,ReadingArea_rsl0-rcl25-esl29-rsm0-rcm44-esm100-rsr0-rcr25-esr100.npz,,,,,0,113,113,407,,right,red,2.16,1300.4532148838043,1300.9579088687897,,2,,4,5,lightness,readingArea,realistic,75,2023-03-24_09h50.44.260,tripletExp_regina_11082022,2022.2.4,120.20542920029348,
7,5,11,0,0.111111111111111,1.0,0,1.0,0.298245614035088,0,1.0,1.0,ReadingArea_rsl0-rcl11-esl100-rsm0-rcm100-esm29-rsr0-rcr100-esr100,exr/ReadingArea_rsl0-rcl11-esl100-rsm0-rcm100-esm29-rsr0-rcr100-esr100.exr,ReadingArea_rsl0-rcl11-esl100-rsm0-rcm100-esm29-rsr0-rcr100-esr100.npz,,,,,0,114,114,10,,left,green,3.96,1306.2419760227203,1306.7305719852448,,2,,4,5,lightness,readingArea,realistic,75,2023-03-24_09h50.44.260,tripletExp_regina_11082022,2022.2.4,120.20542920029348,
13,6,4,0,0.111111111111111,3.10526315789474,0,0.027777777777778,1.0,0,0.694444444444444,0.298245614035088,ReadingArea_rsl0-rcl11-esl310-rsm0-rcm2-esm100-rsr0-rcr69-esr29,exr/ReadingArea_rsl0-rcl11-esl310-rsm0-rcm2-esm100-rsr0-rcr69-esr29.exr,ReadingArea_rsl0-rcl11-esl310-rsm0-rcm2-esm100-rsr0-rcr69-esr29.npz,,,,,0,115,115,328,,right,red,4.05,1311.9431688785553,1312.404610872269,,2,,4,5,lightness,readingArea,realistic,75,2023-03-24_09h50.44.260,tripletExp_regina_11082022,2022.2.4,120.20542920029348,
5,10,2,0,1.0,0.298245614035088,0,0.694444444444444,1.0,0,0.25,0.298245614035088,ReadingArea_rsl0-rcl100-esl29-rsm0-rcm69-esm100-rsr0-rcr25-esr29,exr/ReadingArea_rsl0-rcl100-esl29-rsm0-rcm69-esm100-rsr0-rcr25-esr29.exr,ReadingArea_rsl0-rcl100-esl29-rsm0-rcm69-esm100-rsr0-rcr25-esr29.npz,,,,,0,116,116,489,,left,green,2.9,1315.894248008728,1316.3683638572693,,2,,4,5,lightness,readingArea,realistic,75,2023-03-24_09h50.44.260,tripletExp_regina_11082022,2022.2.4,120.20542920029348,
13,3,14,0,0.111111111111111,3.10526315789474,0,0.444444444444444,0.298245614035088,0,0.25,3.10526315789474,ReadingArea_rsl0-rcl11-esl310-rsm0-rcm44-esm29-rsr0-rcr25-esr310,exr/ReadingArea_rsl0-rcl11-esl310-rsm0-rcm44-esm29-rsr0-rcr25-esr310.exr,ReadingArea_rsl0-rcl11-esl310-rsm0-rcm44-esm29-rsr0-rcr25-esr310.npz,,,,,0,117,117,38,,left,green,2.29,1319.8535749912262,1320.3669998645782,,2,,4,5,lightness,readingArea,realistic,75,2023-03-24_09h50.44.260,tripletExp_regina_11082022,2022.2.4,120.20542920029348,
6,5,11,0,0.027777777777778,1.0,0,1.0,0.298245614035088,0,1.0,1.0,ReadingArea_rsl0-rcl2-esl100-rsm0-rcm100-esm29-rsr0-rcr100-esr100,exr/ReadingArea_rsl0-rcl2-esl100-rsm0-rcm100-esm29-rsr0-rcr100-esr100.exr,ReadingArea_rsl0-rcl2-esl100-rsm0-rcm100-esm29-rsr0-rcr100-esr100.npz,,,,,0,118,118,289,,right,red,2.57,1323.830305814743,1324.423936843872,,2,,4,5,lightness,readingArea,realistic,75,2023-03-24_09h50.44.260,tripletExp_regina_11082022,2022.2.4,120.20542920029348,
7,12,1,0,0.111111111111111,1.0,0,0.027777777777778,3.10526315789474,0,0.111111111111111,0.298245614035088,ReadingArea_rsl0-rcl11-esl100-rsm0-rcm2-esm310-rsr0-rcr11-esr29,exr/ReadingArea_rsl0-rcl11-esl100-rsm0-rcm2-esm310-rsr0-rcr11-esr29.exr,ReadingArea_rsl0-rcl11-esl100-rsm0-rcm2-esm310-rsr0-rcr11-esr29.npz,,,,,0,119,119,20,,left,green,2.36,1327.8705048561096,1328.3492548465729,,2,,4,5,lightness,readingArea,realistic,75,2023-03-24_09h50.44.260,tripletExp_regina_11082022,2022.2.4,120.20542920029348,
4,5,9,0,0.694444444444444,0.298245614035088,0,1.0,0.298245614035088,0,0.444444444444444,1.0,ReadingArea_rsl0-rcl69-esl29-rsm0-rcm100-esm29-rsr0-rcr44-esr100,exr/ReadingArea_rsl0-rcl69-esl29-rsm0-rcm100-esm29-rsr0-rcr44-esr100.exr,ReadingArea_rsl0-rcl69-esl29-rsm0-rcm100-esm29-rsr0-rcr44-esr100.npz,,,,,0,120,120,211,,left,green,2.22,1331.824705839157,1332.2881100177765,,2,,4,5,lightness,readingArea,realistic,75,2023-03-24_09h50.44.260,tripletExp_regina_11082022,2022.2.4,120.20542920029348,
9,3,14,0,0.444444444444444,1.0,0,0.444444444444444,0.298245614035088,0,0.25,3.10526315789474,ReadingArea_rsl0-rcl44-esl100-rsm0-rcm44-esm29-rsr0-rcr25-esr310,exr/ReadingArea_rsl0-rcl44-esl100-rsm0-rcm44-esm29-rsr0-rcr25-esr310.exr,ReadingArea_rsl0-rcl44-esl100-rsm0-rcm44-esm29-rsr0-rcr25-esr310.npz,,,,,0,121,121,17,,left,green,1.95,1335.7571120262146,1336.232988834381,,2,,4,5,lightness,readingArea,realistic,75,2023-03-24_09h50.44.260,tripletExp_regina_11082022,2022.2.4,120.20542920029348,
13,3,5,0,0.111111111111111,3.10526315789474,0,0.444444444444444,0.298245614035088,0,1.0,0.298245614035088,ReadingArea_rsl0-rcl11-esl310-rsm0-rcm44-esm29-rsr0-rcr100-esr29,exr/ReadingArea_rsl0-rcl11-esl310-rsm0-rcm44-esm29-rsr0-rcr100-esr29.exr,ReadingArea_rsl0-rcl11-esl310-rsm0-rcm44-esm29-rsr0-rcr100-esr29.npz,,,,,0,122,122,398,,left,green,2.28,1339.69131398201,1340.1743338108065,,2,,4,5,lightness,readingArea,realistic,75,2023-03-24_09h50.44.260,tripletExp_regina_11082022,2022.2.4,120.20542920029348,
12,7,2,0,0.027777777777778,3.10526315789474,0,0.111111111111111,1.0,0,0.25,0.298245614035088,ReadingArea_rsl0-rcl2-esl310-rsm0-rcm11-esm100-rsr0-rcr25-esr29,exr/ReadingArea_rsl0-rcl2-esl310-rsm0-rcm11-esm100-rsr0-rcr25-esr29.exr,ReadingArea_rsl0-rcl2-esl310-rsm0-rcm11-esm100-rsr0-rcr25-esr29.npz,,,,,0,123,123,248,,left,green,4.6,1345.429736852646,1345.8974089622498,,2,,4,5,lightness,readingArea,realistic,75,2023-03-24_09h50.44.260,tripletExp_regina_11082022,2022.2.4,120.20542920029348,
0,5,11,0,0.027777777777778,0.298245614035088,0,1.0,0.298245614035088,0,1.0,1.0,ReadingArea_rsl0-rcl2-esl29-rsm0-rcm100-esm29-rsr0-rcr100-esr100,exr/ReadingArea_rsl0-rcl2-esl29-rsm0-rcm100-esm29-rsr0-rcr100-esr100.exr,ReadingArea_rsl0-rcl2-esl29-rsm0-rcm100-esm29-rsr0-rcr100-esr100.npz,,,,,0,124,124,422,,left,green,3.99,1351.133083820343,1351.5969970226288,,2,,4,5,lightness,readingArea,realistic,75,2023-03-24_09h50.44.260,tripletExp_regina_11082022,2022.2.4,120.20542920029348,
10,3,0,0,0.694444444444444,1.0,0,0.444444444444444,0.298245614035088,0,0.027777777777778,0.298245614035088,ReadingArea_rsl0-rcl69-esl100-rsm0-rcm44-esm29-rsr0-rcr2-esr29,exr/ReadingArea_rsl0-rcl69-esl100-rsm0-rcm44-esm29-rsr0-rcr2-esr29.exr,ReadingArea_rsl0-rcl69-esl100-rsm0-rcm44-esm29-rsr0-rcr2-esr29.npz,,,,,0,125,125,203,,right,red,2.08,1355.0575408935547,1355.53697681427,,2,,4,5,lightness,readingArea,realistic,75,2023-03-24_09h50.44.260,tripletExp_regina_11082022,2022.2.4,120.20542920029348,
10,2,0,0,0.694444444444444,1.0,0,0.25,0.298245614035088,0,0.027777777777778,0.298245614035088,ReadingArea_rsl0-rcl69-esl100-rsm0-rcm25-esm29-rsr0-rcr2-esr29,exr/ReadingArea_rsl0-rcl69-esl100-rsm0-rcm25-esm29-rsr0-rcr2-esr29.exr,ReadingArea_rsl0-rcl69-esl100-rsm0-rcm25-esm29-rsr0-rcr2-esr29.npz,,,,,0,126,126,427,,right,red,2.13,1359.0033450126648,1359.488394021988,,2,,4,5,lightness,readingArea,realistic,75,2023-03-24_09h50.44.260,tripletExp_regina_11082022,2022.2.4,120.20542920029348,
0,10,14,0,0.027777777777778,0.298245614035088,0,0.694444444444444,1.0,0,0.25,3.10526315789474,ReadingArea_rsl0-rcl2-esl29-rsm0-rcm69-esm100-rsr0-rcr25-esr310,exr/ReadingArea_rsl0-rcl2-esl29-rsm0-rcm69-esm100-rsr0-rcr25-esr310.exr,ReadingArea_rsl0-rcl2-esl29-rsm0-rcm69-esm100-rsr0-rcr25-esr310.npz,,,,,0,127,127,31,,right,red,2.89,1362.9797010421753,1363.437302827835,,2,,4,5,lightness,readingArea,realistic,75,2023-03-24_09h50.44.260,tripletExp_regina_11082022,2022.2.4,120.20542920029348,
2,8,7,0,0.25,0.298245614035088,0,0.25,1.0,0,0.111111111111111,1.0,ReadingArea_rsl0-rcl25-esl29-rsm0-rcm25-esm100-rsr0-rcr11-esr100,exr/ReadingArea_rsl0-rcl25-esl29-rsm0-rcm25-esm100-rsr0-rcr11-esr100.exr,ReadingArea_rsl0-rcl25-esl29-rsm0-rcm25-esm100-rsr0-rcr11-esr100.npz,,,,,0,128,128,393,,right,red,4.03,1368.6958539485931,1369.2985169887545,,2,,4,5,lightness,readingArea,realistic,75,2023-03-24_09h50.44.260,tripletExp_regina_11082022,2022.2.4,120.20542920029348,
1,5,14,0,0.111111111111111,0.298245614035088,0,1.0,0.298245614035088,0,0.25,3.10526315789474,ReadingArea_rsl0-rcl11-esl29-rsm0-rcm100-esm29-rsr0-rcr25-esr310,exr/ReadingArea_rsl0-rcl11-esl29-rsm0-rcm100-esm29-rsr0-rcr25-esr310.exr,ReadingArea_rsl0-rcl11-esl29-rsm0-rcm100-esm29-rsr0-rcr25-esr310.npz,,,,,0,129,129,191,,right,red,1.19,1371.0070760250092,1371.4851818084717,,2,,4,5,lightness,readingArea,realistic,75,2023-03-24_09h50.44.260,tripletExp_regina_11082022,2022.2.4,120.20542920029348,
2,11,7,0,0.25,0.298245614035088,0,1.0,1.0,0,0.111111111111111,1.0,ReadingArea_rsl0-rcl25-esl29-rsm0-rcm100-esm100-rsr0-rcr11-esr100,exr/ReadingArea_rsl0-rcl25-esl29-rsm0-rcm100-esm100-rsr0-rcr11-esr100.exr,ReadingArea_rsl0-rcl25-esl29-rsm0-rcm100-esm100-rsr0-rcr11-esr100.npz,,,,,0,130,130,576,,left,green,4.11,1376.7696058750153,1377.239287853241,,2,,4,5,lightness,readingArea,realistic,75,2023-03-24_09h50.44.260,tripletExp_regina_11082022,2022.2.4,120.20542920029348,
3,12,6,0,0.444444444444444,0.298245614035088,0,0.027777777777778,3.10526315789474,0,0.027777777777778,1.0,ReadingArea_rsl0-rcl44-esl29-rsm0-rcm2-esm310-rsr0-rcr2-esr100,exr/ReadingArea_rsl0-rcl44-esl29-rsm0-rcm2-esm310-rsr0-rcr2-esr100.exr,ReadingArea_rsl0-rcl44-esl29-rsm0-rcm2-esm310-rsr0-rcr2-esr100.npz,,,,,0,131,131,353,,left,green,4.45,1382.4986908435822,1382.9650149345398,,2,,4,5,lightness,readingArea,realistic,75,2023-03-24_09h50.44.260,tripletExp_regina_11082022,2022.2.4,120.20542920029348,
9,13,6,0,0.444444444444444,1.0,0,0.111111111111111,3.10526315789474,0,0.027777777777778,1.0,ReadingArea_rsl0-rcl44-esl100-rsm0-rcm11-esm310-rsr0-rcr2-esr100,exr/ReadingArea_rsl0-rcl44-esl100-rsm0-rcm11-esm310-rsr0-rcr2-esr100.exr,ReadingArea_rsl0-rcl44-esl100-rsm0-rcm11-esm310-rsr0-rcr2-esr100.npz,,,,,0,132,132,13,,left,green,3.24,1386.4535009860992,,,2,,4,5,lightness,readingArea,realistic,75,2023-03-24_09h50.44.260,tripletExp_regina_11082022,2022.2.4,120.20542920029348,
4,2,5,0,0.694444444444444,0.298245614035088,0,0.25,0.298245614035088,0,1.0,0.298245614035088,ReadingArea_rsl0-rcl69-esl29-rsm0-rcm25-esm29-rsr0-rcr100-esr29,exr/ReadingArea_rsl0-rcl69-esl29-rsm0-rcm25-esm29-rsr0-rcr100-esr29.exr,ReadingArea_rsl0-rcl69-esl29-rsm0-rcm25-esm29-rsr0-rcr100-esr29.npz,,,,,0,133,133,101,,left,green,2.64,1390.3860569000244,1390.868516921997,,2,,4,5,lightness,readingArea,realistic,75,2023-03-24_09h50.44.260,tripletExp_regina_11082022,2022.2.4,120.20542920029348,
8,9,2,0,0.25,1.0,0,0.444444444444444,1.0,0,0.25,0.298245614035088,ReadingArea_rsl0-rcl25-esl100-rsm0-rcm44-esm100-rsr0-rcr25-esr29,exr/ReadingArea_rsl0-rcl25-esl100-rsm0-rcm44-esm100-rsr0-rcr25-esr29.exr,ReadingArea_rsl0-rcl25-esl100-rsm0-rcm44-esm100-rsr0-rcr25-esr29.npz,,,,,0,134,134,559,,left,green,2.82,1394.3534350395205,1394.806255817413,,2,,4,5,lightness,readingArea,realistic,75,2023-03-24_09h50.44.260,tripletExp_regina_11082022,2022.2.4,120.20542920029348,
10,11,9,0,0.694444444444444,1.0,0,1.0,1.0,0,0.444444444444444,1.0,ReadingArea_rsl0-rcl69-esl100-rsm0-rcm100-esm100-rsr0-rcr44-esr100,exr/ReadingArea_rsl0-rcl69-esl100-rsm0-rcm100-esm100-rsr0-rcr44-esr100.exr,ReadingArea_rsl0-rcl69-esl100-rsm0-rcm100-esm100-rsr0-rcr44-esr100.npz,,,,,0,135,135,492,,left,green,2.21,1398.2792739868164,1398.7530279159546,,2,,4,5,lightness,readingArea,realistic,75,2023-03-24_09h50.44.260,tripletExp_regina_11082022,2022.2.4,120.20542920029348,
9,13,0,0,0.444444444444444,1.0,0,0.111111111111111,3.10526315789474,0,0.027777777777778,0.298245614035088,ReadingArea_rsl0-rcl44-esl100-rsm0-rcm11-esm310-rsr0-rcr2-esr29,exr/ReadingArea_rsl0-rcl44-esl100-rsm0-rcm11-esm310-rsr0-rcr2-esr29.exr,ReadingArea_rsl0-rcl44-esl100-rsm0-rcm11-esm310-rsr0-rcr2-esr29.npz,,,,,0,136,136,205,,right,red,4.3,1403.960175037384,1404.4403619766235,,2,,4,5,lightness,readingArea,realistic,75,2023-03-24_09h50.44.260,tripletExp_regina_11082022,2022.2.4,120.20542920029348,
1,11,12,0,0.111111111111111,0.298245614035088,0,1.0,1.0,0,0.027777777777778,3.10526315789474,ReadingArea_rsl0-rcl11-esl29-rsm0-rcm100-esm100-rsr0-rcr2-esr310,exr/ReadingArea_rsl0-rcl11-esl29-rsm0-rcm100-esm100-rsr0-rcr2-esr310.exr,ReadingArea_rsl0-rcl11-esl29-rsm0-rcm100-esm100-rsr0-rcr2-esr310.npz,,,,,0,137,137,288,,right,red,3.69,1409.6784608364103,1410.22105383873,,2,,4,5,lightness,readingArea,realistic,75,2023-03-24_09h50.44.260,tripletExp_regina_11082022,2022.2.4,120.20542920029348,
14,5,13,0,0.25,3.10526315789474,0,1.0,0.298245614035088,0,0.111111111111111,3.10526315789474,ReadingArea_rsl0-rcl25-esl310-rsm0-rcm100-esm29-rsr0-rcr11-esr310,exr/ReadingArea_rsl0-rcl25-esl310-rsm0-rcm100-esm29-rsr0-rcr11-esr310.exr,ReadingArea_rsl0-rcl25-esl310-rsm0-rcm100-esm29-rsr0-rcr11-esr310.npz,,,,,0,138,138,524,,right,red,2.62,1413.6942648887634,1414.1745479106903,,2,,4,5,lightness,readingArea,realistic,75,2023-03-24_09h50.44.260,tripletExp_regina_11082022,2022.2.4,120.20542920029348,
6,10,8,0,0.027777777777778,1.0,0,0.694444444444444,1.0,0,0.25,1.0,ReadingArea_rsl0-rcl2-esl100-rsm0-rcm69-esm100-rsr0-rcr25-esr100,exr/ReadingArea_rsl0-rcl2-esl100-rsm0-rcm69-esm100-rsr0-rcr25-esr100.exr,ReadingArea_rsl0-rcl2-esl100-rsm0-rcm69-esm100-rsr0-rcr25-esr100.npz,,,,,0,139,139,167,,right,red,2.08,1417.6722600460052,1418.1359460353851,,2,,4,5,lightness,readingArea,realistic,75,2023-03-24_09h50.44.260,tripletExp_regina_11082022,2022.2.4,120.20542920029348,
9,11,5,0,0.444444444444444,1.0,0,1.0,1.0,0,1.0,0.298245614035088,ReadingArea_rsl0-rcl44-esl100-rsm0-rcm100-esm100-rsr0-rcr100-esr29,exr/ReadingArea_rsl0-rcl44-esl100-rsm0-rcm100-esm100-rsr0-rcr100-esr29.exr,ReadingArea_rsl0-rcl44-esl100-rsm0-rcm100-esm100-rsr0-rcr100-esr29.npz,,,,,0,140,140,142,,right,red,3.01,1421.5980429649353,1422.0750358104706,,2,,4,5,lightness,readingArea,realistic,75,2023-03-24_09h50.44.260,tripletExp_regina_11082022,2022.2.4,120.20542920029348,
4,12,2,0,0.694444444444444,0.298245614035088,0,0.027777777777778,3.10526315789474,0,0.25,0.298245614035088,ReadingArea_rsl0-rcl69-esl29-rsm0-rcm2-esm310-rsr0-rcr25-esr29,exr/ReadingArea_rsl0-rcl69-esl29-rsm0-rcm2-esm310-rsr0-rcr25-esr29.exr,ReadingArea_rsl0-rcl69-esl29-rsm0-rcm2-esm310-rsr0-rcr25-esr29.npz,,,,,0,141,141,543,,right,red,2.18,1425.582948923111,1426.1454288959503,,2,,4,5,lightness,readingArea,realistic,75,2023-03-24_09h50.44.260,tripletExp_regina_11082022,2022.2.4,120.20542920029348,
11,3,12,0,1.0,1.0,0,0.444444444444444,0.298245614035088,0,0.027777777777778,3.10526315789474,ReadingArea_rsl0-rcl100-esl100-rsm0-rcm44-esm29-rsr0-rcr2-esr310,exr/ReadingArea_rsl0-rcl100-esl100-rsm0-rcm44-esm29-rsr0-rcr2-esr310.exr,ReadingArea_rsl0-rcl100-esl100-rsm0-rcm44-esm29-rsr0-rcr2-esr310.npz,,,,,0,142,142,355,,right,red,2.07,1429.6280899047852,1430.1074719429016,,2,,4,5,lightness,readingArea,realistic,75,2023-03-24_09h50.44.260,tripletExp_regina_11082022,2022.2.4,120.20542920029348,
5,12,7,0,1.0,0.298245614035088,0,0.027777777777778,3.10526315789474,0,0.111111111111111,1.0,ReadingArea_rsl0-rcl100-esl29-rsm0-rcm2-esm310-rsr0-rcr11-esr100,exr/ReadingArea_rsl0-rcl100-esl29-rsm0-rcm2-esm310-rsr0-rcr11-esr100.exr,ReadingArea_rsl0-rcl100-esl29-rsm0-rcm2-esm310-rsr0-rcr11-esr100.npz,,,,,0,143,143,447,,right,red,2.31,1433.602499961853,,,2,,4,5,lightness,readingArea,realistic,75,2023-03-24_09h50.44.260,tripletExp_regina_11082022,2022.2.4,120.20542920029348,
4,10,11,0,0.694444444444444,0.298245614035088,0,0.694444444444444,1.0,0,1.0,1.0,ReadingArea_rsl0-rcl69-esl29-rsm0-rcm69-esm100-rsr0-rcr100-esr100,exr/ReadingArea_rsl0-rcl69-esl29-rsm0-rcm69-esm100-rsr0-rcr100-esr100.exr,ReadingArea_rsl0-rcl69-esl29-rsm0-rcm69-esm100-rsr0-rcr100-esr100.npz,,,,,0,144,144,180,,right,red,3.0,1437.511902809143,,,2,,4,5,lightness,readingArea,realistic,75,2023-03-24_09h50.44.260,tripletExp_regina_11082022,2022.2.4,120.20542920029348,
0,9,10,0,0.027777777777778,0.298245614035088,0,0.444444444444444,1.0,0,0.694444444444444,1.0,ReadingArea_rsl0-rcl2-esl29-rsm0-rcm44-esm100-rsr0-rcr69-esr100,exr/ReadingArea_rsl0-rcl2-esl29-rsm0-rcm44-esm100-rsr0-rcr69-esr100.exr,ReadingArea_rsl0-rcl2-esl29-rsm0-rcm44-esm100-rsr0-rcr69-esr100.npz,,,,,0,145,145,434,,left,green,4.49,1443.26070189476,1443.86186504364,,2,,4,5,lightness,readingArea,realistic,75,2023-03-24_09h50.44.260,tripletExp_regina_11082022,2022.2.4,120.20542920029348,
2,4,14,0,0.25,0.298245614035088,0,0.694444444444444,0.298245614035088,0,0.25,3.10526315789474,ReadingArea_rsl0-rcl25-esl29-rsm0-rcm69-esm29-rsr0-rcr25-esr310,exr/ReadingArea_rsl0-rcl25-esl29-rsm0-rcm69-esm29-rsr0-rcr25-esr310.exr,ReadingArea_rsl0-rcl25-esl29-rsm0-rcm69-esm29-rsr0-rcr25-esr310.npz,,,,,0,146,146,356,,left,green,2.51,1447.309161901474,1447.7790868282318,,2,,4,5,lightness,readingArea,realistic,75,2023-03-24_09h50.44.260,tripletExp_regina_11082022,2022.2.4,120.20542920029348,
5,2,14,0,1.0,0.298245614035088,0,0.25,0.298245614035088,0,0.25,3.10526315789474,ReadingArea_rsl0-rcl100-esl29-rsm0-rcm25-esm29-rsr0-rcr25-esr310,exr/ReadingArea_rsl0-rcl100-esl29-rsm0-rcm25-esm29-rsr0-rcr25-esr310.exr,ReadingArea_rsl0-rcl100-esl29-rsm0-rcm25-esm29-rsr0-rcr25-esr310.npz,,,,,0,147,147,462,,left,green,2.58,1451.2821028232574,1451.75843000412,,2,,4,5,lightness,readingArea,realistic,75,2023-03-24_09h50.44.260,tripletExp_regina_11082022,2022.2.4,120.20542920029348,
5,14,3,0,1.0,0.298245614035088,0,0.25,3.10526315789474,0,0.444444444444444,0.298245614035088,ReadingArea_rsl0-rcl100-esl29-rsm0-rcm25-esm310-rsr0-rcr44-esr29,exr/ReadingArea_rsl0-rcl100-esl29-rsm0-rcm25-esm310-rsr0-rcr44-esr29.exr,ReadingArea_rsl0-rcl100-esl29-rsm0-rcm25-esm310-rsr0-rcr44-esr29.npz,,,,,0,148,148,93,,left,green,3.34,1455.2531208992004,1455.7156670093536,,2,,4,5,lightness,readingArea,realistic,75,2023-03-24_09h50.44.260,tripletExp_regina_11082022,2022.2.4,120.20542920029348,
6,0,1,0,0.027777777777778,1.0,0,0.027777777777778,0.298245614035088,0,0.111111111111111,0.298245614035088,ReadingArea_rsl0-rcl2-esl100-rsm0-rcm2-esm29-rsr0-rcr11-esr29,exr/ReadingArea_rsl0-rcl2-esl100-rsm0-rcm2-esm29-rsr0-rcr11-esr29.exr,ReadingArea_rsl0-rcl2-esl100-rsm0-rcm2-esm29-rsr0-rcr11-esr29.npz,,,,,0,149,149,302,,left,green,2.52,1459.178113937378,1459.3805220127106,,2,,4,5,lightness,readingArea,realistic,75,2023-03-24_09h50.44.260,tripletExp_regina_11082022,2022.2.4,120.20542920029348,
5,3,6,0,1.0,0.298245614035088,0,0.444444444444444,0.298245614035088,0,0.027777777777778,1.0,ReadingArea_rsl0-rcl100-esl29-rsm0-rcm44-esm29-rsr0-rcr2-esr100,exr/ReadingArea_rsl0-rcl100-esl29-rsm0-rcm44-esm29-rsr0-rcr2-esr100.exr,ReadingArea_rsl0-rcl100-esl29-rsm0-rcm44-esm29-rsr0-rcr2-esr100.npz,,,,,0,150,150,316,,right,red,2.27,1506.452253818512,1506.9257988929749,,3,,4,5,lightness,readingArea,realistic,75,2023-03-24_09h50.44.260,tripletExp_regina_11082022,2022.2.4,120.20542920029348,
7,8,11,0,0.111111111111111,1.0,0,0.25,1.0,0,1.0,1.0,ReadingArea_rsl0-rcl11-esl100-rsm0-rcm25-esm100-rsr0-rcr100-esr100,exr/ReadingArea_rsl0-rcl11-esl100-rsm0-rcm25-esm100-rsr0-rcr100-esr100.exr,ReadingArea_rsl0-rcl11-esl100-rsm0-rcm25-esm100-rsr0-rcr100-esr100.npz,,,,,0,151,151,363,,left,green,2.22,1510.4010648727417,1510.9076919555664,,3,,4,5,lightness,readingArea,realistic,75,2023-03-24_09h50.44.260,tripletExp_regina_11082022,2022.2.4,120.20542920029348,
7,3,5,0,0.111111111111111,1.0,0,0.444444444444444,0.298245614035088,0,1.0,0.298245614035088,ReadingArea_rsl0-rcl11-esl100-rsm0-rcm44-esm29-rsr0-rcr100-esr29,exr/ReadingArea_rsl0-rcl11-esl100-rsm0-rcm44-esm29-rsr0-rcr100-esr29.exr,ReadingArea_rsl0-rcl11-esl100-rsm0-rcm44-esm29-rsr0-rcr100-esr29.npz,,,,,0,152,152,589,,right,red,3.42,1514.370934009552,1514.8831939697266,,3,,4,5,lightness,readingArea,realistic,75,2023-03-24_09h50.44.260,tripletExp_regina_11082022,2022.2.4,120.20542920029348,
13,2,9,0,0.111111111111111,3.10526315789474,0,0.25,0.298245614035088,0,0.444444444444444,1.0,ReadingArea_rsl0-rcl11-esl310-rsm0-rcm25-esm29-rsr0-rcr44-esr100,exr/ReadingArea_rsl0-rcl11-esl310-rsm0-rcm25-esm29-rsr0-rcr44-esr100.exr,ReadingArea_rsl0-rcl11-esl310-rsm0-rcm25-esm29-rsr0-rcr44-esr100.npz,,,,,0,153,153,457,,left,green,3.98,1520.1429598331451,1520.7573149204254,,3,,4,5,lightness,readingArea,realistic,75,2023-03-24_09h50.44.260,tripletExp_regina_11082022,2022.2.4,120.20542920029348,
3,11,14,0,0.444444444444444,0.298245614035088,0,1.0,1.0,0,0.25,3.10526315789474,ReadingArea_rsl0-rcl44-esl29-rsm0-rcm100-esm100-rsr0-rcr25-esr310,exr/ReadingArea_rsl0-rcl44-esl29-rsm0-rcm100-esm100-rsr0-rcr25-esr310.exr,ReadingArea_rsl0-rcl44-esl29-rsm0-rcm100-esm100-rsr0-rcr25-esr310.npz,,,,,0,154,154,570,,right,red,2.15,1524.2452828884125,1524.703941822052,,3,,4,5,lightness,readingArea,realistic,75,2023-03-24_09h50.44.260,tripletExp_regina_11082022,2022.2.4,120.20542920029348,
11,9,4,0,1.0,1.0,0,0.444444444444444,1.0,0,0.694444444444444,0.298245614035088,ReadingArea_rsl0-rcl100-esl100-rsm0-rcm44-esm100-rsr0-rcr69-esr29,exr/ReadingArea_rsl0-rcl100-esl100-rsm0-rcm44-esm100-rsr0-rcr69-esr29.exr,ReadingArea_rsl0-rcl100-esl100-rsm0-rcm44-esm100-rsr0-rcr69-esr29.npz,,,,,0,155,155,26,,right,red,3.36,1528.1666350364685,1528.6688199043274,,3,,4,5,lightness,readingArea,realistic,75,2023-03-24_09h50.44.260,tripletExp_regina_11082022,2022.2.4,120.20542920029348,
6,1,14,0,0.027777777777778,1.0,0,0.111111111111111,0.298245614035088,0,0.25,3.10526315789474,ReadingArea_rsl0-rcl2-esl100-rsm0-rcm11-esm29-rsr0-rcr25-esr310,exr/ReadingArea_rsl0-rcl2-esl100-rsm0-rcm11-esm29-rsr0-rcr25-esr310.exr,ReadingArea_rsl0-rcl2-esl100-rsm0-rcm11-esm29-rsr0-rcr25-esr310.npz,,,,,0,156,156,381,,left,green,2.26,1532.1305599212646,1532.612567901611,,3,,4,5,lightness,readingArea,realistic,75,2023-03-24_09h50.44.260,tripletExp_regina_11082022,2022.2.4,120.20542920029348,
6,3,1,0,0.027777777777778,1.0,0,0.444444444444444,0.298245614035088,0,0.111111111111111,0.298245614035088,ReadingArea_rsl0-rcl2-esl100-rsm0-rcm44-esm29-rsr0-rcr11-esr29,exr/ReadingArea_rsl0-rcl2-esl100-rsm0-rcm44-esm29-rsr0-rcr11-esr29.exr,ReadingArea_rsl0-rcl2-esl100-rsm0-rcm44-esm29-rsr0-rcr11-esr29.npz,,,,,0,157,157,430,,right,red,4.03,1537.8512859344482,1538.398640871048,,3,,4,5,lightness,readingArea,realistic,75,2023-03-24_09h50.44.260,tripletExp_regina_11082022,2022.2.4,120.20542920029348,
6,1,2,0,0.027777777777778,1.0,0,0.111111111111111,0.298245614035088,0,0.25,0.298245614035088,ReadingArea_rsl0-rcl2-esl100-rsm0-rcm11-esm29-rsr0-rcr25-esr29,exr/ReadingArea_rsl0-rcl2-esl100-rsm0-rcm11-esm29-rsr0-rcr25-esr29.exr,ReadingArea_rsl0-rcl2-esl100-rsm0-rcm11-esm29-rsr0-rcr25-esr29.npz,,,,,0,158,158,68,,right,red,3.09,1541.8740599155426,1542.3827469348907,,3,,4,5,lightness,readingArea,realistic,75,2023-03-24_09h50.44.260,tripletExp_regina_11082022,2022.2.4,120.20542920029348,
7,4,1,0,0.111111111111111,1.0,0,0.694444444444444,0.298245614035088,0,0.111111111111111,0.298245614035088,ReadingArea_rsl0-rcl11-esl100-rsm0-rcm69-esm29-rsr0-rcr11-esr29,exr/ReadingArea_rsl0-rcl11-esl100-rsm0-rcm69-esm29-rsr0-rcr11-esr29.exr,ReadingArea_rsl0-rcl11-esl100-rsm0-rcm69-esm29-rsr0-rcr11-esr29.npz,,,,,0,159,159,369,,left,green,2.96,1545.8817529678345,1546.3601908683777,,3,,4,5,lightness,readingArea,realistic,75,2023-03-24_09h50.44.260,tripletExp_regina_11082022,2022.2.4,120.20542920029348,
10,6,8,0,0.694444444444444,1.0,0,0.027777777777778,1.0,0,0.25,1.0,ReadingArea_rsl0-rcl69-esl100-rsm0-rcm2-esm100-rsr0-rcr25-esr100,exr/ReadingArea_rsl0-rcl69-esl100-rsm0-rcm2-esm100-rsr0-rcr25-esr100.exr,ReadingArea_rsl0-rcl69-esl100-rsm0-rcm2-esm100-rsr0-rcr25-esr100.npz,,,,,0,160,160,145,,right,red,2.61,1549.8500850200653,1550.3559830188751,,3,,4,5,lightness,readingArea,realistic,75,2023-03-24_09h50.44.260,tripletExp_regina_11082022,2022.2.4,120.20542920029348,
13,6,0,0,0.111111111111111,3.10526315789474,0,0.027777777777778,1.0,0,0.027777777777778,0.298245614035088,ReadingArea_rsl0-rcl11-esl310-rsm0-rcm2-esm100-rsr0-rcr2-esr29,exr/ReadingArea_rsl0-rcl11-esl310-rsm0-rcm2-esm100-rsr0-rcr2-esr29.exr,ReadingArea_rsl0-rcl11-esl310-rsm0-rcm2-esm100-rsr0-rcr2-esr29.npz,,,,,0,161,161,309,,right,red,3.83,1555.643033027649,1556.1140468120575,,3,,4,5,lightness,readingArea,realistic,75,2023-03-24_09h50.44.260,tripletExp_regina_11082022,2022.2.4,120.20542920029348,
10,0,8,0,0.694444444444444,1.0,0,0.027777777777778,0.298245614035088,0,0.25,1.0,ReadingArea_rsl0-rcl69-esl100-rsm0-rcm2-esm29-rsr0-rcr25-esr100,exr/ReadingArea_rsl0-rcl69-esl100-rsm0-rcm2-esm29-rsr0-rcr25-esr100.exr,ReadingArea_rsl0-rcl69-esl100-rsm0-rcm2-esm29-rsr0-rcr25-esr100.npz,,,,,0,162,162,552,,right,red,3.88,1561.38853597641,1561.8664598464966,,3,,4,5,lightness,readingArea,realistic,75,2023-03-24_09h50.44.260,tripletExp_regina_11082022,2022.2.4,120.20542920029348,
11,4,0,0,1.0,1.0,0,0.694444444444444,0.298245614035088,0,0.027777777777778,0.298245614035088,ReadingArea_rsl0-rcl100-esl100-rsm0-rcm69-esm29-rsr0-rcr2-esr29,exr/ReadingArea_rsl0-rcl100-esl100-rsm0-rcm69-esm29-rsr0-rcr2-esr29.exr,ReadingArea_rsl0-rcl100-esl100-rsm0-rcm69-esm29-rsr0-rcr2-esr29.npz,,,,,0,163,163,219,,right,red,4.32,1567.1514749526978,1567.7019279003143,,3,,4,5,lightness,readingArea,realistic,75,2023-03-24_09h50.44.260,tripletExp_regina_11082022,2022.2.4,120.20542920029348,
4,9,13,0,0.694444444444444,0.298245614035088,0,0.444444444444444,1.0,0,0.111111111111111,3.10526315789474,ReadingArea_rsl0-rcl69-esl29-rsm0-rcm44-esm100-rsr0-rcr11-esr310,exr/ReadingArea_rsl0-rcl69-esl29-rsm0-rcm44-esm100-rsr0-rcr11-esr310.exr,ReadingArea_rsl0-rcl69-esl29-rsm0-rcm44-esm100-rsr0-rcr11-esr310.npz,,,,,0,164,164,488,,left,green,4.09,1572.9340319633484,1573.4767179489136,,3,,4,5,lightness,readingArea,realistic,75,2023-03-24_09h50.44.260,tripletExp_regina_11082022,2022.2.4,120.20542920029348,
6,2,12,0,0.027777777777778,1.0,0,0.25,0.298245614035088,0,0.027777777777778,3.10526315789474,ReadingArea_rsl0-rcl2-esl100-rsm0-rcm25-esm29-rsr0-rcr2-esr310,exr/ReadingArea_rsl0-rcl2-esl100-rsm0-rcm25-esm29-rsr0-rcr2-esr310.exr,ReadingArea_rsl0-rcl2-esl100-rsm0-rcm25-esm29-rsr0-rcr2-esr310.npz,,,,,0,165,165,480,,right,red,2.21,1576.9411108493805,1577.4199600219729,,3,,4,5,lightness,readingArea,realistic,75,2023-03-24_09h50.44.260,tripletExp_regina_11082022,2022.2.4,120.20542920029348,
4,8,3,0,0.694444444444444,0.298245614035088,0,0.25,1.0,0,0.444444444444444,0.298245614035088,ReadingArea_rsl0-rcl69-esl29-rsm0-rcm25-esm100-rsr0-rcr44-esr29,exr/ReadingArea_rsl0-rcl69-esl29-rsm0-rcm25-esm100-rsr0-rcr44-esr29.exr,ReadingArea_rsl0-rcl69-esl29-rsm0-rcm25-esm100-rsr0-rcr44-esr29.npz,,,,,0,166,166,292,,right,red,2.01,1580.9086890220642,1581.4085948467257,,3,,4,5,lightness,readingArea,realistic,75,2023-03-24_09h50.44.260,tripletExp_regina_11082022,2022.2.4,120.20542920029348,
12,2,9,0,0.027777777777778,3.10526315789474,0,0.25,0.298245614035088,0,0.444444444444444,1.0,ReadingArea_rsl0-rcl2-esl310-rsm0-rcm25-esm29-rsr0-rcr44-esr100,exr/ReadingArea_rsl0-rcl2-esl310-rsm0-rcm25-esm29-rsr0-rcr44-esr100.exr,ReadingArea_rsl0-rcl2-esl310-rsm0-rcm25-esm29-rsr0-rcr44-esr100.npz,,,,,0,167,167,495,,left,green,2.08,1584.9155490398407,1585.3916499614716,,3,,4,5,lightness,readingArea,realistic,75,2023-03-24_09h50.44.260,tripletExp_regina_11082022,2022.2.4,120.20542920029348,
2,6,12,0,0.25,0.298245614035088,0,0.027777777777778,1.0,0,0.027777777777778,3.10526315789474,ReadingArea_rsl0-rcl25-esl29-rsm0-rcm2-esm100-rsr0-rcr2-esr310,exr/ReadingArea_rsl0-rcl25-esl29-rsm0-rcm2-esm100-rsr0-rcr2-esr310.exr,ReadingArea_rsl0-rcl25-esl29-rsm0-rcm2-esm100-rsr0-rcr2-esr310.npz,,,,,0,168,168,97,,right,red,3.77,1590.626667022705,1591.2198159694672,,3,,4,5,lightness,readingArea,realistic,75,2023-03-24_09h50.44.260,tripletExp_regina_11082022,2022.2.4,120.20542920029348,
13,1,3,0,0.111111111111111,3.10526315789474,0,0.111111111111111,0.298245614035088,0,0.444444444444444,0.298245614035088,ReadingArea_rsl0-rcl11-esl310-rsm0-rcm11-esm29-rsr0-rcr44-esr29,exr/ReadingArea_rsl0-rcl11-esl310-rsm0-rcm11-esm29-rsr0-rcr44-esr29.exr,ReadingArea_rsl0-rcl11-esl310-rsm0-rcm11-esm29-rsr0-rcr44-esr29.npz,,,,,0,169,169,588,,,red,3.77,1596.4913940429688,1596.9651808738708,,3,1596.0304770231246,4,5,lightness,readingArea,realistic,75,2023-03-24_09h50.44.260,tripletExp_regina_11082022,2022.2.4,120.20542920029348,
0,4,7,0,0.027777777777778,0.298245614035088,0,0.694444444444444,0.298245614035088,0,0.111111111111111,1.0,ReadingArea_rsl0-rcl2-esl29-rsm0-rcm69-esm29-rsr0-rcr11-esr100,exr/ReadingArea_rsl0-rcl2-esl29-rsm0-rcm69-esm29-rsr0-rcr11-esr100.exr,ReadingArea_rsl0-rcl2-esl29-rsm0-rcm69-esm29-rsr0-rcr11-esr100.npz,,,,,0,170,170,200,,right,red,2.25,1600.4656949043274,1600.933359861374,,3,,4,5,lightness,readingArea,realistic,75,2023-03-24_09h50.44.260,tripletExp_regina_11082022,2022.2.4,120.20542920029348,
1,3,4,0,0.111111111111111,0.298245614035088,0,0.444444444444444,0.298245614035088,0,0.694444444444444,0.298245614035088,ReadingArea_rsl0-rcl11-esl29-rsm0-rcm44-esm29-rsr0-rcr69-esr29,exr/ReadingArea_rsl0-rcl11-esl29-rsm0-rcm44-esm29-rsr0-rcr69-esr29.exr,ReadingArea_rsl0-rcl11-esl29-rsm0-rcm44-esm29-rsr0-rcr69-esr29.npz,,,,,0,171,171,153,,right,red,2.73,1604.3891398906708,1604.8641028404236,,3,,4,5,lightness,readingArea,realistic,75,2023-03-24_09h50.44.260,tripletExp_regina_11082022,2022.2.4,120.20542920029348,
2,0,3,0,0.25,0.298245614035088,0,0.027777777777778,0.298245614035088,0,0.444444444444444,0.298245614035088,ReadingArea_rsl0-rcl25-esl29-rsm0-rcm2-esm29-rsr0-rcr44-esr29,exr/ReadingArea_rsl0-rcl25-esl29-rsm0-rcm2-esm29-rsr0-rcr44-esr29.exr,ReadingArea_rsl0-rcl25-esl29-rsm0-rcm2-esm29-rsr0-rcr44-esr29.npz,,,,,0,172,172,338,,left,green,2.11,1608.3340039253235,1608.8152258396149,,3,,4,5,lightness,readingArea,realistic,75,2023-03-24_09h50.44.260,tripletExp_regina_11082022,2022.2.4,120.20542920029348,
9,12,11,0,0.444444444444444,1.0,0,0.027777777777778,3.10526315789474,0,1.0,1.0,ReadingArea_rsl0-rcl44-esl100-rsm0-rcm2-esm310-rsr0-rcr100-esr100,exr/ReadingArea_rsl0-rcl44-esl100-rsm0-rcm2-esm310-rsr0-rcr100-esr100.exr,ReadingArea_rsl0-rcl44-esl100-rsm0-rcm2-esm310-rsr0-rcr100-esr100.npz,,,,,0,173,173,144,,left,green,1.92,1612.3019528388977,1612.9517660140991,,3,,4,5,lightness,readingArea,realistic,75,2023-03-24_09h50.44.260,tripletExp_regina_11082022,2022.2.4,120.20542920029348,
4,6,3,0,0.694444444444444,0.298245614035088,0,0.027777777777778,1.0,0,0.444444444444444,0.298245614035088,ReadingArea_rsl0-rcl69-esl29-rsm0-rcm2-esm100-rsr0-rcr44-esr29,exr/ReadingArea_rsl0-rcl69-esl29-rsm0-rcm2-esm100-rsr0-rcr44-esr29.exr,ReadingArea_rsl0-rcl69-esl29-rsm0-rcm2-esm100-rsr0-rcr44-esr29.npz,,,,,0,174,174,344,,right,red,2.01,1614.648684978485,1615.1374099254608,,3,,4,5,lightness,readingArea,realistic,75,2023-03-24_09h50.44.260,tripletExp_regina_11082022,2022.2.4,120.20542920029348,
12,6,8,0,0.027777777777778,3.10526315789474,0,0.027777777777778,1.0,0,0.25,1.0,ReadingArea_rsl0-rcl2-esl310-rsm0-rcm2-esm100-rsr0-rcr25-esr100,exr/ReadingArea_rsl0-rcl2-esl310-rsm0-rcm2-esm100-rsr0-rcr25-esr100.exr,ReadingArea_rsl0-rcl2-esl310-rsm0-rcm2-esm100-rsr0-rcr25-esr100.npz,,,,,0,175,175,540,,left,green,2.77,1618.5981290340424,,,3,,4,5,lightness,readingArea,realistic,75,2023-03-24_09h50.44.260,tripletExp_regina_11082022,2022.2.4,120.20542920029348,
1,8,12,0,0.111111111111111,0.298245614035088,0,0.25,1.0,0,0.027777777777778,3.10526315789474,ReadingArea_rsl0-rcl11-esl29-rsm0-rcm25-esm100-rsr0-rcr2-esr310,exr/ReadingArea_rsl0-rcl11-esl29-rsm0-rcm25-esm100-rsr0-rcr2-esr310.exr,ReadingArea_rsl0-rcl11-esl29-rsm0-rcm25-esm100-rsr0-rcr2-esr310.npz,,,,,0,176,176,156,,right,red,2.98,1622.5776739120483,1623.289969921112,,3,,4,5,lightness,readingArea,realistic,75,2023-03-24_09h50.44.260,tripletExp_regina_11082022,2022.2.4,120.20542920029348,
6,12,3,0,0.027777777777778,1.0,0,0.027777777777778,3.10526315789474,0,0.444444444444444,0.298245614035088,ReadingArea_rsl0-rcl2-esl100-rsm0-rcm2-esm310-rsr0-rcr44-esr29,exr/ReadingArea_rsl0-rcl2-esl100-rsm0-rcm2-esm310-rsr0-rcr44-esr29.exr,ReadingArea_rsl0-rcl2-esl100-rsm0-rcm2-esm310-rsr0-rcr44-esr29.npz,,,,,0,177,177,284,,left,green,3.13,1626.7554938793182,1627.224545955658,,3,,4,5,lightness,readingArea,realistic,75,2023-03-24_09h50.44.260,tripletExp_regina_11082022,2022.2.4,120.20542920029348,
3,13,10,0,0.444444444444444,0.298245614035088,0,0.111111111111111,3.10526315789474,0,0.694444444444444,1.0,ReadingArea_rsl0-rcl44-esl29-rsm0-rcm11-esm310-rsr0-rcr69-esr100,exr/ReadingArea_rsl0-rcl44-esl29-rsm0-rcm11-esm310-rsr0-rcr69-esr100.exr,ReadingArea_rsl0-rcl44-esl29-rsm0-rcm11-esm310-rsr0-rcr69-esr100.npz,,,,,0,178,178,416,,left,green,2.47,1630.7091360092163,,,3,,4,5,lightness,readingArea,realistic,75,2023-03-24_09h50.44.260,tripletExp_regina_11082022,2022.2.4,120.20542920029348,
11,12,4,0,1.0,1.0,0,0.027777777777778,3.10526315789474,0,0.694444444444444,0.298245614035088,ReadingArea_rsl0-rcl100-esl100-rsm0-rcm2-esm310-rsr0-rcr69-esr29,exr/ReadingArea_rsl0-rcl100-esl100-rsm0-rcm2-esm310-rsr0-rcr69-esr29.exr,ReadingArea_rsl0-rcl100-esl100-rsm0-rcm2-esm310-rsr0-rcr69-esr29.npz,,,,,0,179,179,250,,right,red,2.16,1634.6361260414124,1635.1661880016327,,3,,4,5,lightness,readingArea,realistic,75,2023-03-24_09h50.44.260,tripletExp_regina_11082022,2022.2.4,120.20542920029348,
1,14,0,0,0.111111111111111,0.298245614035088,0,0.25,3.10526315789474,0,0.027777777777778,0.298245614035088,ReadingArea_rsl0-rcl11-esl29-rsm0-rcm25-esm310-rsr0-rcr2-esr29,exr/ReadingArea_rsl0-rcl11-esl29-rsm0-rcm25-esm310-rsr0-rcr2-esr29.exr,ReadingArea_rsl0-rcl11-esl29-rsm0-rcm25-esm310-rsr0-rcr2-esr29.npz,,,,,0,180,180,394,,left,green,4.38,1640.415431022644,1640.880620956421,,3,,4,5,lightness,readingArea,realistic,75,2023-03-24_09h50.44.260,tripletExp_regina_11082022,2022.2.4,120.20542920029348,
4,3,10,0,0.694444444444444,0.298245614035088,0,0.444444444444444,0.298245614035088,0,0.694444444444444,1.0,ReadingArea_rsl0-rcl69-esl29-rsm0-rcm44-esm29-rsr0-rcr69-esr100,exr/ReadingArea_rsl0-rcl69-esl29-rsm0-rcm44-esm29-rsr0-rcr69-esr100.exr,ReadingArea_rsl0-rcl69-esl29-rsm0-rcm44-esm29-rsr0-rcr69-esr100.npz,,,,,0,181,181,371,,left,green,2.55,1644.3872499465942,1644.8660578727722,,3,,4,5,lightness,readingArea,realistic,75,2023-03-24_09h50.44.260,tripletExp_regina_11082022,2022.2.4,120.20542920029348,
7,4,6,0,0.111111111111111,1.0,0,0.694444444444444,0.298245614035088,0,0.027777777777778,1.0,ReadingArea_rsl0-rcl11-esl100-rsm0-rcm69-esm29-rsr0-rcr2-esr100,exr/ReadingArea_rsl0-rcl11-esl100-rsm0-rcm69-esm29-rsr0-rcr2-esr100.exr,ReadingArea_rsl0-rcl11-esl100-rsm0-rcm69-esm29-rsr0-rcr2-esr100.npz,,,,,0,182,182,528,,left,green,4.11,1650.0878219604492,1650.5995898246765,,3,,4,5,lightness,readingArea,realistic,75,2023-03-24_09h50.44.260,tripletExp_regina_11082022,2022.2.4,120.20542920029348,
13,0,12,0,0.111111111111111,3.10526315789474,0,0.027777777777778,0.298245614035088,0,0.027777777777778,3.10526315789474,ReadingArea_rsl0-rcl11-esl310-rsm0-rcm2-esm29-rsr0-rcr2-esr310,exr/ReadingArea_rsl0-rcl11-esl310-rsm0-rcm2-esm29-rsr0-rcr2-esr310.exr,ReadingArea_rsl0-rcl11-esl310-rsm0-rcm2-esm29-rsr0-rcr2-esr310.npz,,,,,0,183,183,56,,right,red,3.78,1655.8552298545835,1656.414686918259,,3,,4,5,lightness,readingArea,realistic,75,2023-03-24_09h50.44.260,tripletExp_regina_11082022,2022.2.4,120.20542920029348,
3,12,14,0,0.444444444444444,0.298245614035088,0,0.027777777777778,3.10526315789474,0,0.25,3.10526315789474,ReadingArea_rsl0-rcl44-esl29-rsm0-rcm2-esm310-rsr0-rcr25-esr310,exr/ReadingArea_rsl0-rcl44-esl29-rsm0-rcm2-esm310-rsr0-rcr25-esr310.exr,ReadingArea_rsl0-rcl44-esl29-rsm0-rcm2-esm310-rsr0-rcr25-esr310.npz,,,,,0,184,184,16,,left,green,2.2,1659.8850660324097,1660.3548460006714,,3,,4,5,lightness,readingArea,realistic,75,2023-03-24_09h50.44.260,tripletExp_regina_11082022,2022.2.4,120.20542920029348,
2,11,8,0,0.25,0.298245614035088,0,1.0,1.0,0,0.25,1.0,ReadingArea_rsl0-rcl25-esl29-rsm0-rcm100-esm100-rsr0-rcr25-esr100,exr/ReadingArea_rsl0-rcl25-esl29-rsm0-rcm100-esm100-rsr0-rcr25-esr100.exr,ReadingArea_rsl0-rcl25-esl29-rsm0-rcm100-esm100-rsr0-rcr25-esr100.npz,,,,,0,185,185,364,,right,red,3.06,1663.8551168441772,1664.334781885147,,3,,4,5,lightness,readingArea,realistic,75,2023-03-24_09h50.44.260,tripletExp_regina_11082022,2022.2.4,120.20542920029348,
4,2,0,0,0.694444444444444,0.298245614035088,0,0.25,0.298245614035088,0,0.027777777777778,0.298245614035088,ReadingArea_rsl0-rcl69-esl29-rsm0-rcm25-esm29-rsr0-rcr2-esr29,exr/ReadingArea_rsl0-rcl69-esl29-rsm0-rcm25-esm29-rsr0-rcr2-esr29.exr,ReadingArea_rsl0-rcl69-esl29-rsm0-rcm25-esm29-rsr0-rcr2-esr29.npz,,,,,0,186,186,71,,right,red,3.03,1667.8242528438568,1668.307420015335,,3,,4,5,lightness,readingArea,realistic,75,2023-03-24_09h50.44.260,tripletExp_regina_11082022,2022.2.4,120.20542920029348,
0,7,9,0,0.027777777777778,0.298245614035088,0,0.111111111111111,1.0,0,0.444444444444444,1.0,ReadingArea_rsl0-rcl2-esl29-rsm0-rcm11-esm100-rsr0-rcr44-esr100,exr/ReadingArea_rsl0-rcl2-esl29-rsm0-rcm11-esm100-rsr0-rcr44-esr100.exr,ReadingArea_rsl0-rcl2-esl29-rsm0-rcm11-esm100-rsr0-rcr44-esr100.npz,,,,,0,187,187,463,,left,green,2.89,1671.8165619373322,1672.3173658847809,,3,,4,5,lightness,readingArea,realistic,75,2023-03-24_09h50.44.260,tripletExp_regina_11082022,2022.2.4,120.20542920029348,
1,8,5,0,0.111111111111111,0.298245614035088,0,0.25,1.0,0,1.0,0.298245614035088,ReadingArea_rsl0-rcl11-esl29-rsm0-rcm25-esm100-rsr0-rcr100-esr29,exr/ReadingArea_rsl0-rcl11-esl29-rsm0-rcm25-esm100-rsr0-rcr100-esr29.exr,ReadingArea_rsl0-rcl11-esl29-rsm0-rcm25-esm100-rsr0-rcr100-esr29.npz,,,,,0,188,188,445,,left,green,4.82,1677.600734949112,1678.0776948928833,,3,,4,5,lightness,readingArea,realistic,75,2023-03-24_09h50.44.260,tripletExp_regina_11082022,2022.2.4,120.20542920029348,
11,8,7,0,1.0,1.0,0,0.25,1.0,0,0.111111111111111,1.0,ReadingArea_rsl0-rcl100-esl100-rsm0-rcm25-esm100-rsr0-rcr11-esr100,exr/ReadingArea_rsl0-rcl100-esl100-rsm0-rcm25-esm100-rsr0-rcr11-esr100.exr,ReadingArea_rsl0-rcl100-esl100-rsm0-rcm25-esm100-rsr0-rcr11-esr100.npz,,,,,0,189,189,105,,right,red,2.4,1681.578181028366,1682.0589408874512,,3,,4,5,lightness,readingArea,realistic,75,2023-03-24_09h50.44.260,tripletExp_regina_11082022,2022.2.4,120.20542920029348,
7,10,13,0,0.111111111111111,1.0,0,0.694444444444444,1.0,0,0.111111111111111,3.10526315789474,ReadingArea_rsl0-rcl11-esl100-rsm0-rcm69-esm100-rsr0-rcr11-esr310,exr/ReadingArea_rsl0-rcl11-esl100-rsm0-rcm69-esm100-rsr0-rcr11-esr310.exr,ReadingArea_rsl0-rcl11-esl100-rsm0-rcm69-esm100-rsr0-rcr11-esr310.npz,,,,,0,190,190,446,,right,red,2.55,1685.516881942749,1685.984841823578,,3,,4,5,lightness,readingArea,realistic,75,2023-03-24_09h50.44.260,tripletExp_regina_11082022,2022.2.4,120.20542920029348,
13,8,14,0,0.111111111111111,3.10526315789474,0,0.25,1.0,0,0.25,3.10526315789474,ReadingArea_rsl0-rcl11-esl310-rsm0-rcm25-esm100-rsr0-rcr25-esr310,exr/ReadingArea_rsl0-rcl11-esl310-rsm0-rcm25-esm100-rsr0-rcr25-esr310.exr,ReadingArea_rsl0-rcl11-esl310-rsm0-rcm25-esm100-rsr0-rcr25-esr310.npz,,,,,0,191,191,345,,left,green,2.2,1689.4558219909668,1689.9420068264008,,3,,4,5,lightness,readingArea,realistic,75,2023-03-24_09h50.44.260,tripletExp_regina_11082022,2022.2.4,120.20542920029348,
3,5,7,0,0.444444444444444,0.298245614035088,0,1.0,0.298245614035088,0,0.111111111111111,1.0,ReadingArea_rsl0-rcl44-esl29-rsm0-rcm100-esm29-rsr0-rcr11-esr100,exr/ReadingArea_rsl0-rcl44-esl29-rsm0-rcm100-esm29-rsr0-rcr11-esr100.exr,ReadingArea_rsl0-rcl44-esl29-rsm0-rcm100-esm29-rsr0-rcr11-esr100.npz,,,,,0,192,192,474,,left,green,3.88,1695.2035698890686,1695.7133619785309,,3,,4,5,lightness,readingArea,realistic,75,2023-03-24_09h50.44.260,tripletExp_regina_11082022,2022.2.4,120.20542920029348,
12,13,7,0,0.027777777777778,3.10526315789474,0,0.111111111111111,3.10526315789474,0,0.111111111111111,1.0,ReadingArea_rsl0-rcl2-esl310-rsm0-rcm11-esm310-rsr0-rcr11-esr100,exr/ReadingArea_rsl0-rcl2-esl310-rsm0-rcm11-esm310-rsr0-rcr11-esr100.exr,ReadingArea_rsl0-rcl2-esl310-rsm0-rcm11-esm310-rsr0-rcr11-esr100.npz,,,,,0,193,193,408,,left,green,3.04,1699.1978919506073,1699.7160279750824,,3,,4,5,lightness,readingArea,realistic,75,2023-03-24_09h50.44.260,tripletExp_regina_11082022,2022.2.4,120.20542920029348,
6,11,7,0,0.027777777777778,1.0,0,1.0,1.0,0,0.111111111111111,1.0,ReadingArea_rsl0-rcl2-esl100-rsm0-rcm100-esm100-rsr0-rcr11-esr100,exr/ReadingArea_rsl0-rcl2-esl100-rsm0-rcm100-esm100-rsr0-rcr11-esr100.exr,ReadingArea_rsl0-rcl2-esl100-rsm0-rcm100-esm100-rsr0-rcr11-esr100.npz,,,,,0,194,194,571,,right,red,4.06,1704.9737918376925,1705.4520168304443,,3,,4,5,lightness,readingArea,realistic,75,2023-03-24_09h50.44.260,tripletExp_regina_11082022,2022.2.4,120.20542920029348,
5,1,13,0,1.0,0.298245614035088,0,0.111111111111111,0.298245614035088,0,0.111111111111111,3.10526315789474,ReadingArea_rsl0-rcl100-esl29-rsm0-rcm11-esm29-rsr0-rcr11-esr310,exr/ReadingArea_rsl0-rcl100-esl29-rsm0-rcm11-esm29-rsr0-rcr11-esr310.exr,ReadingArea_rsl0-rcl100-esl29-rsm0-rcm11-esm29-rsr0-rcr11-esr310.npz,,,,,0,195,195,594,,right,red,4.01,1710.7304408550262,1711.2101278305054,,3,,4,5,lightness,readingArea,realistic,75,2023-03-24_09h50.44.260,tripletExp_regina_11082022,2022.2.4,120.20542920029348,
3,2,8,0,0.444444444444444,0.298245614035088,0,0.25,0.298245614035088,0,0.25,1.0,ReadingArea_rsl0-rcl44-esl29-rsm0-rcm25-esm29-rsr0-rcr25-esr100,exr/ReadingArea_rsl0-rcl44-esl29-rsm0-rcm25-esm29-rsr0-rcr25-esr100.exr,ReadingArea_rsl0-rcl44-esl29-rsm0-rcm25-esm29-rsr0-rcr25-esr100.npz,,,,,0,196,196,181,,left,green,2.86,1714.662787914276,1715.1598718166351,,3,,4,5,lightness,readingArea,realistic,75,2023-03-24_09h50.44.260,tripletExp_regina_11082022,2022.2.4,120.20542920029348,
0,8,6,0,0.027777777777778,0.298245614035088,0,0.25,1.0,0,0.027777777777778,1.0,ReadingArea_rsl0-rcl2-esl29-rsm0-rcm25-esm100-rsr0-rcr2-esr100,exr/ReadingArea_rsl0-rcl2-esl29-rsm0-rcm25-esm100-rsr0-rcr2-esr100.exr,ReadingArea_rsl0-rcl2-esl29-rsm0-rcm25-esm100-rsr0-rcr2-esr100.npz,,,,,0,197,197,92,,right,red,2.02,1718.633603811264,1719.116593837738,,3,,4,5,lightness,readingArea,realistic,75,2023-03-24_09h50.44.260,tripletExp_regina_11082022,2022.2.4,120.20542920029348,
11,5,8,0,1.0,1.0,0,1.0,0.298245614035088,0,0.25,1.0,ReadingArea_rsl0-rcl100-esl100-rsm0-rcm100-esm29-rsr0-rcr25-esr100,exr/ReadingArea_rsl0-rcl100-esl100-rsm0-rcm100-esm29-rsr0-rcr25-esr100.exr,ReadingArea_rsl0-rcl100-esl100-rsm0-rcm100-esm29-rsr0-rcr25-esr100.npz,,,,,0,198,198,86,,right,red,2.19,1722.602411031723,1723.086839914322,,3,,4,5,lightness,readingArea,realistic,75,2023-03-24_09h50.44.260,tripletExp_regina_11082022,2022.2.4,120.20542920029348,
1,9,11,0,0.111111111111111,0.298245614035088,0,0.444444444444444,1.0,0,1.0,1.0,ReadingArea_rsl0-rcl11-esl29-rsm0-rcm44-esm100-rsr0-rcr100-esr100,exr/ReadingArea_rsl0-rcl11-esl29-rsm0-rcm44-esm100-rsr0-rcr100-esr100.exr,ReadingArea_rsl0-rcl11-esl29-rsm0-rcm44-esm100-rsr0-rcr100-esr100.npz,,,,,0,199,199,215,,left,green,2.71,1726.5787568092346,1727.090726852417,,3,,4,5,lightness,readingArea,realistic,75,2023-03-24_09h50.44.260,tripletExp_regina_11082022,2022.2.4,120.20542920029348,
13,3,7,0,0.111111111111111,3.10526315789474,0,0.444444444444444,0.298245614035088,0,0.111111111111111,1.0,ReadingArea_rsl0-rcl11-esl310-rsm0-rcm44-esm29-rsr0-rcr11-esr100,exr/ReadingArea_rsl0-rcl11-esl310-rsm0-rcm44-esm29-rsr0-rcr11-esr100.exr,ReadingArea_rsl0-rcl11-esl310-rsm0-rcm44-esm29-rsr0-rcr11-esr100.npz,,,,,0,200,200,497,,right,red,2.14,1730.557720899582,,,3,,4,5,lightness,readingArea,realistic,75,2023-03-24_09h50.44.260,tripletExp_regina_11082022,2022.2.4,120.20542920029348,
12,1,2,0,0.027777777777778,3.10526315789474,0,0.111111111111111,0.298245614035088,0,0.25,0.298245614035088,ReadingArea_rsl0-rcl2-esl310-rsm0-rcm11-esm29-rsr0-rcr25-esr29,exr/ReadingArea_rsl0-rcl2-esl310-rsm0-rcm11-esm29-rsr0-rcr25-esr29.exr,ReadingArea_rsl0-rcl2-esl310-rsm0-rcm11-esm29-rsr0-rcr25-esr29.npz,,,,,0,201,201,231,,left,green,4.02,1736.335392951965,1736.8095688819883,,3,,4,5,lightness,readingArea,realistic,75,2023-03-24_09h50.44.260,tripletExp_regina_11082022,2022.2.4,120.20542920029348,
14,12,0,0,0.25,3.10526315789474,0,0.027777777777778,3.10526315789474,0,0.027777777777778,0.298245614035088,ReadingArea_rsl0-rcl25-esl310-rsm0-rcm2-esm310-rsr0-rcr2-esr29,exr/ReadingArea_rsl0-rcl25-esl310-rsm0-rcm2-esm310-rsr0-rcr2-esr29.exr,ReadingArea_rsl0-rcl25-esl310-rsm0-rcm2-esm310-rsr0-rcr2-esr29.npz,,,,,0,202,202,409,,right,red,2.18,1740.3072979450226,1740.775950908661,,3,,4,5,lightness,readingArea,realistic,75,2023-03-24_09h50.44.260,tripletExp_regina_11082022,2022.2.4,120.20542920029348,
