index_left,index_middle,index_right,reflectance_surround_left,reflectance_center_left,emission_spot_left,reflectance_surround_middle,reflectance_center_middle,emission_spot_middle,reflectance_surround_right,reflectance_center_right,emission_spot_right,ImageName,ImageExr,ImageNpy,trials_2.thisRepN,trials_2.thisTrialN,trials_2.thisN,trials_2.thisIndex,trials.thisRepN,trials.thisTrialN,trials.thisN,trials.thisIndex,sound_1.started,BB_Trial.resp,BB_Trial.color,BB_Trial.rt,text.started,text.stopped,block,sound_4.started,participant,session,L/B,scene,condition,nTrialsPerBlock,date,expName,psychopyVersion,frameRate,Unnamed: 41
7,14,11,2,0.111111111111111,1.0,2,0.25,3.10526315789474,2,1.0,1.0,ReadingArea_rsl2-rcl11-esl100-rsm2-rcm25-esm310-rsr2-rcr100-esr100,exr/ReadingArea_rsl2-rcl11-esl100-rsm2-rcm25-esm310-rsr2-rcr100-esr100.exr,ReadingArea_rsl2-rcl11-esl100-rsm2-rcm25-esm310-rsr2-rcr100-esr100.npz,,,,,0,0,0,252,137.0594607591629,right,red,0.88,152.43236804008484,152.78863310813904,1,,EB,2,lightness,readingArea,uniform,75,2023-03-12_16h22.39.803,tripletExp_regina_11082022,2022.2.4,120.44706341822024,
13,6,12,2,0.111111111111111,3.10526315789474,2,0.027777777777778,1.0,2,0.027777777777778,3.10526315789474,ReadingArea_rsl2-rcl11-esl310-rsm2-rcm2-esm100-rsr2-rcr2-esr310,exr/ReadingArea_rsl2-rcl11-esl310-rsm2-rcm2-esm100-rsr2-rcr2-esr310.exr,ReadingArea_rsl2-rcl11-esl310-rsm2-rcm2-esm100-rsr2-rcr2-esr310.npz,,,,,0,1,1,147,,right,red,0.9,154.48423600196838,154.80330109596252,1,,EB,2,lightness,readingArea,uniform,75,2023-03-12_16h22.39.803,tripletExp_regina_11082022,2022.2.4,120.44706341822024,
6,12,3,2,0.027777777777778,1.0,2,0.027777777777778,3.10526315789474,2,0.444444444444444,0.298245614035088,ReadingArea_rsl2-rcl2-esl100-rsm2-rcm2-esm310-rsr2-rcr44-esr29,exr/ReadingArea_rsl2-rcl2-esl100-rsm2-rcm2-esm310-rsr2-rcr44-esr29.exr,ReadingArea_rsl2-rcl2-esl100-rsm2-rcm2-esm310-rsr2-rcr44-esr29.npz,,,,,0,2,2,284,,right,red,1.47,156.49346208572388,156.81316804885864,1,,EB,2,lightness,readingArea,uniform,75,2023-03-12_16h22.39.803,tripletExp_regina_11082022,2022.2.4,120.44706341822024,
8,10,9,2,0.25,1.0,2,0.694444444444444,1.0,2,0.444444444444444,1.0,ReadingArea_rsl2-rcl25-esl100-rsm2-rcm69-esm100-rsr2-rcr44-esr100,exr/ReadingArea_rsl2-rcl25-esl100-rsm2-rcm69-esm100-rsr2-rcr44-esr100.exr,ReadingArea_rsl2-rcl25-esl100-rsm2-rcm69-esm100-rsr2-rcr44-esr100.npz,,,,,0,3,3,342,,right,red,1.23,158.5232949256897,158.8657729625702,1,,EB,2,lightness,readingArea,uniform,75,2023-03-12_16h22.39.803,tripletExp_regina_11082022,2022.2.4,120.44706341822024,
6,10,9,2,0.027777777777778,1.0,2,0.694444444444444,1.0,2,0.444444444444444,1.0,ReadingArea_rsl2-rcl2-esl100-rsm2-rcm69-esm100-rsr2-rcr44-esr100,exr/ReadingArea_rsl2-rcl2-esl100-rsm2-rcm69-esm100-rsr2-rcr44-esr100.exr,ReadingArea_rsl2-rcl2-esl100-rsm2-rcm69-esm100-rsr2-rcr44-esr100.npz,,,,,0,4,4,148,,right,red,0.91,160.56056308746338,160.88735389709473,1,,EB,2,lightness,readingArea,uniform,75,2023-03-12_16h22.39.803,tripletExp_regina_11082022,2022.2.4,120.44706341822024,
2,14,1,2,0.25,0.298245614035088,2,0.25,3.10526315789474,2,0.111111111111111,0.298245614035088,ReadingArea_rsl2-rcl25-esl29-rsm2-rcm25-esm310-rsr2-rcr11-esr29,exr/ReadingArea_rsl2-rcl25-esl29-rsm2-rcm25-esm310-rsr2-rcr11-esr29.exr,ReadingArea_rsl2-rcl25-esl29-rsm2-rcm25-esm310-rsr2-rcr11-esr29.npz,,,,,0,5,5,579,,left,green,1.1,162.59562301635742,162.95678997039795,1,,EB,2,lightness,readingArea,uniform,75,2023-03-12_16h22.39.803,tripletExp_regina_11082022,2022.2.4,120.44706341822024,
6,12,0,2,0.027777777777778,1.0,2,0.027777777777778,3.10526315789474,2,0.027777777777778,0.298245614035088,ReadingArea_rsl2-rcl2-esl100-rsm2-rcm2-esm310-rsr2-rcr2-esr29,exr/ReadingArea_rsl2-rcl2-esl100-rsm2-rcm2-esm310-rsr2-rcr2-esr29.exr,ReadingArea_rsl2-rcl2-esl100-rsm2-rcm2-esm310-rsr2-rcr2-esr29.npz,,,,,0,6,6,23,,left,green,2.09,166.4233100414276,166.7629430294037,1,,EB,2,lightness,readingArea,uniform,75,2023-03-12_16h22.39.803,tripletExp_regina_11082022,2022.2.4,120.44706341822024,
3,2,11,2,0.444444444444444,0.298245614035088,2,0.25,0.298245614035088,2,1.0,1.0,ReadingArea_rsl2-rcl44-esl29-rsm2-rcm25-esm29-rsr2-rcr100-esr100,exr/ReadingArea_rsl2-rcl44-esl29-rsm2-rcm25-esm29-rsr2-rcr100-esr100.exr,ReadingArea_rsl2-rcl44-esl29-rsm2-rcm25-esm29-rsr2-rcr100-esr100.npz,,,,,0,7,7,257,,left,green,0.72,168.48628306388855,168.82384991645813,1,,EB,2,lightness,readingArea,uniform,75,2023-03-12_16h22.39.803,tripletExp_regina_11082022,2022.2.4,120.44706341822024,
3,7,8,2,0.444444444444444,0.298245614035088,2,0.111111111111111,1.0,2,0.25,1.0,ReadingArea_rsl2-rcl44-esl29-rsm2-rcm11-esm100-rsr2-rcr25-esr100,exr/ReadingArea_rsl2-rcl44-esl29-rsm2-rcm11-esm100-rsr2-rcr25-esr100.exr,ReadingArea_rsl2-rcl44-esl29-rsm2-rcm11-esm100-rsr2-rcr25-esr100.npz,,,,,0,8,8,246,,left,green,2.5,172.28834199905396,172.70274996757507,1,,EB,2,lightness,readingArea,uniform,75,2023-03-12_16h22.39.803,tripletExp_regina_11082022,2022.2.4,120.44706341822024,
12,6,8,2,0.027777777777778,3.10526315789474,2,0.027777777777778,1.0,2,0.25,1.0,ReadingArea_rsl2-rcl2-esl310-rsm2-rcm2-esm100-rsr2-rcr25-esr100,exr/ReadingArea_rsl2-rcl2-esl310-rsm2-rcm2-esm100-rsr2-rcr25-esr100.exr,ReadingArea_rsl2-rcl2-esl310-rsm2-rcm2-esm100-rsr2-rcr25-esr100.npz,,,,,0,9,9,540,,left,green,1.08,174.3797070980072,174.72519707679749,1,,EB,2,lightness,readingArea,uniform,75,2023-03-12_16h22.39.803,tripletExp_regina_11082022,2022.2.4,120.44706341822024,
6,3,13,2,0.027777777777778,1.0,2,0.444444444444444,0.298245614035088,2,0.111111111111111,3.10526315789474,ReadingArea_rsl2-rcl2-esl100-rsm2-rcm44-esm29-rsr2-rcr11-esr310,exr/ReadingArea_rsl2-rcl2-esl100-rsm2-rcm44-esm29-rsr2-rcr11-esr310.exr,ReadingArea_rsl2-rcl2-esl100-rsm2-rcm44-esm29-rsr2-rcr11-esr310.npz,,,,,0,10,10,228,,right,red,0.81,176.44058203697205,176.75927805900574,1,,EB,2,lightness,readingArea,uniform,75,2023-03-12_16h22.39.803,tripletExp_regina_11082022,2022.2.4,120.44706341822024,
5,14,11,2,1.0,0.298245614035088,2,0.25,3.10526315789474,2,1.0,1.0,ReadingArea_rsl2-rcl100-esl29-rsm2-rcm25-esm310-rsr2-rcr100-esr100,exr/ReadingArea_rsl2-rcl100-esl29-rsm2-rcm25-esm310-rsr2-rcr100-esr100.exr,ReadingArea_rsl2-rcl100-esl29-rsm2-rcm25-esm310-rsr2-rcr100-esr100.npz,,,,,0,11,11,98,,right,red,0.98,178.4830310344696,178.80237102508545,1,,EB,2,lightness,readingArea,uniform,75,2023-03-12_16h22.39.803,tripletExp_regina_11082022,2022.2.4,120.44706341822024,
3,13,10,2,0.444444444444444,0.298245614035088,2,0.111111111111111,3.10526315789474,2,0.694444444444444,1.0,ReadingArea_rsl2-rcl44-esl29-rsm2-rcm11-esm310-rsr2-rcr69-esr100,exr/ReadingArea_rsl2-rcl44-esl29-rsm2-rcm11-esm310-rsr2-rcr69-esr100.exr,ReadingArea_rsl2-rcl44-esl29-rsm2-rcm11-esm310-rsr2-rcr69-esr100.npz,,,,,0,12,12,416,,left,green,0.8,180.5251441001892,180.86812901496887,1,,EB,2,lightness,readingArea,uniform,75,2023-03-12_16h22.39.803,tripletExp_regina_11082022,2022.2.4,120.44706341822024,
1,13,8,2,0.111111111111111,0.298245614035088,2,0.111111111111111,3.10526315789474,2,0.25,1.0,ReadingArea_rsl2-rcl11-esl29-rsm2-rcm11-esm310-rsr2-rcr25-esr100,exr/ReadingArea_rsl2-rcl11-esl29-rsm2-rcm11-esm310-rsr2-rcr25-esr100.exr,ReadingArea_rsl2-rcl11-esl29-rsm2-rcm11-esm310-rsr2-rcr25-esr100.npz,,,,,0,13,13,64,,right,red,0.67,182.5879828929901,182.93516206741333,1,,EB,2,lightness,readingArea,uniform,75,2023-03-12_16h22.39.803,tripletExp_regina_11082022,2022.2.4,120.44706341822024,
7,3,5,2,0.111111111111111,1.0,2,0.444444444444444,0.298245614035088,2,1.0,0.298245614035088,ReadingArea_rsl2-rcl11-esl100-rsm2-rcm44-esm29-rsr2-rcr100-esr29,exr/ReadingArea_rsl2-rcl11-esl100-rsm2-rcm44-esm29-rsr2-rcr100-esr29.exr,ReadingArea_rsl2-rcl11-esl100-rsm2-rcm44-esm29-rsr2-rcr100-esr29.npz,,,,,0,14,14,589,,left,green,2.07,186.40921998023987,186.7936360836029,1,,EB,2,lightness,readingArea,uniform,75,2023-03-12_16h22.39.803,tripletExp_regina_11082022,2022.2.4,120.44706341822024,
14,2,0,2,0.25,3.10526315789474,2,0.25,0.298245614035088,2,0.027777777777778,0.298245614035088,ReadingArea_rsl2-rcl25-esl310-rsm2-rcm25-esm29-rsr2-rcr2-esr29,exr/ReadingArea_rsl2-rcl25-esl310-rsm2-rcm25-esm29-rsr2-rcr2-esr29.exr,ReadingArea_rsl2-rcl25-esl310-rsm2-rcm25-esm29-rsr2-rcr2-esr29.npz,,,,,0,15,15,460,,right,red,0.88,188.51068711280823,188.83726596832275,1,,EB,2,lightness,readingArea,uniform,75,2023-03-12_16h22.39.803,tripletExp_regina_11082022,2022.2.4,120.44706341822024,
10,5,13,2,0.694444444444444,1.0,2,1.0,0.298245614035088,2,0.111111111111111,3.10526315789474,ReadingArea_rsl2-rcl69-esl100-rsm2-rcm100-esm29-rsr2-rcr11-esr310,exr/ReadingArea_rsl2-rcl69-esl100-rsm2-rcm100-esm29-rsr2-rcr11-esr310.exr,ReadingArea_rsl2-rcl69-esl100-rsm2-rcm100-esm29-rsr2-rcr11-esr310.npz,,,,,0,16,16,478,,right,red,0.86,190.5630400180817,190.8937439918518,1,,EB,2,lightness,readingArea,uniform,75,2023-03-12_16h22.39.803,tripletExp_regina_11082022,2022.2.4,120.44706341822024,
4,3,10,2,0.694444444444444,0.298245614035088,2,0.444444444444444,0.298245614035088,2,0.694444444444444,1.0,ReadingArea_rsl2-rcl69-esl29-rsm2-rcm44-esm29-rsr2-rcr69-esr100,exr/ReadingArea_rsl2-rcl69-esl29-rsm2-rcm44-esm29-rsr2-rcr69-esr100.exr,ReadingArea_rsl2-rcl69-esl29-rsm2-rcm44-esm29-rsr2-rcr69-esr100.npz,,,,,0,17,17,371,,left,green,0.59,192.598699092865,192.91905403137207,1,,EB,2,lightness,readingArea,uniform,75,2023-03-12_16h22.39.803,tripletExp_regina_11082022,2022.2.4,120.44706341822024,
10,4,8,2,0.694444444444444,1.0,2,0.694444444444444,0.298245614035088,2,0.25,1.0,ReadingArea_rsl2-rcl69-esl100-rsm2-rcm69-esm29-rsr2-rcr25-esr100,exr/ReadingArea_rsl2-rcl69-esl100-rsm2-rcm69-esm29-rsr2-rcr25-esr100.exr,ReadingArea_rsl2-rcl69-esl100-rsm2-rcm69-esm29-rsr2-rcr25-esr100.npz,,,,,0,18,18,562,,right,red,0.69,194.62446808815,194.9724969863892,1,,EB,2,lightness,readingArea,uniform,75,2023-03-12_16h22.39.803,tripletExp_regina_11082022,2022.2.4,120.44706341822024,
14,4,7,2,0.25,3.10526315789474,2,0.694444444444444,0.298245614035088,2,0.111111111111111,1.0,ReadingArea_rsl2-rcl25-esl310-rsm2-rcm69-esm29-rsr2-rcr11-esr100,exr/ReadingArea_rsl2-rcl25-esl310-rsm2-rcm69-esm29-rsr2-rcr11-esr100.exr,ReadingArea_rsl2-rcl25-esl310-rsm2-rcm69-esm29-rsr2-rcr11-esr100.npz,,,,,0,19,19,136,,right,red,0.76,196.69498300552368,197.01136302948,1,,EB,2,lightness,readingArea,uniform,75,2023-03-12_16h22.39.803,tripletExp_regina_11082022,2022.2.4,120.44706341822024,
5,0,10,2,1.0,0.298245614035088,2,0.027777777777778,0.298245614035088,2,0.694444444444444,1.0,ReadingArea_rsl2-rcl100-esl29-rsm2-rcm2-esm29-rsr2-rcr69-esr100,exr/ReadingArea_rsl2-rcl100-esl29-rsm2-rcm2-esm29-rsr2-rcr69-esr100.exr,ReadingArea_rsl2-rcl100-esl29-rsm2-rcm2-esm29-rsr2-rcr69-esr100.npz,,,,,0,20,20,361,,left,green,0.96,198.70734310150144,199.0551760196685,1,,EB,2,lightness,readingArea,uniform,75,2023-03-12_16h22.39.803,tripletExp_regina_11082022,2022.2.4,120.44706341822024,
2,1,14,2,0.25,0.298245614035088,2,0.111111111111111,0.298245614035088,2,0.25,3.10526315789474,ReadingArea_rsl2-rcl25-esl29-rsm2-rcm11-esm29-rsr2-rcr25-esr310,exr/ReadingArea_rsl2-rcl25-esl29-rsm2-rcm11-esm29-rsr2-rcr25-esr310.exr,ReadingArea_rsl2-rcl25-esl29-rsm2-rcm11-esm29-rsr2-rcr25-esr310.npz,,,,,0,21,21,59,,left,green,0.74,200.74688696861267,201.06431698799133,1,,EB,2,lightness,readingArea,uniform,75,2023-03-12_16h22.39.803,tripletExp_regina_11082022,2022.2.4,120.44706341822024,
5,2,0,2,1.0,0.298245614035088,2,0.25,0.298245614035088,2,0.027777777777778,0.298245614035088,ReadingArea_rsl2-rcl100-esl29-rsm2-rcm25-esm29-rsr2-rcr2-esr29,exr/ReadingArea_rsl2-rcl100-esl29-rsm2-rcm25-esm29-rsr2-rcr2-esr29.exr,ReadingArea_rsl2-rcl100-esl29-rsm2-rcm25-esm29-rsr2-rcr2-esr29.npz,,,,,0,22,22,476,,left,green,0.79,202.7737419605255,203.11882495880127,1,,EB,2,lightness,readingArea,uniform,75,2023-03-12_16h22.39.803,tripletExp_regina_11082022,2022.2.4,120.44706341822024,
1,12,10,2,0.111111111111111,0.298245614035088,2,0.027777777777778,3.10526315789474,2,0.694444444444444,1.0,ReadingArea_rsl2-rcl11-esl29-rsm2-rcm2-esm310-rsr2-rcr69-esr100,exr/ReadingArea_rsl2-rcl11-esl29-rsm2-rcm2-esm310-rsr2-rcr69-esr100.exr,ReadingArea_rsl2-rcl11-esl29-rsm2-rcm2-esm310-rsr2-rcr69-esr100.npz,,,,,0,23,23,567,,left,green,0.87,204.82489609718323,205.14842009544373,1,,EB,2,lightness,readingArea,uniform,75,2023-03-12_16h22.39.803,tripletExp_regina_11082022,2022.2.4,120.44706341822024,
0,1,8,2,0.027777777777778,0.298245614035088,2,0.111111111111111,0.298245614035088,2,0.25,1.0,ReadingArea_rsl2-rcl2-esl29-rsm2-rcm11-esm29-rsr2-rcr25-esr100,exr/ReadingArea_rsl2-rcl2-esl29-rsm2-rcm11-esm29-rsr2-rcr25-esr100.exr,ReadingArea_rsl2-rcl2-esl29-rsm2-rcm11-esm29-rsr2-rcr25-esr100.npz,,,,,0,24,24,107,,left,green,0.94,206.860680103302,207.1896090507508,1,,EB,2,lightness,readingArea,uniform,75,2023-03-12_16h22.39.803,tripletExp_regina_11082022,2022.2.4,120.44706341822024,
4,9,13,2,0.694444444444444,0.298245614035088,2,0.444444444444444,1.0,2,0.111111111111111,3.10526315789474,ReadingArea_rsl2-rcl69-esl29-rsm2-rcm44-esm100-rsr2-rcr11-esr310,exr/ReadingArea_rsl2-rcl69-esl29-rsm2-rcm44-esm100-rsr2-rcr11-esr310.exr,ReadingArea_rsl2-rcl69-esl29-rsm2-rcm44-esm100-rsr2-rcr11-esr310.npz,,,,,0,25,25,488,,left,green,1.05,208.91183590888977,209.2736599445343,1,,EB,2,lightness,readingArea,uniform,75,2023-03-12_16h22.39.803,tripletExp_regina_11082022,2022.2.4,120.44706341822024,
8,4,2,2,0.25,1.0,2,0.694444444444444,0.298245614035088,2,0.25,0.298245614035088,ReadingArea_rsl2-rcl25-esl100-rsm2-rcm69-esm29-rsr2-rcr25-esr29,exr/ReadingArea_rsl2-rcl25-esl100-rsm2-rcm69-esm29-rsr2-rcr25-esr29.exr,ReadingArea_rsl2-rcl25-esl100-rsm2-rcm69-esm29-rsr2-rcr25-esr29.npz,,,,,0,26,26,184,,left,green,0.65,210.959242105484,211.2816550731659,1,,EB,2,lightness,readingArea,uniform,75,2023-03-12_16h22.39.803,tripletExp_regina_11082022,2022.2.4,120.44706341822024,
13,0,12,2,0.111111111111111,3.10526315789474,2,0.027777777777778,0.298245614035088,2,0.027777777777778,3.10526315789474,ReadingArea_rsl2-rcl11-esl310-rsm2-rcm2-esm29-rsr2-rcr2-esr310,exr/ReadingArea_rsl2-rcl11-esl310-rsm2-rcm2-esm29-rsr2-rcr2-esr310.exr,ReadingArea_rsl2-rcl11-esl310-rsm2-rcm2-esm29-rsr2-rcr2-esr310.npz,,,,,0,27,27,56,,right,red,0.57,213.00287294387817,213.3378710746765,1,,EB,2,lightness,readingArea,uniform,75,2023-03-12_16h22.39.803,tripletExp_regina_11082022,2022.2.4,120.44706341822024,
10,4,13,2,0.694444444444444,1.0,2,0.694444444444444,0.298245614035088,2,0.111111111111111,3.10526315789474,ReadingArea_rsl2-rcl69-esl100-rsm2-rcm69-esm29-rsr2-rcr11-esr310,exr/ReadingArea_rsl2-rcl69-esl100-rsm2-rcm69-esm29-rsr2-rcr11-esr310.exr,ReadingArea_rsl2-rcl69-esl100-rsm2-rcm69-esm29-rsr2-rcr11-esr310.npz,,,,,0,28,28,24,,right,red,0.74,215.05949211120603,215.41036105155945,1,,EB,2,lightness,readingArea,uniform,75,2023-03-12_16h22.39.803,tripletExp_regina_11082022,2022.2.4,120.44706341822024,
14,13,2,2,0.25,3.10526315789474,2,0.111111111111111,3.10526315789474,2,0.25,0.298245614035088,ReadingArea_rsl2-rcl25-esl310-rsm2-rcm11-esm310-rsr2-rcr25-esr29,exr/ReadingArea_rsl2-rcl25-esl310-rsm2-rcm11-esm310-rsr2-rcr25-esr29.exr,ReadingArea_rsl2-rcl25-esl310-rsm2-rcm11-esm310-rsr2-rcr25-esr29.npz,,,,,0,29,29,377,,left,green,0.66,217.12026000022888,217.4416830539704,1,,EB,2,lightness,readingArea,uniform,75,2023-03-12_16h22.39.803,tripletExp_regina_11082022,2022.2.4,120.44706341822024,
10,12,9,2,0.694444444444444,1.0,2,0.027777777777778,3.10526315789474,2,0.444444444444444,1.0,ReadingArea_rsl2-rcl69-esl100-rsm2-rcm2-esm310-rsr2-rcr44-esr100,exr/ReadingArea_rsl2-rcl69-esl100-rsm2-rcm2-esm310-rsr2-rcr44-esr100.exr,ReadingArea_rsl2-rcl69-esl100-rsm2-rcm2-esm310-rsr2-rcr44-esr100.npz,,,,,0,30,30,405,,right,red,0.61,219.15629506111145,219.4949119091034,1,,EB,2,lightness,readingArea,uniform,75,2023-03-12_16h22.39.803,tripletExp_regina_11082022,2022.2.4,120.44706341822024,
12,10,5,2,0.027777777777778,3.10526315789474,2,0.694444444444444,1.0,2,1.0,0.298245614035088,ReadingArea_rsl2-rcl2-esl310-rsm2-rcm69-esm100-rsr2-rcr100-esr29,exr/ReadingArea_rsl2-rcl2-esl310-rsm2-rcm69-esm100-rsr2-rcr100-esr29.exr,ReadingArea_rsl2-rcl2-esl310-rsm2-rcm69-esm100-rsr2-rcr100-esr29.npz,,,,,0,31,31,470,,right,red,0.5,221.21399092674253,221.5573029518128,1,,EB,2,lightness,readingArea,uniform,75,2023-03-12_16h22.39.803,tripletExp_regina_11082022,2022.2.4,120.44706341822024,
12,6,3,2,0.027777777777778,3.10526315789474,2,0.027777777777778,1.0,2,0.444444444444444,0.298245614035088,ReadingArea_rsl2-rcl2-esl310-rsm2-rcm2-esm100-rsr2-rcr44-esr29,exr/ReadingArea_rsl2-rcl2-esl310-rsm2-rcm2-esm100-rsr2-rcr44-esr29.exr,ReadingArea_rsl2-rcl2-esl310-rsm2-rcm2-esm100-rsr2-rcr44-esr29.npz,,,,,0,32,32,139,,left,green,2.54,225.03846406936648,225.50026488304127,1,,EB,2,lightness,readingArea,uniform,75,2023-03-12_16h22.39.803,tripletExp_regina_11082022,2022.2.4,120.44706341822024,
4,7,10,2,0.694444444444444,0.298245614035088,2,0.111111111111111,1.0,2,0.694444444444444,1.0,ReadingArea_rsl2-rcl69-esl29-rsm2-rcm11-esm100-rsr2-rcr69-esr100,exr/ReadingArea_rsl2-rcl69-esl29-rsm2-rcm11-esm100-rsr2-rcr69-esr100.exr,ReadingArea_rsl2-rcl69-esl29-rsm2-rcm11-esm100-rsr2-rcr69-esr100.npz,,,,,0,33,33,8,,left,green,0.76,227.21396899223328,227.56416702270508,1,,EB,2,lightness,readingArea,uniform,75,2023-03-12_16h22.39.803,tripletExp_regina_11082022,2022.2.4,120.44706341822024,
0,10,12,2,0.027777777777778,0.298245614035088,2,0.694444444444444,1.0,2,0.027777777777778,3.10526315789474,ReadingArea_rsl2-rcl2-esl29-rsm2-rcm69-esm100-rsr2-rcr2-esr310,exr/ReadingArea_rsl2-rcl2-esl29-rsm2-rcm69-esm100-rsr2-rcr2-esr310.exr,ReadingArea_rsl2-rcl2-esl29-rsm2-rcm69-esm100-rsr2-rcr2-esr310.npz,,,,,0,34,34,531,,right,red,0.64,229.2890360355377,229.64031195640564,1,,EB,2,lightness,readingArea,uniform,75,2023-03-12_16h22.39.803,tripletExp_regina_11082022,2022.2.4,120.44706341822024,
8,3,12,2,0.25,1.0,2,0.444444444444444,0.298245614035088,2,0.027777777777778,3.10526315789474,ReadingArea_rsl2-rcl25-esl100-rsm2-rcm44-esm29-rsr2-rcr2-esr310,exr/ReadingArea_rsl2-rcl25-esl100-rsm2-rcm44-esm29-rsr2-rcr2-esr310.exr,ReadingArea_rsl2-rcl25-esl100-rsm2-rcm44-esm29-rsr2-rcr2-esr310.npz,,,,,0,35,35,22,,left,green,0.73,231.3593940734864,231.704519033432,1,,EB,2,lightness,readingArea,uniform,75,2023-03-12_16h22.39.803,tripletExp_regina_11082022,2022.2.4,120.44706341822024,
11,8,0,2,1.0,1.0,2,0.25,1.0,2,0.027777777777778,0.298245614035088,ReadingArea_rsl2-rcl100-esl100-rsm2-rcm25-esm100-rsr2-rcr2-esr29,exr/ReadingArea_rsl2-rcl100-esl100-rsm2-rcm25-esm100-rsr2-rcr2-esr29.exr,ReadingArea_rsl2-rcl100-esl100-rsm2-rcm25-esm100-rsr2-rcr2-esr29.npz,,,,,0,36,36,81,,left,green,2.06,235.20282793045044,,1,,EB,2,lightness,readingArea,uniform,75,2023-03-12_16h22.39.803,tripletExp_regina_11082022,2022.2.4,120.44706341822024,
8,13,3,2,0.25,1.0,2,0.111111111111111,3.10526315789474,2,0.444444444444444,0.298245614035088,ReadingArea_rsl2-rcl25-esl100-rsm2-rcm11-esm310-rsr2-rcr44-esr29,exr/ReadingArea_rsl2-rcl25-esl100-rsm2-rcm11-esm310-rsr2-rcr44-esr29.exr,ReadingArea_rsl2-rcl25-esl100-rsm2-rcm11-esm310-rsr2-rcr44-esr29.npz,,,,,0,37,37,553,,left,green,2.64,239.0182039737701,239.37227702140808,1,,EB,2,lightness,readingArea,uniform,75,2023-03-12_16h22.39.803,tripletExp_regina_11082022,2022.2.4,120.44706341822024,
7,3,0,2,0.111111111111111,1.0,2,0.444444444444444,0.298245614035088,2,0.027777777777778,0.298245614035088,ReadingArea_rsl2-rcl11-esl100-rsm2-rcm44-esm29-rsr2-rcr2-esr29,exr/ReadingArea_rsl2-rcl11-esl100-rsm2-rcm44-esm29-rsr2-rcr2-esr29.exr,ReadingArea_rsl2-rcl11-esl100-rsm2-rcm44-esm29-rsr2-rcr2-esr29.npz,,,,,0,38,38,318,,left,green,0.61,241.0617709159851,,1,,EB,2,lightness,readingArea,uniform,75,2023-03-12_16h22.39.803,tripletExp_regina_11082022,2022.2.4,120.44706341822024,
13,10,3,2,0.111111111111111,3.10526315789474,2,0.694444444444444,1.0,2,0.444444444444444,0.298245614035088,ReadingArea_rsl2-rcl11-esl310-rsm2-rcm69-esm100-rsr2-rcr44-esr29,exr/ReadingArea_rsl2-rcl11-esl310-rsm2-rcm69-esm100-rsr2-rcr44-esr29.exr,ReadingArea_rsl2-rcl11-esl310-rsm2-rcm69-esm100-rsr2-rcr44-esr29.npz,,,,,0,39,39,224,,left,green,0.93,243.13238406181333,243.4780139923096,1,,EB,2,lightness,readingArea,uniform,75,2023-03-12_16h22.39.803,tripletExp_regina_11082022,2022.2.4,120.44706341822024,
10,6,3,2,0.694444444444444,1.0,2,0.027777777777778,1.0,2,0.444444444444444,0.298245614035088,ReadingArea_rsl2-rcl69-esl100-rsm2-rcm2-esm100-rsr2-rcr44-esr29,exr/ReadingArea_rsl2-rcl69-esl100-rsm2-rcm2-esm100-rsr2-rcr44-esr29.exr,ReadingArea_rsl2-rcl69-esl100-rsm2-rcm2-esm100-rsr2-rcr44-esr29.npz,,,,,0,40,40,0,,right,red,0.63,245.20311903953552,245.5224859714508,1,,EB,2,lightness,readingArea,uniform,75,2023-03-12_16h22.39.803,tripletExp_regina_11082022,2022.2.4,120.44706341822024,
2,5,0,2,0.25,0.298245614035088,2,1.0,0.298245614035088,2,0.027777777777778,0.298245614035088,ReadingArea_rsl2-rcl25-esl29-rsm2-rcm100-esm29-rsr2-rcr2-esr29,exr/ReadingArea_rsl2-rcl25-esl29-rsm2-rcm100-esm29-rsr2-rcr2-esr29.exr,ReadingArea_rsl2-rcl25-esl29-rsm2-rcm100-esm29-rsr2-rcr2-esr29.npz,,,,,0,41,41,414,,left,green,0.58,247.2312068939209,247.5788938999176,1,,EB,2,lightness,readingArea,uniform,75,2023-03-12_16h22.39.803,tripletExp_regina_11082022,2022.2.4,120.44706341822024,
0,14,10,2,0.027777777777778,0.298245614035088,2,0.25,3.10526315789474,2,0.694444444444444,1.0,ReadingArea_rsl2-rcl2-esl29-rsm2-rcm25-esm310-rsr2-rcr69-esr100,exr/ReadingArea_rsl2-rcl2-esl29-rsm2-rcm25-esm310-rsr2-rcr69-esr100.exr,ReadingArea_rsl2-rcl2-esl29-rsm2-rcm25-esm310-rsr2-rcr69-esr100.npz,,,,,0,42,42,128,,right,red,0.64,249.2854480743408,249.66095495224,1,,EB,2,lightness,readingArea,uniform,75,2023-03-12_16h22.39.803,tripletExp_regina_11082022,2022.2.4,120.44706341822024,
0,5,7,2,0.027777777777778,0.298245614035088,2,1.0,0.298245614035088,2,0.111111111111111,1.0,ReadingArea_rsl2-rcl2-esl29-rsm2-rcm100-esm29-rsr2-rcr11-esr100,exr/ReadingArea_rsl2-rcl2-esl29-rsm2-rcm100-esm29-rsr2-rcr11-esr100.exr,ReadingArea_rsl2-rcl2-esl29-rsm2-rcm100-esm29-rsr2-rcr11-esr100.npz,,,,,0,43,43,217,,right,red,0.79,251.3520140647888,251.69622707366943,1,,EB,2,lightness,readingArea,uniform,75,2023-03-12_16h22.39.803,tripletExp_regina_11082022,2022.2.4,120.44706341822024,
6,4,10,2,0.027777777777778,1.0,2,0.694444444444444,0.298245614035088,2,0.694444444444444,1.0,ReadingArea_rsl2-rcl2-esl100-rsm2-rcm69-esm29-rsr2-rcr69-esr100,exr/ReadingArea_rsl2-rcl2-esl100-rsm2-rcm69-esm29-rsr2-rcr69-esr100.exr,ReadingArea_rsl2-rcl2-esl100-rsm2-rcm69-esm29-rsr2-rcr69-esr100.npz,,,,,0,44,44,554,,right,red,2.11,255.1737990379333,255.5158700942993,1,,EB,2,lightness,readingArea,uniform,75,2023-03-12_16h22.39.803,tripletExp_regina_11082022,2022.2.4,120.44706341822024,
10,11,4,2,0.694444444444444,1.0,2,1.0,1.0,2,0.694444444444444,0.298245614035088,ReadingArea_rsl2-rcl69-esl100-rsm2-rcm100-esm100-rsr2-rcr69-esr29,exr/ReadingArea_rsl2-rcl69-esl100-rsm2-rcm100-esm100-rsr2-rcr69-esr29.exr,ReadingArea_rsl2-rcl69-esl100-rsm2-rcm100-esm100-rsr2-rcr69-esr29.npz,,,,,0,45,45,239,,left,green,0.74,257.23371291160583,257.5564579963684,1,,EB,2,lightness,readingArea,uniform,75,2023-03-12_16h22.39.803,tripletExp_regina_11082022,2022.2.4,120.44706341822024,
2,4,13,2,0.25,0.298245614035088,2,0.694444444444444,0.298245614035088,2,0.111111111111111,3.10526315789474,ReadingArea_rsl2-rcl25-esl29-rsm2-rcm69-esm29-rsr2-rcr11-esr310,exr/ReadingArea_rsl2-rcl25-esl29-rsm2-rcm69-esm29-rsr2-rcr11-esr310.exr,ReadingArea_rsl2-rcl25-esl29-rsm2-rcm69-esm29-rsr2-rcr11-esr310.npz,,,,,0,46,46,325,,right,red,0.83,259.2474660873413,259.57744693756104,1,,EB,2,lightness,readingArea,uniform,75,2023-03-12_16h22.39.803,tripletExp_regina_11082022,2022.2.4,120.44706341822024,
4,2,9,2,0.694444444444444,0.298245614035088,2,0.25,0.298245614035088,2,0.444444444444444,1.0,ReadingArea_rsl2-rcl69-esl29-rsm2-rcm25-esm29-rsr2-rcr44-esr100,exr/ReadingArea_rsl2-rcl69-esl29-rsm2-rcm25-esm29-rsr2-rcr44-esr100.exr,ReadingArea_rsl2-rcl69-esl29-rsm2-rcm25-esm29-rsr2-rcr44-esr100.npz,,,,,0,47,47,479,,left,green,1.05,261.28311109542847,261.6073679924011,1,,EB,2,lightness,readingArea,uniform,75,2023-03-12_16h22.39.803,tripletExp_regina_11082022,2022.2.4,120.44706341822024,
13,8,5,2,0.111111111111111,3.10526315789474,2,0.25,1.0,2,1.0,0.298245614035088,ReadingArea_rsl2-rcl11-esl310-rsm2-rcm25-esm100-rsr2-rcr100-esr29,exr/ReadingArea_rsl2-rcl11-esl310-rsm2-rcm25-esm100-rsr2-rcr100-esr29.exr,ReadingArea_rsl2-rcl11-esl310-rsm2-rcm25-esm100-rsr2-rcr100-esr29.npz,,,,,0,48,48,209,,left,green,1.23,263.29762411117554,263.64285802841187,1,,EB,2,lightness,readingArea,uniform,75,2023-03-12_16h22.39.803,tripletExp_regina_11082022,2022.2.4,120.44706341822024,
7,10,5,2,0.111111111111111,1.0,2,0.694444444444444,1.0,2,1.0,0.298245614035088,ReadingArea_rsl2-rcl11-esl100-rsm2-rcm69-esm100-rsr2-rcr100-esr29,exr/ReadingArea_rsl2-rcl11-esl100-rsm2-rcm69-esm100-rsr2-rcr100-esr29.exr,ReadingArea_rsl2-rcl11-esl100-rsm2-rcm69-esm100-rsr2-rcr100-esr29.npz,,,,,0,49,49,395,,right,red,0.82,265.35234689712524,265.7198519706726,1,,EB,2,lightness,readingArea,uniform,75,2023-03-12_16h22.39.803,tripletExp_regina_11082022,2022.2.4,120.44706341822024,
14,6,5,2,0.25,3.10526315789474,2,0.027777777777778,1.0,2,1.0,0.298245614035088,ReadingArea_rsl2-rcl25-esl310-rsm2-rcm2-esm100-rsr2-rcr100-esr29,exr/ReadingArea_rsl2-rcl25-esl310-rsm2-rcm2-esm100-rsr2-rcr100-esr29.exr,ReadingArea_rsl2-rcl25-esl310-rsm2-rcm2-esm100-rsr2-rcr100-esr29.npz,,,,,0,50,50,297,,right,red,0.8,267.41480588912964,267.7607219219208,1,,EB,2,lightness,readingArea,uniform,75,2023-03-12_16h22.39.803,tripletExp_regina_11082022,2022.2.4,120.44706341822024,
1,2,12,2,0.111111111111111,0.298245614035088,2,0.25,0.298245614035088,2,0.027777777777778,3.10526315789474,ReadingArea_rsl2-rcl11-esl29-rsm2-rcm25-esm29-rsr2-rcr2-esr310,exr/ReadingArea_rsl2-rcl11-esl29-rsm2-rcm25-esm29-rsr2-rcr2-esr310.exr,ReadingArea_rsl2-rcl11-esl29-rsm2-rcm25-esm29-rsr2-rcr2-esr310.npz,,,,,0,51,51,229,,right,red,1.17,269.4687669277191,269.82611989974976,1,,EB,2,lightness,readingArea,uniform,75,2023-03-12_16h22.39.803,tripletExp_regina_11082022,2022.2.4,120.44706341822024,
12,9,13,2,0.027777777777778,3.10526315789474,2,0.444444444444444,1.0,2,0.111111111111111,3.10526315789474,ReadingArea_rsl2-rcl2-esl310-rsm2-rcm44-esm100-rsr2-rcr11-esr310,exr/ReadingArea_rsl2-rcl2-esl310-rsm2-rcm44-esm100-rsr2-rcr11-esr310.exr,ReadingArea_rsl2-rcl2-esl310-rsm2-rcm44-esm100-rsr2-rcr11-esr310.npz,,,,,0,52,52,529,,right,red,0.85,271.5505170822144,,1,,EB,2,lightness,readingArea,uniform,75,2023-03-12_16h22.39.803,tripletExp_regina_11082022,2022.2.4,120.44706341822024,
5,8,2,2,1.0,0.298245614035088,2,0.25,1.0,2,0.25,0.298245614035088,ReadingArea_rsl2-rcl100-esl29-rsm2-rcm25-esm100-rsr2-rcr25-esr29,exr/ReadingArea_rsl2-rcl100-esl29-rsm2-rcm25-esm100-rsr2-rcr25-esr29.exr,ReadingArea_rsl2-rcl100-esl29-rsm2-rcm25-esm100-rsr2-rcr25-esr29.npz,,,,,0,53,53,65,,left,green,0.93,273.56545305252075,273.9093339443207,1,,EB,2,lightness,readingArea,uniform,75,2023-03-12_16h22.39.803,tripletExp_regina_11082022,2022.2.4,120.44706341822024,
9,11,3,2,0.444444444444444,1.0,2,1.0,1.0,2,0.444444444444444,0.298245614035088,ReadingArea_rsl2-rcl44-esl100-rsm2-rcm100-esm100-rsr2-rcr44-esr29,exr/ReadingArea_rsl2-rcl44-esl100-rsm2-rcm100-esm100-rsr2-rcr44-esr29.exr,ReadingArea_rsl2-rcl44-esl100-rsm2-rcm100-esm100-rsr2-rcr44-esr29.npz,,,,,0,54,54,348,,left,green,0.69,275.6276960372925,275.9526219367981,1,,EB,2,lightness,readingArea,uniform,75,2023-03-12_16h22.39.803,tripletExp_regina_11082022,2022.2.4,120.44706341822024,
1,3,12,2,0.111111111111111,0.298245614035088,2,0.444444444444444,0.298245614035088,2,0.027777777777778,3.10526315789474,ReadingArea_rsl2-rcl11-esl29-rsm2-rcm44-esm29-rsr2-rcr2-esr310,exr/ReadingArea_rsl2-rcl11-esl29-rsm2-rcm44-esm29-rsr2-rcr2-esr310.exr,ReadingArea_rsl2-rcl11-esl29-rsm2-rcm44-esm29-rsr2-rcr2-esr310.npz,,,,,0,55,55,323,,right,red,0.81,277.6622769832611,277.9994900226593,1,,EB,2,lightness,readingArea,uniform,75,2023-03-12_16h22.39.803,tripletExp_regina_11082022,2022.2.4,120.44706341822024,
10,0,11,2,0.694444444444444,1.0,2,0.027777777777778,0.298245614035088,2,1.0,1.0,ReadingArea_rsl2-rcl69-esl100-rsm2-rcm2-esm29-rsr2-rcr100-esr100,exr/ReadingArea_rsl2-rcl69-esl100-rsm2-rcm2-esm29-rsr2-rcr100-esr100.exr,ReadingArea_rsl2-rcl69-esl100-rsm2-rcm2-esm29-rsr2-rcr100-esr100.npz,,,,,0,56,56,573,,left,green,0.92,279.7238049507141,280.0727870464325,1,,EB,2,lightness,readingArea,uniform,75,2023-03-12_16h22.39.803,tripletExp_regina_11082022,2022.2.4,120.44706341822024,
2,11,14,2,0.25,0.298245614035088,2,1.0,1.0,2,0.25,3.10526315789474,ReadingArea_rsl2-rcl25-esl29-rsm2-rcm100-esm100-rsr2-rcr25-esr310,exr/ReadingArea_rsl2-rcl25-esl29-rsm2-rcm100-esm100-rsr2-rcr25-esr310.exr,ReadingArea_rsl2-rcl25-esl29-rsm2-rcm100-esm100-rsr2-rcr25-esr310.npz,,,,,0,57,57,534,,right,red,0.64,281.78584003448486,282.11444211006165,1,,EB,2,lightness,readingArea,uniform,75,2023-03-12_16h22.39.803,tripletExp_regina_11082022,2022.2.4,120.44706341822024,
14,5,10,2,0.25,3.10526315789474,2,1.0,0.298245614035088,2,0.694444444444444,1.0,ReadingArea_rsl2-rcl25-esl310-rsm2-rcm100-esm29-rsr2-rcr69-esr100,exr/ReadingArea_rsl2-rcl25-esl310-rsm2-rcm100-esm29-rsr2-rcr69-esr100.exr,ReadingArea_rsl2-rcl25-esl310-rsm2-rcm100-esm29-rsr2-rcr69-esr100.npz,,,,,0,58,58,170,,left,green,0.79,283.81273102760315,284.1686050891876,1,,EB,2,lightness,readingArea,uniform,75,2023-03-12_16h22.39.803,tripletExp_regina_11082022,2022.2.4,120.44706341822024,
3,8,7,2,0.444444444444444,0.298245614035088,2,0.25,1.0,2,0.111111111111111,1.0,ReadingArea_rsl2-rcl44-esl29-rsm2-rcm25-esm100-rsr2-rcr11-esr100,exr/ReadingArea_rsl2-rcl44-esl29-rsm2-rcm25-esm100-rsr2-rcr11-esr100.exr,ReadingArea_rsl2-rcl44-esl29-rsm2-rcm25-esm100-rsr2-rcr11-esr100.npz,,,,,0,59,59,484,,left,green,1.04,285.8841800689697,286.2268440723419,1,,EB,2,lightness,readingArea,uniform,75,2023-03-12_16h22.39.803,tripletExp_regina_11082022,2022.2.4,120.44706341822024,
1,0,4,2,0.111111111111111,0.298245614035088,2,0.027777777777778,0.298245614035088,2,0.694444444444444,0.298245614035088,ReadingArea_rsl2-rcl11-esl29-rsm2-rcm2-esm29-rsr2-rcr69-esr29,exr/ReadingArea_rsl2-rcl11-esl29-rsm2-rcm2-esm29-rsr2-rcr69-esr29.exr,ReadingArea_rsl2-rcl11-esl29-rsm2-rcm2-esm29-rsr2-rcr69-esr29.npz,,,,,0,60,60,494,,left,green,0.73,287.9388220310211,288.28898787498474,1,,EB,2,lightness,readingArea,uniform,75,2023-03-12_16h22.39.803,tripletExp_regina_11082022,2022.2.4,120.44706341822024,
3,7,9,2,0.444444444444444,0.298245614035088,2,0.111111111111111,1.0,2,0.444444444444444,1.0,ReadingArea_rsl2-rcl44-esl29-rsm2-rcm11-esm100-rsr2-rcr44-esr100,exr/ReadingArea_rsl2-rcl44-esl29-rsm2-rcm11-esm100-rsr2-rcr44-esr100.exr,ReadingArea_rsl2-rcl44-esl29-rsm2-rcm11-esm100-rsr2-rcr44-esr100.npz,,,,,0,61,61,382,,left,green,0.7,290.01163506507874,,1,,EB,2,lightness,readingArea,uniform,75,2023-03-12_16h22.39.803,tripletExp_regina_11082022,2022.2.4,120.44706341822024,
9,0,14,2,0.444444444444444,1.0,2,0.027777777777778,0.298245614035088,2,0.25,3.10526315789474,ReadingArea_rsl2-rcl44-esl100-rsm2-rcm2-esm29-rsr2-rcr25-esr310,exr/ReadingArea_rsl2-rcl44-esl100-rsm2-rcm2-esm29-rsr2-rcr25-esr310.exr,ReadingArea_rsl2-rcl44-esl100-rsm2-rcm2-esm29-rsr2-rcr25-esr310.npz,,,,,0,62,62,550,,left,green,0.86,292.0607490539551,292.3866250514984,1,,EB,2,lightness,readingArea,uniform,75,2023-03-12_16h22.39.803,tripletExp_regina_11082022,2022.2.4,120.44706341822024,
5,3,2,2,1.0,0.298245614035088,2,0.444444444444444,0.298245614035088,2,0.25,0.298245614035088,ReadingArea_rsl2-rcl100-esl29-rsm2-rcm44-esm29-rsr2-rcr25-esr29,exr/ReadingArea_rsl2-rcl100-esl29-rsm2-rcm44-esm29-rsr2-rcr25-esr29.exr,ReadingArea_rsl2-rcl100-esl29-rsm2-rcm44-esm29-rsr2-rcr25-esr29.npz,,,,,0,63,63,143,,right,red,0.9,294.11074805259705,294.4325089454651,1,,EB,2,lightness,readingArea,uniform,75,2023-03-12_16h22.39.803,tripletExp_regina_11082022,2022.2.4,120.44706341822024,
9,8,0,2,0.444444444444444,1.0,2,0.25,1.0,2,0.027777777777778,0.298245614035088,ReadingArea_rsl2-rcl44-esl100-rsm2-rcm25-esm100-rsr2-rcr2-esr29,exr/ReadingArea_rsl2-rcl44-esl100-rsm2-rcm25-esm100-rsr2-rcr2-esr29.exr,ReadingArea_rsl2-rcl44-esl100-rsm2-rcm25-esm100-rsr2-rcr2-esr29.npz,,,,,0,64,64,66,,left,green,0.61,296.147176027298,296.50209307670593,1,,EB,2,lightness,readingArea,uniform,75,2023-03-12_16h22.39.803,tripletExp_regina_11082022,2022.2.4,120.44706341822024,
1,5,14,2,0.111111111111111,0.298245614035088,2,1.0,0.298245614035088,2,0.25,3.10526315789474,ReadingArea_rsl2-rcl11-esl29-rsm2-rcm100-esm29-rsr2-rcr25-esr310,exr/ReadingArea_rsl2-rcl11-esl29-rsm2-rcm100-esm29-rsr2-rcr25-esr310.exr,ReadingArea_rsl2-rcl11-esl29-rsm2-rcm100-esm29-rsr2-rcr25-esr310.npz,,,,,0,65,65,191,,right,red,0.54,298.20715403556824,298.5624918937683,1,,EB,2,lightness,readingArea,uniform,75,2023-03-12_16h22.39.803,tripletExp_regina_11082022,2022.2.4,120.44706341822024,
13,10,11,2,0.111111111111111,3.10526315789474,2,0.694444444444444,1.0,2,1.0,1.0,ReadingArea_rsl2-rcl11-esl310-rsm2-rcm69-esm100-rsr2-rcr100-esr100,exr/ReadingArea_rsl2-rcl11-esl310-rsm2-rcm69-esm100-rsr2-rcr100-esr100.exr,ReadingArea_rsl2-rcl11-esl310-rsm2-rcm69-esm100-rsr2-rcr100-esr100.npz,,,,,0,66,66,320,,right,red,0.72,300.2599880695343,300.58905506134033,1,,EB,2,lightness,readingArea,uniform,75,2023-03-12_16h22.39.803,tripletExp_regina_11082022,2022.2.4,120.44706341822024,
10,11,5,2,0.694444444444444,1.0,2,1.0,1.0,2,1.0,0.298245614035088,ReadingArea_rsl2-rcl69-esl100-rsm2-rcm100-esm100-rsr2-rcr100-esr29,exr/ReadingArea_rsl2-rcl69-esl100-rsm2-rcm100-esm100-rsr2-rcr100-esr29.exr,ReadingArea_rsl2-rcl69-esl100-rsm2-rcm100-esm100-rsr2-rcr100-esr29.npz,,,,,0,67,67,514,,left,green,0.77,302.31060695648193,302.63260889053345,1,,EB,2,lightness,readingArea,uniform,75,2023-03-12_16h22.39.803,tripletExp_regina_11082022,2022.2.4,120.44706341822024,
8,9,13,2,0.25,1.0,2,0.444444444444444,1.0,2,0.111111111111111,3.10526315789474,ReadingArea_rsl2-rcl25-esl100-rsm2-rcm44-esm100-rsr2-rcr11-esr310,exr/ReadingArea_rsl2-rcl25-esl100-rsm2-rcm44-esm100-rsr2-rcr11-esr310.exr,ReadingArea_rsl2-rcl25-esl100-rsm2-rcm44-esm100-rsr2-rcr11-esr310.npz,,,,,0,68,68,519,,right,red,0.78,304.3349950313568,304.6604619026184,1,,EB,2,lightness,readingArea,uniform,75,2023-03-12_16h22.39.803,tripletExp_regina_11082022,2022.2.4,120.44706341822024,
9,6,8,2,0.444444444444444,1.0,2,0.027777777777778,1.0,2,0.25,1.0,ReadingArea_rsl2-rcl44-esl100-rsm2-rcm2-esm100-rsr2-rcr25-esr100,exr/ReadingArea_rsl2-rcl44-esl100-rsm2-rcm2-esm100-rsr2-rcr25-esr100.exr,ReadingArea_rsl2-rcl44-esl100-rsm2-rcm2-esm100-rsr2-rcr25-esr100.npz,,,,,0,69,69,312,,right,red,0.72,306.3729269504547,306.7192120552063,1,,EB,2,lightness,readingArea,uniform,75,2023-03-12_16h22.39.803,tripletExp_regina_11082022,2022.2.4,120.44706341822024,
12,6,14,2,0.027777777777778,3.10526315789474,2,0.027777777777778,1.0,2,0.25,3.10526315789474,ReadingArea_rsl2-rcl2-esl310-rsm2-rcm2-esm100-rsr2-rcr25-esr310,exr/ReadingArea_rsl2-rcl2-esl310-rsm2-rcm2-esm100-rsr2-rcr25-esr310.exr,ReadingArea_rsl2-rcl2-esl310-rsm2-rcm2-esm100-rsr2-rcr25-esr310.npz,,,,,0,70,70,218,,left,green,0.66,308.4359669685364,308.76174092292786,1,,EB,2,lightness,readingArea,uniform,75,2023-03-12_16h22.39.803,tripletExp_regina_11082022,2022.2.4,120.44706341822024,
1,3,4,2,0.111111111111111,0.298245614035088,2,0.444444444444444,0.298245614035088,2,0.694444444444444,0.298245614035088,ReadingArea_rsl2-rcl11-esl29-rsm2-rcm44-esm29-rsr2-rcr69-esr29,exr/ReadingArea_rsl2-rcl11-esl29-rsm2-rcm44-esm29-rsr2-rcr69-esr29.exr,ReadingArea_rsl2-rcl11-esl29-rsm2-rcm44-esm29-rsr2-rcr69-esr29.npz,,,,,0,71,71,153,,right,red,0.6,310.4517319202423,310.80245900154114,1,,EB,2,lightness,readingArea,uniform,75,2023-03-12_16h22.39.803,tripletExp_regina_11082022,2022.2.4,120.44706341822024,
11,7,10,2,1.0,1.0,2,0.111111111111111,1.0,2,0.694444444444444,1.0,ReadingArea_rsl2-rcl100-esl100-rsm2-rcm11-esm100-rsr2-rcr69-esr100,exr/ReadingArea_rsl2-rcl100-esl100-rsm2-rcm11-esm100-rsr2-rcr69-esr100.exr,ReadingArea_rsl2-rcl100-esl100-rsm2-rcm11-esm100-rsr2-rcr69-esr100.npz,,,,,0,72,72,411,,left,green,2.25,314.2504699230194,314.5796558856964,1,,EB,2,lightness,readingArea,uniform,75,2023-03-12_16h22.39.803,tripletExp_regina_11082022,2022.2.4,120.44706341822024,
13,4,0,2,0.111111111111111,3.10526315789474,2,0.694444444444444,0.298245614035088,2,0.027777777777778,0.298245614035088,ReadingArea_rsl2-rcl11-esl310-rsm2-rcm69-esm29-rsr2-rcr2-esr29,exr/ReadingArea_rsl2-rcl11-esl310-rsm2-rcm69-esm29-rsr2-rcr2-esr29.exr,ReadingArea_rsl2-rcl11-esl310-rsm2-rcm69-esm29-rsr2-rcr2-esr29.npz,,,,,0,73,73,269,,left,green,0.76,316.27717304229736,316.62932801246643,1,,EB,2,lightness,readingArea,uniform,75,2023-03-12_16h22.39.803,tripletExp_regina_11082022,2022.2.4,120.44706341822024,
1,5,8,2,0.111111111111111,0.298245614035088,2,1.0,0.298245614035088,2,0.25,1.0,ReadingArea_rsl2-rcl11-esl29-rsm2-rcm100-esm29-rsr2-rcr25-esr100,exr/ReadingArea_rsl2-rcl11-esl29-rsm2-rcm100-esm29-rsr2-rcr25-esr100.exr,ReadingArea_rsl2-rcl11-esl29-rsm2-rcm100-esm29-rsr2-rcr25-esr100.npz,,,,,0,74,74,238,,right,red,0.63,318.3475151062012,318.54792404174805,1,,EB,2,lightness,readingArea,uniform,75,2023-03-12_16h22.39.803,tripletExp_regina_11082022,2022.2.4,120.44706341822024,
7,8,6,2,0.111111111111111,1.0,2,0.25,1.0,2,0.027777777777778,1.0,ReadingArea_rsl2-rcl11-esl100-rsm2-rcm25-esm100-rsr2-rcr2-esr100,exr/ReadingArea_rsl2-rcl11-esl100-rsm2-rcm25-esm100-rsr2-rcr2-esr100.exr,ReadingArea_rsl2-rcl11-esl100-rsm2-rcm25-esm100-rsr2-rcr2-esr100.npz,,,,,0,75,75,387,,left,green,0.91,361.4391970634461,,2,,EB,2,lightness,readingArea,uniform,75,2023-03-12_16h22.39.803,tripletExp_regina_11082022,2022.2.4,120.44706341822024,
12,3,13,2,0.027777777777778,3.10526315789474,2,0.444444444444444,0.298245614035088,2,0.111111111111111,3.10526315789474,ReadingArea_rsl2-rcl2-esl310-rsm2-rcm44-esm29-rsr2-rcr11-esr310,exr/ReadingArea_rsl2-rcl2-esl310-rsm2-rcm44-esm29-rsr2-rcr11-esr310.exr,ReadingArea_rsl2-rcl2-esl310-rsm2-rcm44-esm29-rsr2-rcr11-esr310.npz,,,,,0,76,76,383,,right,red,0.99,363.4881610870361,363.808002948761,2,,EB,2,lightness,readingArea,uniform,75,2023-03-12_16h22.39.803,tripletExp_regina_11082022,2022.2.4,120.44706341822024,
5,14,3,2,1.0,0.298245614035088,2,0.25,3.10526315789474,2,0.444444444444444,0.298245614035088,ReadingArea_rsl2-rcl100-esl29-rsm2-rcm25-esm310-rsr2-rcr44-esr29,exr/ReadingArea_rsl2-rcl100-esl29-rsm2-rcm25-esm310-rsr2-rcr44-esr29.exr,ReadingArea_rsl2-rcl100-esl29-rsm2-rcm25-esm310-rsr2-rcr44-esr29.npz,,,,,0,77,77,93,,left,green,0.88,365.5308229923248,365.85174202919006,2,,EB,2,lightness,readingArea,uniform,75,2023-03-12_16h22.39.803,tripletExp_regina_11082022,2022.2.4,120.44706341822024,
5,9,0,2,1.0,0.298245614035088,2,0.444444444444444,1.0,2,0.027777777777778,0.298245614035088,ReadingArea_rsl2-rcl100-esl29-rsm2-rcm44-esm100-rsr2-rcr2-esr29,exr/ReadingArea_rsl2-rcl100-esl29-rsm2-rcm44-esm100-rsr2-rcr2-esr29.exr,ReadingArea_rsl2-rcl100-esl29-rsm2-rcm44-esm100-rsr2-rcr2-esr29.npz,,,,,0,78,78,575,,left,green,0.62,367.5497798919678,367.8791670799256,2,,EB,2,lightness,readingArea,uniform,75,2023-03-12_16h22.39.803,tripletExp_regina_11082022,2022.2.4,120.44706341822024,
6,2,5,2,0.027777777777778,1.0,2,0.25,0.298245614035088,2,1.0,0.298245614035088,ReadingArea_rsl2-rcl2-esl100-rsm2-rcm25-esm29-rsr2-rcr100-esr29,exr/ReadingArea_rsl2-rcl2-esl100-rsm2-rcm25-esm29-rsr2-rcr100-esr29.exr,ReadingArea_rsl2-rcl2-esl100-rsm2-rcm25-esm29-rsr2-rcr100-esr29.npz,,,,,0,79,79,504,,left,green,0.92,369.5962359905243,369.9486060142517,2,,EB,2,lightness,readingArea,uniform,75,2023-03-12_16h22.39.803,tripletExp_regina_11082022,2022.2.4,120.44706341822024,
6,13,8,2,0.027777777777778,1.0,2,0.111111111111111,3.10526315789474,2,0.25,1.0,ReadingArea_rsl2-rcl2-esl100-rsm2-rcm11-esm310-rsr2-rcr25-esr100,exr/ReadingArea_rsl2-rcl2-esl100-rsm2-rcm11-esm310-rsr2-rcr25-esr100.exr,ReadingArea_rsl2-rcl2-esl100-rsm2-rcm11-esm310-rsr2-rcr25-esr100.npz,,,,,0,80,80,535,,right,red,0.58,371.66358494758606,372.01061606407166,2,,EB,2,lightness,readingArea,uniform,75,2023-03-12_16h22.39.803,tripletExp_regina_11082022,2022.2.4,120.44706341822024,
12,7,1,2,0.027777777777778,3.10526315789474,2,0.111111111111111,1.0,2,0.111111111111111,0.298245614035088,ReadingArea_rsl2-rcl2-esl310-rsm2-rcm11-esm100-rsr2-rcr11-esr29,exr/ReadingArea_rsl2-rcl2-esl310-rsm2-rcm11-esm100-rsr2-rcr11-esr29.exr,ReadingArea_rsl2-rcl2-esl310-rsm2-rcm11-esm100-rsr2-rcr11-esr29.npz,,,,,0,81,81,264,,left,green,0.97,373.7119810581207,374.060616016388,2,,EB,2,lightness,readingArea,uniform,75,2023-03-12_16h22.39.803,tripletExp_regina_11082022,2022.2.4,120.44706341822024,
8,14,3,2,0.25,1.0,2,0.25,3.10526315789474,2,0.444444444444444,0.298245614035088,ReadingArea_rsl2-rcl25-esl100-rsm2-rcm25-esm310-rsr2-rcr44-esr29,exr/ReadingArea_rsl2-rcl25-esl100-rsm2-rcm25-esm310-rsr2-rcr44-esr29.exr,ReadingArea_rsl2-rcl25-esl100-rsm2-rcm25-esm310-rsr2-rcr44-esr29.npz,,,,,0,82,82,503,,left,green,0.87,375.7520389556885,376.13311791419983,2,,EB,2,lightness,readingArea,uniform,75,2023-03-12_16h22.39.803,tripletExp_regina_11082022,2022.2.4,120.44706341822024,
4,1,13,2,0.694444444444444,0.298245614035088,2,0.111111111111111,0.298245614035088,2,0.111111111111111,3.10526315789474,ReadingArea_rsl2-rcl69-esl29-rsm2-rcm11-esm29-rsr2-rcr11-esr310,exr/ReadingArea_rsl2-rcl69-esl29-rsm2-rcm11-esm29-rsr2-rcr11-esr310.exr,ReadingArea_rsl2-rcl69-esl29-rsm2-rcm11-esm29-rsr2-rcr11-esr310.npz,,,,,0,83,83,565,,left,green,0.76,377.8570039272308,378.17790699005127,2,,EB,2,lightness,readingArea,uniform,75,2023-03-12_16h22.39.803,tripletExp_regina_11082022,2022.2.4,120.44706341822024,
7,14,10,2,0.111111111111111,1.0,2,0.25,3.10526315789474,2,0.694444444444444,1.0,ReadingArea_rsl2-rcl11-esl100-rsm2-rcm25-esm310-rsr2-rcr69-esr100,exr/ReadingArea_rsl2-rcl11-esl100-rsm2-rcm25-esm310-rsr2-rcr69-esr100.exr,ReadingArea_rsl2-rcl11-esl100-rsm2-rcm25-esm310-rsr2-rcr69-esr100.npz,,,,,0,84,84,472,,right,red,0.71,379.8872489929199,380.2635259628296,2,,EB,2,lightness,readingArea,uniform,75,2023-03-12_16h22.39.803,tripletExp_regina_11082022,2022.2.4,120.44706341822024,
2,6,13,2,0.25,0.298245614035088,2,0.027777777777778,1.0,2,0.111111111111111,3.10526315789474,ReadingArea_rsl2-rcl25-esl29-rsm2-rcm2-esm100-rsr2-rcr11-esr310,exr/ReadingArea_rsl2-rcl25-esl29-rsm2-rcm2-esm100-rsr2-rcr11-esr310.exr,ReadingArea_rsl2-rcl25-esl29-rsm2-rcm2-esm100-rsr2-rcr11-esr310.npz,,,,,0,85,85,388,,left,green,0.6,381.97131609916687,382.32075905799866,2,,EB,2,lightness,readingArea,uniform,75,2023-03-12_16h22.39.803,tripletExp_regina_11082022,2022.2.4,120.44706341822024,
12,1,2,2,0.027777777777778,3.10526315789474,2,0.111111111111111,0.298245614035088,2,0.25,0.298245614035088,ReadingArea_rsl2-rcl2-esl310-rsm2-rcm11-esm29-rsr2-rcr25-esr29,exr/ReadingArea_rsl2-rcl2-esl310-rsm2-rcm11-esm29-rsr2-rcr25-esr29.exr,ReadingArea_rsl2-rcl2-esl310-rsm2-rcm11-esm29-rsr2-rcr25-esr29.npz,,,,,0,86,86,231,,right,red,0.6,384.0254499912262,384.3467071056366,2,,EB,2,lightness,readingArea,uniform,75,2023-03-12_16h22.39.803,tripletExp_regina_11082022,2022.2.4,120.44706341822024,
14,12,5,2,0.25,3.10526315789474,2,0.027777777777778,3.10526315789474,2,1.0,0.298245614035088,ReadingArea_rsl2-rcl25-esl310-rsm2-rcm2-esm310-rsr2-rcr100-esr29,exr/ReadingArea_rsl2-rcl25-esl310-rsm2-rcm2-esm310-rsr2-rcr100-esr29.exr,ReadingArea_rsl2-rcl25-esl310-rsm2-rcm2-esm310-rsr2-rcr100-esr29.npz,,,,,0,87,87,335,,right,red,1.28,386.0426580905914,386.3632049560547,2,,EB,2,lightness,readingArea,uniform,75,2023-03-12_16h22.39.803,tripletExp_regina_11082022,2022.2.4,120.44706341822024,
5,4,10,2,1.0,0.298245614035088,2,0.694444444444444,0.298245614035088,2,0.694444444444444,1.0,ReadingArea_rsl2-rcl100-esl29-rsm2-rcm69-esm29-rsr2-rcr69-esr100,exr/ReadingArea_rsl2-rcl100-esl29-rsm2-rcm69-esm29-rsr2-rcr69-esr100.exr,ReadingArea_rsl2-rcl100-esl29-rsm2-rcm69-esm29-rsr2-rcr69-esr100.npz,,,,,0,88,88,536,,left,green,1.0,388.07267904281616,388.40692496299744,2,,EB,2,lightness,readingArea,uniform,75,2023-03-12_16h22.39.803,tripletExp_regina_11082022,2022.2.4,120.44706341822024,
10,2,0,2,0.694444444444444,1.0,2,0.25,0.298245614035088,2,0.027777777777778,0.298245614035088,ReadingArea_rsl2-rcl69-esl100-rsm2-rcm25-esm29-rsr2-rcr2-esr29,exr/ReadingArea_rsl2-rcl69-esl100-rsm2-rcm25-esm29-rsr2-rcr2-esr29.exr,ReadingArea_rsl2-rcl69-esl100-rsm2-rcm25-esm29-rsr2-rcr2-esr29.npz,,,,,0,89,89,427,,right,red,0.77,390.1031410694122,390.4564599990845,2,,EB,2,lightness,readingArea,uniform,75,2023-03-12_16h22.39.803,tripletExp_regina_11082022,2022.2.4,120.44706341822024,
3,0,4,2,0.444444444444444,0.298245614035088,2,0.027777777777778,0.298245614035088,2,0.694444444444444,0.298245614035088,ReadingArea_rsl2-rcl44-esl29-rsm2-rcm2-esm29-rsr2-rcr69-esr29,exr/ReadingArea_rsl2-rcl44-esl29-rsm2-rcm2-esm29-rsr2-rcr69-esr29.exr,ReadingArea_rsl2-rcl44-esl29-rsm2-rcm2-esm29-rsr2-rcr69-esr29.npz,,,,,0,90,90,111,,left,green,0.7,392.17747592926025,,2,,EB,2,lightness,readingArea,uniform,75,2023-03-12_16h22.39.803,tripletExp_regina_11082022,2022.2.4,120.44706341822024,
7,12,3,2,0.111111111111111,1.0,2,0.027777777777778,3.10526315789474,2,0.444444444444444,0.298245614035088,ReadingArea_rsl2-rcl11-esl100-rsm2-rcm2-esm310-rsr2-rcr44-esr29,exr/ReadingArea_rsl2-rcl11-esl100-rsm2-rcm2-esm310-rsr2-rcr44-esr29.exr,ReadingArea_rsl2-rcl11-esl100-rsm2-rcm2-esm310-rsr2-rcr44-esr29.npz,,,,,0,91,91,584,,left,green,3.92,397.7690529823303,398.12150502204895,2,,EB,2,lightness,readingArea,uniform,75,2023-03-12_16h22.39.803,tripletExp_regina_11082022,2022.2.4,120.44706341822024,
2,8,4,2,0.25,0.298245614035088,2,0.25,1.0,2,0.694444444444444,0.298245614035088,ReadingArea_rsl2-rcl25-esl29-rsm2-rcm25-esm100-rsr2-rcr69-esr29,exr/ReadingArea_rsl2-rcl25-esl29-rsm2-rcm25-esm100-rsr2-rcr69-esr29.exr,ReadingArea_rsl2-rcl25-esl29-rsm2-rcm25-esm100-rsr2-rcr69-esr29.npz,,,,,0,92,92,507,,right,red,0.74,399.81703996658325,400.1670060157776,2,,EB,2,lightness,readingArea,uniform,75,2023-03-12_16h22.39.803,tripletExp_regina_11082022,2022.2.4,120.44706341822024,
13,4,7,2,0.111111111111111,3.10526315789474,2,0.694444444444444,0.298245614035088,2,0.111111111111111,1.0,ReadingArea_rsl2-rcl11-esl310-rsm2-rcm69-esm29-rsr2-rcr11-esr100,exr/ReadingArea_rsl2-rcl11-esl310-rsm2-rcm69-esm29-rsr2-rcr11-esr100.exr,ReadingArea_rsl2-rcl11-esl310-rsm2-rcm69-esm29-rsr2-rcr11-esr100.npz,,,,,0,93,93,282,,left,green,0.91,401.8568658828736,402.20863604545593,2,,EB,2,lightness,readingArea,uniform,75,2023-03-12_16h22.39.803,tripletExp_regina_11082022,2022.2.4,120.44706341822024,
10,14,13,2,0.694444444444444,1.0,2,0.25,3.10526315789474,2,0.111111111111111,3.10526315789474,ReadingArea_rsl2-rcl69-esl100-rsm2-rcm25-esm310-rsr2-rcr11-esr310,exr/ReadingArea_rsl2-rcl69-esl100-rsm2-rcm25-esm310-rsr2-rcr11-esr310.exr,ReadingArea_rsl2-rcl69-esl100-rsm2-rcm25-esm310-rsr2-rcr11-esr310.npz,,,,,0,94,94,168,,left,green,0.79,403.9226610660553,404.3199520111084,2,,EB,2,lightness,readingArea,uniform,75,2023-03-12_16h22.39.803,tripletExp_regina_11082022,2022.2.4,120.44706341822024,
2,3,6,2,0.25,0.298245614035088,2,0.444444444444444,0.298245614035088,2,0.027777777777778,1.0,ReadingArea_rsl2-rcl25-esl29-rsm2-rcm44-esm29-rsr2-rcr2-esr100,exr/ReadingArea_rsl2-rcl25-esl29-rsm2-rcm44-esm29-rsr2-rcr2-esr100.exr,ReadingArea_rsl2-rcl25-esl29-rsm2-rcm44-esm29-rsr2-rcr2-esr100.npz,,,,,0,95,95,357,,left,green,0.97,406.01970410346985,406.3697059154511,2,,EB,2,lightness,readingArea,uniform,75,2023-03-12_16h22.39.803,tripletExp_regina_11082022,2022.2.4,120.44706341822024,
9,6,13,2,0.444444444444444,1.0,2,0.027777777777778,1.0,2,0.111111111111111,3.10526315789474,ReadingArea_rsl2-rcl44-esl100-rsm2-rcm2-esm100-rsr2-rcr11-esr310,exr/ReadingArea_rsl2-rcl44-esl100-rsm2-rcm2-esm100-rsr2-rcr11-esr310.exr,ReadingArea_rsl2-rcl44-esl100-rsm2-rcm2-esm100-rsr2-rcr11-esr310.npz,,,,,0,96,96,285,,right,red,0.9,408.0767979621887,408.4023969173432,2,,EB,2,lightness,readingArea,uniform,75,2023-03-12_16h22.39.803,tripletExp_regina_11082022,2022.2.4,120.44706341822024,
14,0,6,2,0.25,3.10526315789474,2,0.027777777777778,0.298245614035088,2,0.027777777777778,1.0,ReadingArea_rsl2-rcl25-esl310-rsm2-rcm2-esm29-rsr2-rcr2-esr100,exr/ReadingArea_rsl2-rcl25-esl310-rsm2-rcm2-esm29-rsr2-rcr2-esr100.exr,ReadingArea_rsl2-rcl25-esl310-rsm2-rcm2-esm29-rsr2-rcr2-esr100.npz,,,,,0,97,97,496,,right,red,0.72,410.1257839202881,410.47894406318665,2,,EB,2,lightness,readingArea,uniform,75,2023-03-12_16h22.39.803,tripletExp_regina_11082022,2022.2.4,120.44706341822024,
0,7,13,2,0.027777777777778,0.298245614035088,2,0.111111111111111,1.0,2,0.111111111111111,3.10526315789474,ReadingArea_rsl2-rcl2-esl29-rsm2-rcm11-esm100-rsr2-rcr11-esr310,exr/ReadingArea_rsl2-rcl2-esl29-rsm2-rcm11-esm100-rsr2-rcr11-esr310.exr,ReadingArea_rsl2-rcl2-esl29-rsm2-rcm11-esm100-rsr2-rcr11-esr310.npz,,,,,0,98,98,159,,right,red,0.9,412.1841928958893,412.5119791030884,2,,EB,2,lightness,readingArea,uniform,75,2023-03-12_16h22.39.803,tripletExp_regina_11082022,2022.2.4,120.44706341822024,
0,8,12,2,0.027777777777778,0.298245614035088,2,0.25,1.0,2,0.027777777777778,3.10526315789474,ReadingArea_rsl2-rcl2-esl29-rsm2-rcm25-esm100-rsr2-rcr2-esr310,exr/ReadingArea_rsl2-rcl2-esl29-rsm2-rcm25-esm100-rsr2-rcr2-esr310.exr,ReadingArea_rsl2-rcl2-esl29-rsm2-rcm25-esm100-rsr2-rcr2-esr310.npz,,,,,0,99,99,314,,right,red,0.75,414.2100520133972,414.5639801025391,2,,EB,2,lightness,readingArea,uniform,75,2023-03-12_16h22.39.803,tripletExp_regina_11082022,2022.2.4,120.44706341822024,
1,13,14,2,0.111111111111111,0.298245614035088,2,0.111111111111111,3.10526315789474,2,0.25,3.10526315789474,ReadingArea_rsl2-rcl11-esl29-rsm2-rcm11-esm310-rsr2-rcr25-esr310,exr/ReadingArea_rsl2-rcl11-esl29-rsm2-rcm11-esm310-rsr2-rcr25-esr310.exr,ReadingArea_rsl2-rcl11-esl29-rsm2-rcm11-esm310-rsr2-rcr25-esr310.npz,,,,,0,100,100,183,,right,red,4.24,419.8004379272461,420.1283779144287,2,,EB,2,lightness,readingArea,uniform,75,2023-03-12_16h22.39.803,tripletExp_regina_11082022,2022.2.4,120.44706341822024,
1,12,6,2,0.111111111111111,0.298245614035088,2,0.027777777777778,3.10526315789474,2,0.027777777777778,1.0,ReadingArea_rsl2-rcl11-esl29-rsm2-rcm2-esm310-rsr2-rcr2-esr100,exr/ReadingArea_rsl2-rcl11-esl29-rsm2-rcm2-esm310-rsr2-rcr2-esr100.exr,ReadingArea_rsl2-rcl11-esl29-rsm2-rcm2-esm310-rsr2-rcr2-esr100.npz,,,,,0,101,101,277,,left,green,2.06,423.57881593704224,423.9048099517822,2,,EB,2,lightness,readingArea,uniform,75,2023-03-12_16h22.39.803,tripletExp_regina_11082022,2022.2.4,120.44706341822024,
5,13,7,2,1.0,0.298245614035088,2,0.111111111111111,3.10526315789474,2,0.111111111111111,1.0,ReadingArea_rsl2-rcl100-esl29-rsm2-rcm11-esm310-rsr2-rcr11-esr100,exr/ReadingArea_rsl2-rcl100-esl29-rsm2-rcm11-esm310-rsr2-rcr11-esr100.exr,ReadingArea_rsl2-rcl100-esl29-rsm2-rcm11-esm310-rsr2-rcr11-esr100.npz,,,,,0,102,102,189,,left,green,0.56,425.6159589290619,,2,,EB,2,lightness,readingArea,uniform,75,2023-03-12_16h22.39.803,tripletExp_regina_11082022,2022.2.4,120.44706341822024,
7,4,2,2,0.111111111111111,1.0,2,0.694444444444444,0.298245614035088,2,0.25,0.298245614035088,ReadingArea_rsl2-rcl11-esl100-rsm2-rcm69-esm29-rsr2-rcr25-esr29,exr/ReadingArea_rsl2-rcl11-esl100-rsm2-rcm69-esm29-rsr2-rcr25-esr29.exr,ReadingArea_rsl2-rcl11-esl100-rsm2-rcm69-esm29-rsr2-rcr25-esr29.npz,,,,,0,103,103,146,,left,green,0.9,427.67107605934143,427.99771904945374,2,,EB,2,lightness,readingArea,uniform,75,2023-03-12_16h22.39.803,tripletExp_regina_11082022,2022.2.4,120.44706341822024,
9,4,14,2,0.444444444444444,1.0,2,0.694444444444444,0.298245614035088,2,0.25,3.10526315789474,ReadingArea_rsl2-rcl44-esl100-rsm2-rcm69-esm29-rsr2-rcr25-esr310,exr/ReadingArea_rsl2-rcl44-esl100-rsm2-rcm69-esm29-rsr2-rcr25-esr310.exr,ReadingArea_rsl2-rcl44-esl100-rsm2-rcm69-esm29-rsr2-rcr25-esr310.npz,,,,,0,104,104,104,,left,green,1.07,429.7021698951721,430.0757160186768,2,,EB,2,lightness,readingArea,uniform,75,2023-03-12_16h22.39.803,tripletExp_regina_11082022,2022.2.4,120.44706341822024,
12,8,9,2,0.027777777777778,3.10526315789474,2,0.25,1.0,2,0.444444444444444,1.0,ReadingArea_rsl2-rcl2-esl310-rsm2-rcm25-esm100-rsr2-rcr44-esr100,exr/ReadingArea_rsl2-rcl2-esl310-rsm2-rcm25-esm100-rsr2-rcr44-esr100.exr,ReadingArea_rsl2-rcl2-esl310-rsm2-rcm25-esm100-rsr2-rcr44-esr100.npz,,,,,0,105,105,517,,right,red,0.85,431.7658069133759,432.0888469219208,2,,EB,2,lightness,readingArea,uniform,75,2023-03-12_16h22.39.803,tripletExp_regina_11082022,2022.2.4,120.44706341822024,
0,8,3,2,0.027777777777778,0.298245614035088,2,0.25,1.0,2,0.444444444444444,0.298245614035088,ReadingArea_rsl2-rcl2-esl29-rsm2-rcm25-esm100-rsr2-rcr44-esr29,exr/ReadingArea_rsl2-rcl2-esl29-rsm2-rcm25-esm100-rsr2-rcr44-esr29.exr,ReadingArea_rsl2-rcl2-esl29-rsm2-rcm25-esm100-rsr2-rcr44-esr29.npz,,,,,0,106,106,301,,right,red,0.76,433.78401708602905,,2,,EB,2,lightness,readingArea,uniform,75,2023-03-12_16h22.39.803,tripletExp_regina_11082022,2022.2.4,120.44706341822024,
12,8,3,2,0.027777777777778,3.10526315789474,2,0.25,1.0,2,0.444444444444444,0.298245614035088,ReadingArea_rsl2-rcl2-esl310-rsm2-rcm25-esm100-rsr2-rcr44-esr29,exr/ReadingArea_rsl2-rcl2-esl310-rsm2-rcm25-esm100-rsr2-rcr44-esr29.exr,ReadingArea_rsl2-rcl2-esl310-rsm2-rcm25-esm100-rsr2-rcr44-esr29.npz,,,,,0,107,107,386,,left,green,2.66,437.58274006843567,437.9234490394592,2,,EB,2,lightness,readingArea,uniform,75,2023-03-12_16h22.39.803,tripletExp_regina_11082022,2022.2.4,120.44706341822024,
6,12,7,2,0.027777777777778,1.0,2,0.027777777777778,3.10526315789474,2,0.111111111111111,1.0,ReadingArea_rsl2-rcl2-esl100-rsm2-rcm2-esm310-rsr2-rcr11-esr100,exr/ReadingArea_rsl2-rcl2-esl100-rsm2-rcm2-esm310-rsr2-rcr11-esr100.exr,ReadingArea_rsl2-rcl2-esl100-rsm2-rcm2-esm310-rsr2-rcr11-esr100.npz,,,,,0,108,108,157,,right,red,0.86,439.6311891078949,439.9700410366058,2,,EB,2,lightness,readingArea,uniform,75,2023-03-12_16h22.39.803,tripletExp_regina_11082022,2022.2.4,120.44706341822024,
4,8,3,2,0.694444444444444,0.298245614035088,2,0.25,1.0,2,0.444444444444444,0.298245614035088,ReadingArea_rsl2-rcl69-esl29-rsm2-rcm25-esm100-rsr2-rcr44-esr29,exr/ReadingArea_rsl2-rcl69-esl29-rsm2-rcm25-esm100-rsr2-rcr44-esr29.exr,ReadingArea_rsl2-rcl69-esl29-rsm2-rcm25-esm100-rsr2-rcr44-esr29.npz,,,,,0,109,109,292,,left,green,0.79,441.69100999832153,442.0478410720825,2,,EB,2,lightness,readingArea,uniform,75,2023-03-12_16h22.39.803,tripletExp_regina_11082022,2022.2.4,120.44706341822024,
0,14,11,2,0.027777777777778,0.298245614035088,2,0.25,3.10526315789474,2,1.0,1.0,ReadingArea_rsl2-rcl2-esl29-rsm2-rcm25-esm310-rsr2-rcr100-esr100,exr/ReadingArea_rsl2-rcl2-esl29-rsm2-rcm25-esm310-rsr2-rcr100-esr100.exr,ReadingArea_rsl2-rcl2-esl29-rsm2-rcm25-esm310-rsr2-rcr100-esr100.npz,,,,,0,110,110,557,,right,red,0.77,443.7560451030731,444.1054229736328,2,,EB,2,lightness,readingArea,uniform,75,2023-03-12_16h22.39.803,tripletExp_regina_11082022,2022.2.4,120.44706341822024,
9,3,14,2,0.444444444444444,1.0,2,0.444444444444444,0.298245614035088,2,0.25,3.10526315789474,ReadingArea_rsl2-rcl44-esl100-rsm2-rcm44-esm29-rsr2-rcr25-esr310,exr/ReadingArea_rsl2-rcl44-esl100-rsm2-rcm44-esm29-rsr2-rcr25-esr310.exr,ReadingArea_rsl2-rcl44-esl100-rsm2-rcm44-esm29-rsr2-rcr25-esr310.npz,,,,,0,111,111,17,,left,green,0.91,445.8223459720612,446.1810660362244,2,,EB,2,lightness,readingArea,uniform,75,2023-03-12_16h22.39.803,tripletExp_regina_11082022,2022.2.4,120.44706341822024,
2,0,3,2,0.25,0.298245614035088,2,0.027777777777778,0.298245614035088,2,0.444444444444444,0.298245614035088,ReadingArea_rsl2-rcl25-esl29-rsm2-rcm2-esm29-rsr2-rcr44-esr29,exr/ReadingArea_rsl2-rcl25-esl29-rsm2-rcm2-esm29-rsr2-rcr44-esr29.exr,ReadingArea_rsl2-rcl25-esl29-rsm2-rcm2-esm29-rsr2-rcr44-esr29.npz,,,,,0,112,112,338,,left,green,1.0,447.8922910690308,448.2436110973358,2,,EB,2,lightness,readingArea,uniform,75,2023-03-12_16h22.39.803,tripletExp_regina_11082022,2022.2.4,120.44706341822024,
8,1,6,2,0.25,1.0,2,0.111111111111111,0.298245614035088,2,0.027777777777778,1.0,ReadingArea_rsl2-rcl25-esl100-rsm2-rcm11-esm29-rsr2-rcr2-esr100,exr/ReadingArea_rsl2-rcl25-esl100-rsm2-rcm11-esm29-rsr2-rcr2-esr100.exr,ReadingArea_rsl2-rcl25-esl100-rsm2-rcm11-esm29-rsr2-rcr2-esr100.npz,,,,,0,113,113,62,,right,red,1.16,449.9469881057739,450.3029329776764,2,,EB,2,lightness,readingArea,uniform,75,2023-03-12_16h22.39.803,tripletExp_regina_11082022,2022.2.4,120.44706341822024,
12,13,7,2,0.027777777777778,3.10526315789474,2,0.111111111111111,3.10526315789474,2,0.111111111111111,1.0,ReadingArea_rsl2-rcl2-esl310-rsm2-rcm11-esm310-rsr2-rcr11-esr100,exr/ReadingArea_rsl2-rcl2-esl310-rsm2-rcm11-esm310-rsr2-rcr11-esr100.exr,ReadingArea_rsl2-rcl2-esl310-rsm2-rcm11-esm310-rsr2-rcr11-esr100.npz,,,,,0,114,114,408,,left,green,4.37,455.52151107788086,455.8750488758087,2,,EB,2,lightness,readingArea,uniform,75,2023-03-12_16h22.39.803,tripletExp_regina_11082022,2022.2.4,120.44706341822024,
8,12,3,2,0.25,1.0,2,0.027777777777778,3.10526315789474,2,0.444444444444444,0.298245614035088,ReadingArea_rsl2-rcl25-esl100-rsm2-rcm2-esm310-rsr2-rcr44-esr29,exr/ReadingArea_rsl2-rcl25-esl100-rsm2-rcm2-esm310-rsr2-rcr44-esr29.exr,ReadingArea_rsl2-rcl25-esl100-rsm2-rcm2-esm310-rsr2-rcr44-esr29.npz,,,,,0,115,115,6,,right,red,0.72,457.586697101593,457.9392800331116,2,,EB,2,lightness,readingArea,uniform,75,2023-03-12_16h22.39.803,tripletExp_regina_11082022,2022.2.4,120.44706341822024,
7,9,5,2,0.111111111111111,1.0,2,0.444444444444444,1.0,2,1.0,0.298245614035088,ReadingArea_rsl2-rcl11-esl100-rsm2-rcm44-esm100-rsr2-rcr100-esr29,exr/ReadingArea_rsl2-rcl11-esl100-rsm2-rcm44-esm100-rsr2-rcr100-esr29.exr,ReadingArea_rsl2-rcl11-esl100-rsm2-rcm44-esm100-rsr2-rcr100-esr29.npz,,,,,0,116,116,291,,right,red,0.63,459.6537880897522,460.0038499832153,2,,EB,2,lightness,readingArea,uniform,75,2023-03-12_16h22.39.803,tripletExp_regina_11082022,2022.2.4,120.44706341822024,
2,5,3,2,0.25,0.298245614035088,2,1.0,0.298245614035088,2,0.444444444444444,0.298245614035088,ReadingArea_rsl2-rcl25-esl29-rsm2-rcm100-esm29-rsr2-rcr44-esr29,exr/ReadingArea_rsl2-rcl25-esl29-rsm2-rcm100-esm29-rsr2-rcr44-esr29.exr,ReadingArea_rsl2-rcl25-esl29-rsm2-rcm100-esm29-rsr2-rcr44-esr29.npz,,,,,0,117,117,135,,right,red,0.9,461.7194540500641,462.0628690719605,2,,EB,2,lightness,readingArea,uniform,75,2023-03-12_16h22.39.803,tripletExp_regina_11082022,2022.2.4,120.44706341822024,
4,7,5,2,0.694444444444444,0.298245614035088,2,0.111111111111111,1.0,2,1.0,0.298245614035088,ReadingArea_rsl2-rcl69-esl29-rsm2-rcm11-esm100-rsr2-rcr100-esr29,exr/ReadingArea_rsl2-rcl69-esl29-rsm2-rcm11-esm100-rsr2-rcr100-esr29.exr,ReadingArea_rsl2-rcl69-esl29-rsm2-rcm11-esm100-rsr2-rcr100-esr29.npz,,,,,0,118,118,195,,left,green,0.83,463.7565519809723,464.0931439399719,2,,EB,2,lightness,readingArea,uniform,75,2023-03-12_16h22.39.803,tripletExp_regina_11082022,2022.2.4,120.44706341822024,
14,10,9,2,0.25,3.10526315789474,2,0.694444444444444,1.0,2,0.444444444444444,1.0,ReadingArea_rsl2-rcl25-esl310-rsm2-rcm69-esm100-rsr2-rcr44-esr100,exr/ReadingArea_rsl2-rcl25-esl310-rsm2-rcm69-esm100-rsr2-rcr44-esr100.exr,ReadingArea_rsl2-rcl25-esl310-rsm2-rcm69-esm100-rsr2-rcr44-esr100.npz,,,,,0,119,119,402,,right,red,1.02,465.8128340244293,466.1607229709625,2,,EB,2,lightness,readingArea,uniform,75,2023-03-12_16h22.39.803,tripletExp_regina_11082022,2022.2.4,120.44706341822024,
4,6,3,2,0.694444444444444,0.298245614035088,2,0.027777777777778,1.0,2,0.444444444444444,0.298245614035088,ReadingArea_rsl2-rcl69-esl29-rsm2-rcm2-esm100-rsr2-rcr44-esr29,exr/ReadingArea_rsl2-rcl69-esl29-rsm2-rcm2-esm100-rsr2-rcr44-esr29.exr,ReadingArea_rsl2-rcl69-esl29-rsm2-rcm2-esm100-rsr2-rcr44-esr29.npz,,,,,0,120,120,344,,right,red,2.23,469.66230392456055,470.0063750743866,2,,EB,2,lightness,readingArea,uniform,75,2023-03-12_16h22.39.803,tripletExp_regina_11082022,2022.2.4,120.44706341822024,
14,12,10,2,0.25,3.10526315789474,2,0.027777777777778,3.10526315789474,2,0.694444444444444,1.0,ReadingArea_rsl2-rcl25-esl310-rsm2-rcm2-esm310-rsr2-rcr69-esr100,exr/ReadingArea_rsl2-rcl25-esl310-rsm2-rcm2-esm310-rsr2-rcr69-esr100.exr,ReadingArea_rsl2-rcl25-esl310-rsm2-rcm2-esm310-rsr2-rcr69-esr100.npz,,,,,0,121,121,331,,left,green,1.32,471.69558000564575,472.0208179950714,2,,EB,2,lightness,readingArea,uniform,75,2023-03-12_16h22.39.803,tripletExp_regina_11082022,2022.2.4,120.44706341822024,
0,12,7,2,0.027777777777778,0.298245614035088,2,0.027777777777778,3.10526315789474,2,0.111111111111111,1.0,ReadingArea_rsl2-rcl2-esl29-rsm2-rcm2-esm310-rsr2-rcr11-esr100,exr/ReadingArea_rsl2-rcl2-esl29-rsm2-rcm2-esm310-rsr2-rcr11-esr100.exr,ReadingArea_rsl2-rcl2-esl29-rsm2-rcm2-esm310-rsr2-rcr11-esr100.npz,,,,,0,122,122,481,,right,red,0.85,473.7136878967285,474.0555930137634,2,,EB,2,lightness,readingArea,uniform,75,2023-03-12_16h22.39.803,tripletExp_regina_11082022,2022.2.4,120.44706341822024,
11,14,2,2,1.0,1.0,2,0.25,3.10526315789474,2,0.25,0.298245614035088,ReadingArea_rsl2-rcl100-esl100-rsm2-rcm25-esm310-rsr2-rcr25-esr29,exr/ReadingArea_rsl2-rcl100-esl100-rsm2-rcm25-esm310-rsr2-rcr25-esr29.exr,ReadingArea_rsl2-rcl100-esl100-rsm2-rcm25-esm310-rsr2-rcr25-esr29.npz,,,,,0,123,123,419,,left,green,0.72,475.7804069519043,476.127937078476,2,,EB,2,lightness,readingArea,uniform,75,2023-03-12_16h22.39.803,tripletExp_regina_11082022,2022.2.4,120.44706341822024,
6,1,2,2,0.027777777777778,1.0,2,0.111111111111111,0.298245614035088,2,0.25,0.298245614035088,ReadingArea_rsl2-rcl2-esl100-rsm2-rcm11-esm29-rsr2-rcr25-esr29,exr/ReadingArea_rsl2-rcl2-esl100-rsm2-rcm11-esm29-rsr2-rcr25-esr29.exr,ReadingArea_rsl2-rcl2-esl100-rsm2-rcm11-esm29-rsr2-rcr25-esr29.npz,,,,,0,124,124,68,,right,red,0.91,477.8186709880829,478.15307688713074,2,,EB,2,lightness,readingArea,uniform,75,2023-03-12_16h22.39.803,tripletExp_regina_11082022,2022.2.4,120.44706341822024,
0,9,10,2,0.027777777777778,0.298245614035088,2,0.444444444444444,1.0,2,0.694444444444444,1.0,ReadingArea_rsl2-rcl2-esl29-rsm2-rcm44-esm100-rsr2-rcr69-esr100,exr/ReadingArea_rsl2-rcl2-esl29-rsm2-rcm44-esm100-rsr2-rcr69-esr100.exr,ReadingArea_rsl2-rcl2-esl29-rsm2-rcm44-esm100-rsr2-rcr69-esr100.npz,,,,,0,125,125,434,,right,red,0.59,479.8746180534363,,2,,EB,2,lightness,readingArea,uniform,75,2023-03-12_16h22.39.803,tripletExp_regina_11082022,2022.2.4,120.44706341822024,
13,11,10,2,0.111111111111111,3.10526315789474,2,1.0,1.0,2,0.694444444444444,1.0,ReadingArea_rsl2-rcl11-esl310-rsm2-rcm100-esm100-rsr2-rcr69-esr100,exr/ReadingArea_rsl2-rcl11-esl310-rsm2-rcm100-esm100-rsr2-rcr69-esr100.exr,ReadingArea_rsl2-rcl11-esl310-rsm2-rcm100-esm100-rsr2-rcr69-esr100.npz,,,,,0,126,126,577,,right,red,1.05,481.96659302711487,,2,,EB,2,lightness,readingArea,uniform,75,2023-03-12_16h22.39.803,tripletExp_regina_11082022,2022.2.4,120.44706341822024,
13,1,7,2,0.111111111111111,3.10526315789474,2,0.111111111111111,0.298245614035088,2,0.111111111111111,1.0,ReadingArea_rsl2-rcl11-esl310-rsm2-rcm11-esm29-rsr2-rcr11-esr100,exr/ReadingArea_rsl2-rcl11-esl310-rsm2-rcm11-esm29-rsr2-rcr11-esr100.exr,ReadingArea_rsl2-rcl11-esl310-rsm2-rcm11-esm29-rsr2-rcr11-esr100.npz,,,,,0,127,127,206,,right,red,0.81,484.0253748893738,,2,,EB,2,lightness,readingArea,uniform,75,2023-03-12_16h22.39.803,tripletExp_regina_11082022,2022.2.4,120.44706341822024,
13,3,5,2,0.111111111111111,3.10526315789474,2,0.444444444444444,0.298245614035088,2,1.0,0.298245614035088,ReadingArea_rsl2-rcl11-esl310-rsm2-rcm44-esm29-rsr2-rcr100-esr29,exr/ReadingArea_rsl2-rcl11-esl310-rsm2-rcm44-esm29-rsr2-rcr100-esr29.exr,ReadingArea_rsl2-rcl11-esl310-rsm2-rcm44-esm29-rsr2-rcr100-esr29.npz,,,,,0,128,128,398,,left,green,4.69,489.6243619918823,489.95134806633,2,,EB,2,lightness,readingArea,uniform,75,2023-03-12_16h22.39.803,tripletExp_regina_11082022,2022.2.4,120.44706341822024,
14,8,3,2,0.25,3.10526315789474,2,0.25,1.0,2,0.444444444444444,0.298245614035088,ReadingArea_rsl2-rcl25-esl310-rsm2-rcm25-esm100-rsr2-rcr44-esr29,exr/ReadingArea_rsl2-rcl25-esl310-rsm2-rcm25-esm100-rsr2-rcr44-esr29.exr,ReadingArea_rsl2-rcl25-esl310-rsm2-rcm25-esm100-rsr2-rcr44-esr29.npz,,,,,0,129,129,100,,right,red,1.15,491.663379907608,491.9959220886231,2,,EB,2,lightness,readingArea,uniform,75,2023-03-12_16h22.39.803,tripletExp_regina_11082022,2022.2.4,120.44706341822024,
7,12,0,2,0.111111111111111,1.0,2,0.027777777777778,3.10526315789474,2,0.027777777777778,0.298245614035088,ReadingArea_rsl2-rcl11-esl100-rsm2-rcm2-esm310-rsr2-rcr2-esr29,exr/ReadingArea_rsl2-rcl11-esl100-rsm2-rcm2-esm310-rsr2-rcr2-esr29.exr,ReadingArea_rsl2-rcl11-esl100-rsm2-rcm2-esm310-rsr2-rcr2-esr29.npz,,,,,0,130,130,425,,left,green,0.89,493.7203569412232,494.052542924881,2,,EB,2,lightness,readingArea,uniform,75,2023-03-12_16h22.39.803,tripletExp_regina_11082022,2022.2.4,120.44706341822024,
2,3,4,2,0.25,0.298245614035088,2,0.444444444444444,0.298245614035088,2,0.694444444444444,0.298245614035088,ReadingArea_rsl2-rcl25-esl29-rsm2-rcm44-esm29-rsr2-rcr69-esr29,exr/ReadingArea_rsl2-rcl25-esl29-rsm2-rcm44-esm29-rsr2-rcr69-esr29.exr,ReadingArea_rsl2-rcl25-esl29-rsm2-rcm44-esm29-rsr2-rcr69-esr29.npz,,,,,0,131,131,61,,right,red,0.85,495.7728319168091,496.1266961097717,2,,EB,2,lightness,readingArea,uniform,75,2023-03-12_16h22.39.803,tripletExp_regina_11082022,2022.2.4,120.44706341822024,
12,6,2,2,0.027777777777778,3.10526315789474,2,0.027777777777778,1.0,2,0.25,0.298245614035088,ReadingArea_rsl2-rcl2-esl310-rsm2-rcm2-esm100-rsr2-rcr25-esr29,exr/ReadingArea_rsl2-rcl2-esl310-rsm2-rcm2-esm100-rsr2-rcr25-esr29.exr,ReadingArea_rsl2-rcl2-esl310-rsm2-rcm2-esm100-rsr2-rcr25-esr29.npz,,,,,0,132,132,106,,right,red,0.85,497.8466908931732,498.1764419078827,2,,EB,2,lightness,readingArea,uniform,75,2023-03-12_16h22.39.803,tripletExp_regina_11082022,2022.2.4,120.44706341822024,
14,13,0,2,0.25,3.10526315789474,2,0.111111111111111,3.10526315789474,2,0.027777777777778,0.298245614035088,ReadingArea_rsl2-rcl25-esl310-rsm2-rcm11-esm310-rsr2-rcr2-esr29,exr/ReadingArea_rsl2-rcl25-esl310-rsm2-rcm11-esm310-rsr2-rcr2-esr29.exr,ReadingArea_rsl2-rcl25-esl310-rsm2-rcm11-esm310-rsr2-rcr2-esr29.npz,,,,,0,133,133,417,,left,green,2.25,501.6525979042053,,2,,EB,2,lightness,readingArea,uniform,75,2023-03-12_16h22.39.803,tripletExp_regina_11082022,2022.2.4,120.44706341822024,
4,0,3,2,0.694444444444444,0.298245614035088,2,0.027777777777778,0.298245614035088,2,0.444444444444444,0.298245614035088,ReadingArea_rsl2-rcl69-esl29-rsm2-rcm2-esm29-rsr2-rcr44-esr29,exr/ReadingArea_rsl2-rcl69-esl29-rsm2-rcm2-esm29-rsr2-rcr44-esr29.exr,ReadingArea_rsl2-rcl69-esl29-rsm2-rcm2-esm29-rsr2-rcr44-esr29.npz,,,,,0,134,134,88,,left,green,0.91,503.6779170036316,,2,,EB,2,lightness,readingArea,uniform,75,2023-03-12_16h22.39.803,tripletExp_regina_11082022,2022.2.4,120.44706341822024,
8,9,2,2,0.25,1.0,2,0.444444444444444,1.0,2,0.25,0.298245614035088,ReadingArea_rsl2-rcl25-esl100-rsm2-rcm44-esm100-rsr2-rcr25-esr29,exr/ReadingArea_rsl2-rcl25-esl100-rsm2-rcm44-esm100-rsr2-rcr25-esr29.exr,ReadingArea_rsl2-rcl25-esl100-rsm2-rcm44-esm100-rsr2-rcr25-esr29.npz,,,,,0,135,135,559,,left,green,0.69,505.7222969532013,506.0629799365997,2,,EB,2,lightness,readingArea,uniform,75,2023-03-12_16h22.39.803,tripletExp_regina_11082022,2022.2.4,120.44706341822024,
3,4,5,2,0.444444444444444,0.298245614035088,2,0.694444444444444,0.298245614035088,2,1.0,0.298245614035088,ReadingArea_rsl2-rcl44-esl29-rsm2-rcm69-esm29-rsr2-rcr100-esr29,exr/ReadingArea_rsl2-rcl44-esl29-rsm2-rcm69-esm29-rsr2-rcr100-esr29.exr,ReadingArea_rsl2-rcl44-esl29-rsm2-rcm69-esm29-rsr2-rcr100-esr29.npz,,,,,0,136,136,233,,left,green,0.76,507.786514043808,508.1398830413818,2,,EB,2,lightness,readingArea,uniform,75,2023-03-12_16h22.39.803,tripletExp_regina_11082022,2022.2.4,120.44706341822024,
11,2,4,2,1.0,1.0,2,0.25,0.298245614035088,2,0.694444444444444,0.298245614035088,ReadingArea_rsl2-rcl100-esl100-rsm2-rcm25-esm29-rsr2-rcr69-esr29,exr/ReadingArea_rsl2-rcl100-esl100-rsm2-rcm25-esm29-rsr2-rcr69-esr29.exr,ReadingArea_rsl2-rcl100-esl100-rsm2-rcm25-esm29-rsr2-rcr69-esr29.npz,,,,,0,137,137,359,,right,red,0.6,509.8540649414063,,2,,EB,2,lightness,readingArea,uniform,75,2023-03-12_16h22.39.803,tripletExp_regina_11082022,2022.2.4,120.44706341822024,
11,8,2,2,1.0,1.0,2,0.25,1.0,2,0.25,0.298245614035088,ReadingArea_rsl2-rcl100-esl100-rsm2-rcm25-esm100-rsr2-rcr25-esr29,exr/ReadingArea_rsl2-rcl100-esl100-rsm2-rcm25-esm100-rsr2-rcr25-esr29.exr,ReadingArea_rsl2-rcl100-esl100-rsm2-rcm25-esm100-rsr2-rcr25-esr29.npz,,,,,0,138,138,406,,right,red,1.01,511.9222500324249,512.2787640094757,2,,EB,2,lightness,readingArea,uniform,75,2023-03-12_16h22.39.803,tripletExp_regina_11082022,2022.2.4,120.44706341822024,
12,3,10,2,0.027777777777778,3.10526315789474,2,0.444444444444444,0.298245614035088,2,0.694444444444444,1.0,ReadingArea_rsl2-rcl2-esl310-rsm2-rcm44-esm29-rsr2-rcr69-esr100,exr/ReadingArea_rsl2-rcl2-esl310-rsm2-rcm44-esm29-rsr2-rcr69-esr100.exr,ReadingArea_rsl2-rcl2-esl310-rsm2-rcm44-esm29-rsr2-rcr69-esr100.npz,,,,,0,139,139,437,,left,green,0.71,513.9730250835419,514.3309650421143,2,,EB,2,lightness,readingArea,uniform,75,2023-03-12_16h22.39.803,tripletExp_regina_11082022,2022.2.4,120.44706341822024,
9,11,5,2,0.444444444444444,1.0,2,1.0,1.0,2,1.0,0.298245614035088,ReadingArea_rsl2-rcl44-esl100-rsm2-rcm100-esm100-rsr2-rcr100-esr29,exr/ReadingArea_rsl2-rcl44-esl100-rsm2-rcm100-esm100-rsr2-rcr100-esr29.exr,ReadingArea_rsl2-rcl44-esl100-rsm2-rcm100-esm100-rsr2-rcr100-esr29.npz,,,,,0,140,140,142,,left,green,2.98,517.7849938869476,518.1136689186096,2,,EB,2,lightness,readingArea,uniform,75,2023-03-12_16h22.39.803,tripletExp_regina_11082022,2022.2.4,120.44706341822024,
1,14,0,2,0.111111111111111,0.298245614035088,2,0.25,3.10526315789474,2,0.027777777777778,0.298245614035088,ReadingArea_rsl2-rcl11-esl29-rsm2-rcm25-esm310-rsr2-rcr2-esr29,exr/ReadingArea_rsl2-rcl11-esl29-rsm2-rcm25-esm310-rsr2-rcr2-esr29.exr,ReadingArea_rsl2-rcl11-esl29-rsm2-rcm25-esm310-rsr2-rcr2-esr29.npz,,,,,0,141,141,394,,left,green,2.57,521.6180078983307,521.9499559402466,2,,EB,2,lightness,readingArea,uniform,75,2023-03-12_16h22.39.803,tripletExp_regina_11082022,2022.2.4,120.44706341822024,
5,8,3,2,1.0,0.298245614035088,2,0.25,1.0,2,0.444444444444444,0.298245614035088,ReadingArea_rsl2-rcl100-esl29-rsm2-rcm25-esm100-rsr2-rcr44-esr29,exr/ReadingArea_rsl2-rcl100-esl29-rsm2-rcm25-esm100-rsr2-rcr44-esr29.exr,ReadingArea_rsl2-rcl100-esl29-rsm2-rcm25-esm100-rsr2-rcr44-esr29.npz,,,,,0,142,142,556,,right,red,0.91,523.6609768867493,524.0212399959564,2,,EB,2,lightness,readingArea,uniform,75,2023-03-12_16h22.39.803,tripletExp_regina_11082022,2022.2.4,120.44706341822024,
14,8,9,2,0.25,3.10526315789474,2,0.25,1.0,2,0.444444444444444,1.0,ReadingArea_rsl2-rcl25-esl310-rsm2-rcm25-esm100-rsr2-rcr44-esr100,exr/ReadingArea_rsl2-rcl25-esl310-rsm2-rcm25-esm100-rsr2-rcr44-esr100.exr,ReadingArea_rsl2-rcl25-esl310-rsm2-rcm25-esm100-rsr2-rcr44-esr100.npz,,,,,0,143,143,518,,right,red,0.97,525.7358129024506,526.067097902298,2,,EB,2,lightness,readingArea,uniform,75,2023-03-12_16h22.39.803,tripletExp_regina_11082022,2022.2.4,120.44706341822024,
9,12,6,2,0.444444444444444,1.0,2,0.027777777777778,3.10526315789474,2,0.027777777777778,1.0,ReadingArea_rsl2-rcl44-esl100-rsm2-rcm2-esm310-rsr2-rcr2-esr100,exr/ReadingArea_rsl2-rcl44-esl100-rsm2-rcm2-esm310-rsr2-rcr2-esr100.exr,ReadingArea_rsl2-rcl44-esl100-rsm2-rcm2-esm310-rsr2-rcr2-esr100.npz,,,,,0,144,144,5,,right,red,2.11,529.5428528785706,529.8754580020905,2,,EB,2,lightness,readingArea,uniform,75,2023-03-12_16h22.39.803,tripletExp_regina_11082022,2022.2.4,120.44706341822024,
5,0,11,2,1.0,0.298245614035088,2,0.027777777777778,0.298245614035088,2,1.0,1.0,ReadingArea_rsl2-rcl100-esl29-rsm2-rcm2-esm29-rsr2-rcr100-esr100,exr/ReadingArea_rsl2-rcl100-esl29-rsm2-rcm2-esm29-rsr2-rcr100-esr100.exr,ReadingArea_rsl2-rcl100-esl29-rsm2-rcm2-esm29-rsr2-rcr100-esr100.npz,,,,,0,145,145,547,,left,green,0.94,531.5713000297546,531.9241600036621,2,,EB,2,lightness,readingArea,uniform,75,2023-03-12_16h22.39.803,tripletExp_regina_11082022,2022.2.4,120.44706341822024,
6,11,3,2,0.027777777777778,1.0,2,1.0,1.0,2,0.444444444444444,0.298245614035088,ReadingArea_rsl2-rcl2-esl100-rsm2-rcm100-esm100-rsr2-rcr44-esr29,exr/ReadingArea_rsl2-rcl2-esl100-rsm2-rcm100-esm100-rsr2-rcr44-esr29.exr,ReadingArea_rsl2-rcl2-esl100-rsm2-rcm100-esm100-rsr2-rcr44-esr29.npz,,,,,0,146,146,11,,right,red,2.08,535.3802869319916,535.7341499328613,2,,EB,2,lightness,readingArea,uniform,75,2023-03-12_16h22.39.803,tripletExp_regina_11082022,2022.2.4,120.44706341822024,
3,1,0,2,0.444444444444444,0.298245614035088,2,0.111111111111111,0.298245614035088,2,0.027777777777778,0.298245614035088,ReadingArea_rsl2-rcl44-esl29-rsm2-rcm11-esm29-rsr2-rcr2-esr29,exr/ReadingArea_rsl2-rcl44-esl29-rsm2-rcm11-esm29-rsr2-rcr2-esr29.exr,ReadingArea_rsl2-rcl44-esl29-rsm2-rcm11-esm29-rsr2-rcr2-esr29.npz,,,,,0,147,147,343,,left,green,2.34,539.1969459056854,539.5964419841766,2,,EB,2,lightness,readingArea,uniform,75,2023-03-12_16h22.39.803,tripletExp_regina_11082022,2022.2.4,120.44706341822024,
2,11,7,2,0.25,0.298245614035088,2,1.0,1.0,2,0.111111111111111,1.0,ReadingArea_rsl2-rcl25-esl29-rsm2-rcm100-esm100-rsr2-rcr11-esr100,exr/ReadingArea_rsl2-rcl25-esl29-rsm2-rcm100-esm100-rsr2-rcr11-esr100.exr,ReadingArea_rsl2-rcl25-esl29-rsm2-rcm100-esm100-rsr2-rcr11-esr100.npz,,,,,0,148,148,576,,right,red,0.72,541.2856359481812,541.6460809707642,2,,EB,2,lightness,readingArea,uniform,75,2023-03-12_16h22.39.803,tripletExp_regina_11082022,2022.2.4,120.44706341822024,
7,4,1,2,0.111111111111111,1.0,2,0.694444444444444,0.298245614035088,2,0.111111111111111,0.298245614035088,ReadingArea_rsl2-rcl11-esl100-rsm2-rcm69-esm29-rsr2-rcr11-esr29,exr/ReadingArea_rsl2-rcl11-esl100-rsm2-rcm69-esm29-rsr2-rcr11-esr29.exr,ReadingArea_rsl2-rcl11-esl100-rsm2-rcm69-esm29-rsr2-rcr11-esr29.npz,,,,,0,149,149,369,,left,green,0.87,543.3625860214233,543.5665318965912,2,,EB,2,lightness,readingArea,uniform,75,2023-03-12_16h22.39.803,tripletExp_regina_11082022,2022.2.4,120.44706341822024,
8,6,0,2,0.25,1.0,2,0.027777777777778,1.0,2,0.027777777777778,0.298245614035088,ReadingArea_rsl2-rcl25-esl100-rsm2-rcm2-esm100-rsr2-rcr2-esr29,exr/ReadingArea_rsl2-rcl25-esl100-rsm2-rcm2-esm100-rsr2-rcr2-esr29.exr,ReadingArea_rsl2-rcl25-esl100-rsm2-rcm2-esm100-rsr2-rcr2-esr29.npz,,,,,0,150,150,187,,right,red,1.08,571.702644109726,572.0359139442444,3,,EB,2,lightness,readingArea,uniform,75,2023-03-12_16h22.39.803,tripletExp_regina_11082022,2022.2.4,120.44706341822024,
7,1,9,2,0.111111111111111,1.0,2,0.111111111111111,0.298245614035088,2,0.444444444444444,1.0,ReadingArea_rsl2-rcl11-esl100-rsm2-rcm11-esm29-rsr2-rcr44-esr100,exr/ReadingArea_rsl2-rcl11-esl100-rsm2-rcm11-esm29-rsr2-rcr44-esr100.exr,ReadingArea_rsl2-rcl11-esl100-rsm2-rcm11-esm29-rsr2-rcr44-esr100.npz,,,,,0,151,151,89,,left,green,0.57,573.7310419082642,,3,,EB,2,lightness,readingArea,uniform,75,2023-03-12_16h22.39.803,tripletExp_regina_11082022,2022.2.4,120.44706341822024,
3,4,0,2,0.444444444444444,0.298245614035088,2,0.694444444444444,0.298245614035088,2,0.027777777777778,0.298245614035088,ReadingArea_rsl2-rcl44-esl29-rsm2-rcm69-esm29-rsr2-rcr2-esr29,exr/ReadingArea_rsl2-rcl44-esl29-rsm2-rcm69-esm29-rsr2-rcr2-esr29.exr,ReadingArea_rsl2-rcl44-esl29-rsm2-rcm69-esm29-rsr2-rcr2-esr29.npz,,,,,0,152,152,130,,left,green,0.65,575.7941789627075,576.1500039100647,3,,EB,2,lightness,readingArea,uniform,75,2023-03-12_16h22.39.803,tripletExp_regina_11082022,2022.2.4,120.44706341822024,
12,5,4,2,0.027777777777778,3.10526315789474,2,1.0,0.298245614035088,2,0.694444444444444,0.298245614035088,ReadingArea_rsl2-rcl2-esl310-rsm2-rcm100-esm29-rsr2-rcr69-esr29,exr/ReadingArea_rsl2-rcl2-esl310-rsm2-rcm100-esm29-rsr2-rcr69-esr29.exr,ReadingArea_rsl2-rcl2-esl310-rsm2-rcm100-esm29-rsr2-rcr69-esr29.npz,,,,,0,153,153,566,,right,red,0.57,577.8552479743958,578.1822640895844,3,,EB,2,lightness,readingArea,uniform,75,2023-03-12_16h22.39.803,tripletExp_regina_11082022,2022.2.4,120.44706341822024,
2,8,7,2,0.25,0.298245614035088,2,0.25,1.0,2,0.111111111111111,1.0,ReadingArea_rsl2-rcl25-esl29-rsm2-rcm25-esm100-rsr2-rcr11-esr100,exr/ReadingArea_rsl2-rcl25-esl29-rsm2-rcm25-esm100-rsr2-rcr11-esr100.exr,ReadingArea_rsl2-rcl25-esl29-rsm2-rcm25-esm100-rsr2-rcr11-esr100.npz,,,,,0,154,154,393,,right,red,0.68,579.889585018158,580.243185043335,3,,EB,2,lightness,readingArea,uniform,75,2023-03-12_16h22.39.803,tripletExp_regina_11082022,2022.2.4,120.44706341822024,
12,10,9,2,0.027777777777778,3.10526315789474,2,0.694444444444444,1.0,2,0.444444444444444,1.0,ReadingArea_rsl2-rcl2-esl310-rsm2-rcm69-esm100-rsr2-rcr44-esr100,exr/ReadingArea_rsl2-rcl2-esl310-rsm2-rcm69-esm100-rsr2-rcr44-esr100.exr,ReadingArea_rsl2-rcl2-esl310-rsm2-rcm69-esm100-rsr2-rcr44-esr100.npz,,,,,0,155,155,126,,right,red,0.57,581.9629271030426,582.3060369491577,3,,EB,2,lightness,readingArea,uniform,75,2023-03-12_16h22.39.803,tripletExp_regina_11082022,2022.2.4,120.44706341822024,
3,11,14,2,0.444444444444444,0.298245614035088,2,1.0,1.0,2,0.25,3.10526315789474,ReadingArea_rsl2-rcl44-esl29-rsm2-rcm100-esm100-rsr2-rcr25-esr310,exr/ReadingArea_rsl2-rcl44-esl29-rsm2-rcm100-esm100-rsr2-rcr25-esr310.exr,ReadingArea_rsl2-rcl44-esl29-rsm2-rcm100-esm100-rsr2-rcr25-esr310.npz,,,,,0,156,156,570,,right,red,0.53,584.0082399845123,584.3613650798798,3,,EB,2,lightness,readingArea,uniform,75,2023-03-12_16h22.39.803,tripletExp_regina_11082022,2022.2.4,120.44706341822024,
9,0,8,2,0.444444444444444,1.0,2,0.027777777777778,0.298245614035088,2,0.25,1.0,ReadingArea_rsl2-rcl44-esl100-rsm2-rcm2-esm29-rsr2-rcr25-esr100,exr/ReadingArea_rsl2-rcl44-esl100-rsm2-rcm2-esm29-rsr2-rcr25-esr100.exr,ReadingArea_rsl2-rcl44-esl100-rsm2-rcm2-esm29-rsr2-rcr25-esr100.npz,,,,,0,157,157,27,,right,red,0.86,586.0859980583191,586.4327149391174,3,,EB,2,lightness,readingArea,uniform,75,2023-03-12_16h22.39.803,tripletExp_regina_11082022,2022.2.4,120.44706341822024,
4,5,8,2,0.694444444444444,0.298245614035088,2,1.0,0.298245614035088,2,0.25,1.0,ReadingArea_rsl2-rcl69-esl29-rsm2-rcm100-esm29-rsr2-rcr25-esr100,exr/ReadingArea_rsl2-rcl69-esl29-rsm2-rcm100-esm29-rsr2-rcr25-esr100.exr,ReadingArea_rsl2-rcl69-esl29-rsm2-rcm100-esm29-rsr2-rcr25-esr100.npz,,,,,0,158,158,54,,right,red,0.77,588.126049041748,588.4613790512085,3,,EB,2,lightness,readingArea,uniform,75,2023-03-12_16h22.39.803,tripletExp_regina_11082022,2022.2.4,120.44706341822024,
11,5,2,2,1.0,1.0,2,1.0,0.298245614035088,2,0.25,0.298245614035088,ReadingArea_rsl2-rcl100-esl100-rsm2-rcm100-esm29-rsr2-rcr25-esr29,exr/ReadingArea_rsl2-rcl100-esl100-rsm2-rcm100-esm29-rsr2-rcr25-esr29.exr,ReadingArea_rsl2-rcl100-esl100-rsm2-rcm100-esm29-rsr2-rcr25-esr29.npz,,,,,0,159,159,596,,left,green,2.62,591.9287989139557,592.2918739318848,3,,EB,2,lightness,readingArea,uniform,75,2023-03-12_16h22.39.803,tripletExp_regina_11082022,2022.2.4,120.44706341822024,
8,2,0,2,0.25,1.0,2,0.25,0.298245614035088,2,0.027777777777778,0.298245614035088,ReadingArea_rsl2-rcl25-esl100-rsm2-rcm25-esm29-rsr2-rcr2-esr29,exr/ReadingArea_rsl2-rcl25-esl100-rsm2-rcm25-esm29-rsr2-rcr2-esr29.exr,ReadingArea_rsl2-rcl25-esl100-rsm2-rcm25-esm29-rsr2-rcr2-esr29.npz,,,,,0,160,160,574,,left,green,0.87,593.9909069538116,594.3200759887695,3,,EB,2,lightness,readingArea,uniform,75,2023-03-12_16h22.39.803,tripletExp_regina_11082022,2022.2.4,120.44706341822024,
5,10,0,2,1.0,0.298245614035088,2,0.694444444444444,1.0,2,0.027777777777778,0.298245614035088,ReadingArea_rsl2-rcl100-esl29-rsm2-rcm69-esm100-rsr2-rcr2-esr29,exr/ReadingArea_rsl2-rcl100-esl29-rsm2-rcm69-esm100-rsr2-rcr2-esr29.exr,ReadingArea_rsl2-rcl100-esl29-rsm2-rcm69-esm100-rsr2-rcr2-esr29.npz,,,,,0,161,161,293,,left,green,0.5,596.0114459991455,596.3596029281616,3,,EB,2,lightness,readingArea,uniform,75,2023-03-12_16h22.39.803,tripletExp_regina_11082022,2022.2.4,120.44706341822024,
3,14,4,2,0.444444444444444,0.298245614035088,2,0.25,3.10526315789474,2,0.694444444444444,0.298245614035088,ReadingArea_rsl2-rcl44-esl29-rsm2-rcm25-esm310-rsr2-rcr69-esr29,exr/ReadingArea_rsl2-rcl44-esl29-rsm2-rcm25-esm310-rsr2-rcr69-esr29.exr,ReadingArea_rsl2-rcl44-esl29-rsm2-rcm25-esm310-rsr2-rcr69-esr29.npz,,,,,0,162,162,537,,right,red,0.5,598.050183057785,598.4052770137787,3,,EB,2,lightness,readingArea,uniform,75,2023-03-12_16h22.39.803,tripletExp_regina_11082022,2022.2.4,120.44706341822024,
13,10,9,2,0.111111111111111,3.10526315789474,2,0.694444444444444,1.0,2,0.444444444444444,1.0,ReadingArea_rsl2-rcl11-esl310-rsm2-rcm69-esm100-rsr2-rcr44-esr100,exr/ReadingArea_rsl2-rcl11-esl310-rsm2-rcm69-esm100-rsr2-rcr44-esr100.exr,ReadingArea_rsl2-rcl11-esl310-rsm2-rcm69-esm100-rsr2-rcr44-esr100.npz,,,,,0,163,163,330,,right,red,0.63,600.127935886383,600.4880809783936,3,,EB,2,lightness,readingArea,uniform,75,2023-03-12_16h22.39.803,tripletExp_regina_11082022,2022.2.4,120.44706341822024,
0,5,6,2,0.027777777777778,0.298245614035088,2,1.0,0.298245614035088,2,0.027777777777778,1.0,ReadingArea_rsl2-rcl2-esl29-rsm2-rcm100-esm29-rsr2-rcr2-esr100,exr/ReadingArea_rsl2-rcl2-esl29-rsm2-rcm100-esm29-rsr2-rcr2-esr100.exr,ReadingArea_rsl2-rcl2-esl29-rsm2-rcm100-esm29-rsr2-rcr2-esr100.npz,,,,,0,164,164,374,,right,red,2.0,603.9868838787079,604.3472509384155,3,,EB,2,lightness,readingArea,uniform,75,2023-03-12_16h22.39.803,tripletExp_regina_11082022,2022.2.4,120.44706341822024,
11,13,1,2,1.0,1.0,2,0.111111111111111,3.10526315789474,2,0.111111111111111,0.298245614035088,ReadingArea_rsl2-rcl100-esl100-rsm2-rcm11-esm310-rsr2-rcr11-esr29,exr/ReadingArea_rsl2-rcl100-esl100-rsm2-rcm11-esm310-rsr2-rcr11-esr29.exr,ReadingArea_rsl2-rcl100-esl100-rsm2-rcm11-esm310-rsr2-rcr11-esr29.npz,,,,,0,165,165,185,,left,green,0.87,606.0582609176636,606.414458990097,3,,EB,2,lightness,readingArea,uniform,75,2023-03-12_16h22.39.803,tripletExp_regina_11082022,2022.2.4,120.44706341822024,
2,6,10,2,0.25,0.298245614035088,2,0.027777777777778,1.0,2,0.694444444444444,1.0,ReadingArea_rsl2-rcl25-esl29-rsm2-rcm2-esm100-rsr2-rcr69-esr100,exr/ReadingArea_rsl2-rcl25-esl29-rsm2-rcm2-esm100-rsr2-rcr69-esr100.exr,ReadingArea_rsl2-rcl25-esl29-rsm2-rcm2-esm100-rsr2-rcr69-esr100.npz,,,,,0,166,166,42,,left,green,0.55,608.1196689605713,,3,,EB,2,lightness,readingArea,uniform,75,2023-03-12_16h22.39.803,tripletExp_regina_11082022,2022.2.4,120.44706341822024,
6,11,7,2,0.027777777777778,1.0,2,1.0,1.0,2,0.111111111111111,1.0,ReadingArea_rsl2-rcl2-esl100-rsm2-rcm100-esm100-rsr2-rcr11-esr100,exr/ReadingArea_rsl2-rcl2-esl100-rsm2-rcm100-esm100-rsr2-rcr11-esr100.exr,ReadingArea_rsl2-rcl2-esl100-rsm2-rcm100-esm100-rsr2-rcr11-esr100.npz,,,,,0,167,167,571,,right,red,0.64,610.1511409282684,610.501030921936,3,,EB,2,lightness,readingArea,uniform,75,2023-03-12_16h22.39.803,tripletExp_regina_11082022,2022.2.4,120.44706341822024,
4,7,1,2,0.694444444444444,0.298245614035088,2,0.111111111111111,1.0,2,0.111111111111111,0.298245614035088,ReadingArea_rsl2-rcl69-esl29-rsm2-rcm11-esm100-rsr2-rcr11-esr29,exr/ReadingArea_rsl2-rcl69-esl29-rsm2-rcm11-esm100-rsr2-rcr11-esr29.exr,ReadingArea_rsl2-rcl69-esl29-rsm2-rcm11-esm100-rsr2-rcr11-esr29.npz,,,,,0,168,168,33,,left,green,2.06,613.9574840068817,614.291827917099,3,,EB,2,lightness,readingArea,uniform,75,2023-03-12_16h22.39.803,tripletExp_regina_11082022,2022.2.4,120.44706341822024,
4,10,9,2,0.694444444444444,0.298245614035088,2,0.694444444444444,1.0,2,0.444444444444444,1.0,ReadingArea_rsl2-rcl69-esl29-rsm2-rcm69-esm100-rsr2-rcr44-esr100,exr/ReadingArea_rsl2-rcl69-esl29-rsm2-rcm69-esm100-rsr2-rcr44-esr100.exr,ReadingArea_rsl2-rcl69-esl29-rsm2-rcm69-esm100-rsr2-rcr44-esr100.npz,,,,,0,169,169,516,,right,red,0.6,615.9932520389557,616.327066898346,3,,EB,2,lightness,readingArea,uniform,75,2023-03-12_16h22.39.803,tripletExp_regina_11082022,2022.2.4,120.44706341822024,
14,11,4,2,0.25,3.10526315789474,2,1.0,1.0,2,0.694444444444444,0.298245614035088,ReadingArea_rsl2-rcl25-esl310-rsm2-rcm100-esm100-rsr2-rcr69-esr29,exr/ReadingArea_rsl2-rcl25-esl310-rsm2-rcm100-esm100-rsr2-rcr69-esr29.exr,ReadingArea_rsl2-rcl25-esl310-rsm2-rcm100-esm100-rsr2-rcr69-esr29.npz,,,,,0,170,170,370,,left,green,0.92,618.0238299369812,618.3802609443665,3,,EB,2,lightness,readingArea,uniform,75,2023-03-12_16h22.39.803,tripletExp_regina_11082022,2022.2.4,120.44706341822024,
13,3,12,2,0.111111111111111,3.10526315789474,2,0.444444444444444,0.298245614035088,2,0.027777777777778,3.10526315789474,ReadingArea_rsl2-rcl11-esl310-rsm2-rcm44-esm29-rsr2-rcr2-esr310,exr/ReadingArea_rsl2-rcl11-esl310-rsm2-rcm44-esm29-rsr2-rcr2-esr310.exr,ReadingArea_rsl2-rcl11-esl310-rsm2-rcm44-esm29-rsr2-rcr2-esr310.npz,,,,,0,171,171,80,,right,red,2.29,621.8505709171295,622.1851980686188,3,,EB,2,lightness,readingArea,uniform,75,2023-03-12_16h22.39.803,tripletExp_regina_11082022,2022.2.4,120.44706341822024,
11,9,4,2,1.0,1.0,2,0.444444444444444,1.0,2,0.694444444444444,0.298245614035088,ReadingArea_rsl2-rcl100-esl100-rsm2-rcm44-esm100-rsr2-rcr69-esr29,exr/ReadingArea_rsl2-rcl100-esl100-rsm2-rcm44-esm100-rsr2-rcr69-esr29.exr,ReadingArea_rsl2-rcl100-esl100-rsm2-rcm44-esm100-rsr2-rcr69-esr29.npz,,,,,0,172,172,26,,,red,2.29,629.6641809940338,,3,628.6892086267471,EB,2,lightness,readingArea,uniform,75,2023-03-12_16h22.39.803,tripletExp_regina_11082022,2022.2.4,120.44706341822024,
8,3,9,2,0.25,1.0,2,0.444444444444444,0.298245614035088,2,0.444444444444444,1.0,ReadingArea_rsl2-rcl25-esl100-rsm2-rcm44-esm29-rsr2-rcr44-esr100,exr/ReadingArea_rsl2-rcl25-esl100-rsm2-rcm44-esm29-rsr2-rcr44-esr100.exr,ReadingArea_rsl2-rcl25-esl100-rsm2-rcm44-esm29-rsr2-rcr44-esr100.npz,,,,,0,173,173,15,,,red,2.29,635.3506579399109,635.7166419029236,3,634.7388316392899,EB,2,lightness,readingArea,uniform,75,2023-03-12_16h22.39.803,tripletExp_regina_11082022,2022.2.4,120.44706341822024,
1,14,5,2,0.111111111111111,0.298245614035088,2,0.25,3.10526315789474,2,1.0,0.298245614035088,ReadingArea_rsl2-rcl11-esl29-rsm2-rcm25-esm310-rsr2-rcr100-esr29,exr/ReadingArea_rsl2-rcl11-esl29-rsm2-rcm25-esm310-rsr2-rcr100-esr29.exr,ReadingArea_rsl2-rcl11-esl29-rsm2-rcm25-esm310-rsr2-rcr100-esr29.npz,,,,,0,174,174,509,,,red,2.29,640.9372251033783,641.3013880252838,3,640.6424947977066,EB,2,lightness,readingArea,uniform,75,2023-03-12_16h22.39.803,tripletExp_regina_11082022,2022.2.4,120.44706341822024,
13,7,11,2,0.111111111111111,3.10526315789474,2,0.111111111111111,1.0,2,1.0,1.0,ReadingArea_rsl2-rcl11-esl310-rsm2-rcm11-esm100-rsr2-rcr100-esr100,exr/ReadingArea_rsl2-rcl11-esl310-rsm2-rcm11-esm100-rsr2-rcr100-esr100.exr,ReadingArea_rsl2-rcl11-esl310-rsm2-rcm11-esm100-rsr2-rcr100-esr100.npz,,,,,0,175,175,121,,,red,2.29,646.5499150753021,646.9194710254669,3,646.2622216939926,EB,2,lightness,readingArea,uniform,75,2023-03-12_16h22.39.803,tripletExp_regina_11082022,2022.2.4,120.44706341822024,
14,0,5,2,0.25,3.10526315789474,2,0.027777777777778,0.298245614035088,2,1.0,0.298245614035088,ReadingArea_rsl2-rcl25-esl310-rsm2-rcm2-esm29-rsr2-rcr100-esr29,exr/ReadingArea_rsl2-rcl25-esl310-rsm2-rcm2-esm29-rsr2-rcr100-esr29.exr,ReadingArea_rsl2-rcl25-esl310-rsm2-rcm2-esm29-rsr2-rcr100-esr29.npz,,,,,0,176,176,418,,right,red,4.04,652.1791689395905,652.5356669425964,3,,EB,2,lightness,readingArea,uniform,75,2023-03-12_16h22.39.803,tripletExp_regina_11082022,2022.2.4,120.44706341822024,
6,5,13,2,0.027777777777778,1.0,2,1.0,0.298245614035088,2,0.111111111111111,3.10526315789474,ReadingArea_rsl2-rcl2-esl100-rsm2-rcm100-esm29-rsr2-rcr11-esr310,exr/ReadingArea_rsl2-rcl2-esl100-rsm2-rcm100-esm29-rsr2-rcr11-esr310.exr,ReadingArea_rsl2-rcl2-esl100-rsm2-rcm100-esm29-rsr2-rcr11-esr310.npz,,,,,0,177,177,450,,right,red,2.54,656.0048520565033,656.3913929462433,3,,EB,2,lightness,readingArea,uniform,75,2023-03-12_16h22.39.803,tripletExp_regina_11082022,2022.2.4,120.44706341822024,
6,0,14,2,0.027777777777778,1.0,2,0.027777777777778,0.298245614035088,2,0.25,3.10526315789474,ReadingArea_rsl2-rcl2-esl100-rsm2-rcm2-esm29-rsr2-rcr25-esr310,exr/ReadingArea_rsl2-rcl2-esl100-rsm2-rcm2-esm29-rsr2-rcr25-esr310.exr,ReadingArea_rsl2-rcl2-esl100-rsm2-rcm2-esm29-rsr2-rcr25-esr310.npz,,,,,0,178,178,169,,left,green,0.7,658.1011900901794,,3,,EB,2,lightness,readingArea,uniform,75,2023-03-12_16h22.39.803,tripletExp_regina_11082022,2022.2.4,120.44706341822024,
4,8,0,2,0.694444444444444,0.298245614035088,2,0.25,1.0,2,0.027777777777778,0.298245614035088,ReadingArea_rsl2-rcl69-esl29-rsm2-rcm25-esm100-rsr2-rcr2-esr29,exr/ReadingArea_rsl2-rcl69-esl29-rsm2-rcm25-esm100-rsr2-rcr2-esr29.exr,ReadingArea_rsl2-rcl69-esl29-rsm2-rcm25-esm100-rsr2-rcr2-esr29.npz,,,,,0,179,179,137,,left,green,0.67,660.1620171070099,660.4956810474396,3,,EB,2,lightness,readingArea,uniform,75,2023-03-12_16h22.39.803,tripletExp_regina_11082022,2022.2.4,120.44706341822024,
5,6,0,2,1.0,0.298245614035088,2,0.027777777777778,1.0,2,0.027777777777778,0.298245614035088,ReadingArea_rsl2-rcl100-esl29-rsm2-rcm2-esm100-rsr2-rcr2-esr29,exr/ReadingArea_rsl2-rcl100-esl29-rsm2-rcm2-esm100-rsr2-rcr2-esr29.exr,ReadingArea_rsl2-rcl100-esl29-rsm2-rcm2-esm100-rsr2-rcr2-esr29.npz,,,,,0,180,180,511,,right,red,0.76,662.2084341049194,662.5667970180511,3,,EB,2,lightness,readingArea,uniform,75,2023-03-12_16h22.39.803,tripletExp_regina_11082022,2022.2.4,120.44706341822024,
12,5,2,2,0.027777777777778,3.10526315789474,2,1.0,0.298245614035088,2,0.25,0.298245614035088,ReadingArea_rsl2-rcl2-esl310-rsm2-rcm100-esm29-rsr2-rcr25-esr29,exr/ReadingArea_rsl2-rcl2-esl310-rsm2-rcm100-esm29-rsr2-rcr25-esr29.exr,ReadingArea_rsl2-rcl2-esl310-rsm2-rcm100-esm29-rsr2-rcr25-esr29.npz,,,,,0,181,181,415,,left,green,1.06,664.2637119293213,664.5983119010925,3,,EB,2,lightness,readingArea,uniform,75,2023-03-12_16h22.39.803,tripletExp_regina_11082022,2022.2.4,120.44706341822024,
3,8,1,2,0.444444444444444,0.298245614035088,2,0.25,1.0,2,0.111111111111111,0.298245614035088,ReadingArea_rsl2-rcl44-esl29-rsm2-rcm25-esm100-rsr2-rcr11-esr29,exr/ReadingArea_rsl2-rcl44-esl29-rsm2-rcm25-esm100-rsr2-rcr11-esr29.exr,ReadingArea_rsl2-rcl44-esl29-rsm2-rcm25-esm100-rsr2-rcr11-esr29.npz,,,,,0,182,182,230,,left,green,0.84,666.2959420681,666.6325950622559,3,,EB,2,lightness,readingArea,uniform,75,2023-03-12_16h22.39.803,tripletExp_regina_11082022,2022.2.4,120.44706341822024,
14,9,0,2,0.25,3.10526315789474,2,0.444444444444444,1.0,2,0.027777777777778,0.298245614035088,ReadingArea_rsl2-rcl25-esl310-rsm2-rcm44-esm100-rsr2-rcr2-esr29,exr/ReadingArea_rsl2-rcl25-esl310-rsm2-rcm44-esm100-rsr2-rcr2-esr29.exr,ReadingArea_rsl2-rcl25-esl310-rsm2-rcm44-esm100-rsr2-rcr2-esr29.npz,,,,,0,183,183,313,,left,green,0.66,668.328430891037,668.6935029029846,3,,EB,2,lightness,readingArea,uniform,75,2023-03-12_16h22.39.803,tripletExp_regina_11082022,2022.2.4,120.44706341822024,
2,1,8,2,0.25,0.298245614035088,2,0.111111111111111,0.298245614035088,2,0.25,1.0,ReadingArea_rsl2-rcl25-esl29-rsm2-rcm11-esm29-rsr2-rcr25-esr100,exr/ReadingArea_rsl2-rcl25-esl29-rsm2-rcm11-esm29-rsr2-rcr25-esr100.exr,ReadingArea_rsl2-rcl25-esl29-rsm2-rcm11-esm29-rsr2-rcr25-esr100.npz,,,,,0,184,184,125,,left,green,0.66,670.3927528858185,670.7515709400177,3,,EB,2,lightness,readingArea,uniform,75,2023-03-12_16h22.39.803,tripletExp_regina_11082022,2022.2.4,120.44706341822024,
0,8,7,2,0.027777777777778,0.298245614035088,2,0.25,1.0,2,0.111111111111111,1.0,ReadingArea_rsl2-rcl2-esl29-rsm2-rcm25-esm100-rsr2-rcr11-esr100,exr/ReadingArea_rsl2-rcl2-esl29-rsm2-rcm25-esm100-rsr2-rcr11-esr100.exr,ReadingArea_rsl2-rcl2-esl29-rsm2-rcm25-esm100-rsr2-rcr11-esr100.npz,,,,,0,185,185,9,,right,red,0.67,672.4582378864288,672.8133928775787,3,,EB,2,lightness,readingArea,uniform,75,2023-03-12_16h22.39.803,tripletExp_regina_11082022,2022.2.4,120.44706341822024,
12,8,6,2,0.027777777777778,3.10526315789474,2,0.25,1.0,2,0.027777777777778,1.0,ReadingArea_rsl2-rcl2-esl310-rsm2-rcm25-esm100-rsr2-rcr2-esr100,exr/ReadingArea_rsl2-rcl2-esl310-rsm2-rcm25-esm100-rsr2-rcr2-esr100.exr,ReadingArea_rsl2-rcl2-esl310-rsm2-rcm25-esm100-rsr2-rcr2-esr100.npz,,,,,0,186,186,281,,left,green,0.74,674.5109539031982,674.8472719192505,3,,EB,2,lightness,readingArea,uniform,75,2023-03-12_16h22.39.803,tripletExp_regina_11082022,2022.2.4,120.44706341822024,
5,8,7,2,1.0,0.298245614035088,2,0.25,1.0,2,0.111111111111111,1.0,ReadingArea_rsl2-rcl100-esl29-rsm2-rcm25-esm100-rsr2-rcr11-esr100,exr/ReadingArea_rsl2-rcl100-esl29-rsm2-rcm25-esm100-rsr2-rcr11-esr100.exr,ReadingArea_rsl2-rcl100-esl29-rsm2-rcm25-esm100-rsr2-rcr11-esr100.npz,,,,,0,187,187,36,,left,green,1.96,678.3139119148254,678.6750769615173,3,,EB,2,lightness,readingArea,uniform,75,2023-03-12_16h22.39.803,tripletExp_regina_11082022,2022.2.4,120.44706341822024,
8,1,3,2,0.25,1.0,2,0.111111111111111,0.298245614035088,2,0.444444444444444,0.298245614035088,ReadingArea_rsl2-rcl25-esl100-rsm2-rcm11-esm29-rsr2-rcr44-esr29,exr/ReadingArea_rsl2-rcl25-esl100-rsm2-rcm11-esm29-rsr2-rcr44-esr29.exr,ReadingArea_rsl2-rcl25-esl100-rsm2-rcm11-esm29-rsr2-rcr44-esr29.npz,,,,,0,188,188,490,,right,red,0.78,680.371474981308,,3,,EB,2,lightness,readingArea,uniform,75,2023-03-12_16h22.39.803,tripletExp_regina_11082022,2022.2.4,120.44706341822024,
0,8,9,2,0.027777777777778,0.298245614035088,2,0.25,1.0,2,0.444444444444444,1.0,ReadingArea_rsl2-rcl2-esl29-rsm2-rcm25-esm100-rsr2-rcr44-esr100,exr/ReadingArea_rsl2-rcl2-esl29-rsm2-rcm25-esm100-rsr2-rcr44-esr100.exr,ReadingArea_rsl2-rcl2-esl29-rsm2-rcm25-esm100-rsr2-rcr44-esr100.npz,,,,,0,189,189,541,,right,red,0.82,682.4186899662018,682.7503008842468,3,,EB,2,lightness,readingArea,uniform,75,2023-03-12_16h22.39.803,tripletExp_regina_11082022,2022.2.4,120.44706341822024,
5,7,14,2,1.0,0.298245614035088,2,0.111111111111111,1.0,2,0.25,3.10526315789474,ReadingArea_rsl2-rcl100-esl29-rsm2-rcm11-esm100-rsr2-rcr25-esr310,exr/ReadingArea_rsl2-rcl100-esl29-rsm2-rcm11-esm100-rsr2-rcr25-esr310.exr,ReadingArea_rsl2-rcl100-esl29-rsm2-rcm11-esm100-rsr2-rcr25-esr310.npz,,,,,0,190,190,210,,left,green,0.95,684.4640009403229,684.810977935791,3,,EB,2,lightness,readingArea,uniform,75,2023-03-12_16h22.39.803,tripletExp_regina_11082022,2022.2.4,120.44706341822024,
4,2,0,2,0.694444444444444,0.298245614035088,2,0.25,0.298245614035088,2,0.027777777777778,0.298245614035088,ReadingArea_rsl2-rcl69-esl29-rsm2-rcm25-esm29-rsr2-rcr2-esr29,exr/ReadingArea_rsl2-rcl69-esl29-rsm2-rcm25-esm29-rsr2-rcr2-esr29.exr,ReadingArea_rsl2-rcl69-esl29-rsm2-rcm25-esm29-rsr2-rcr2-esr29.npz,,,,,0,191,191,71,,left,green,0.88,686.521115064621,686.9427950382233,3,,EB,2,lightness,readingArea,uniform,75,2023-03-12_16h22.39.803,tripletExp_regina_11082022,2022.2.4,120.44706341822024,
4,12,7,2,0.694444444444444,0.298245614035088,2,0.027777777777778,3.10526315789474,2,0.111111111111111,1.0,ReadingArea_rsl2-rcl69-esl29-rsm2-rcm2-esm310-rsr2-rcr11-esr100,exr/ReadingArea_rsl2-rcl69-esl29-rsm2-rcm2-esm310-rsr2-rcr11-esr100.exr,ReadingArea_rsl2-rcl69-esl29-rsm2-rcm2-esm310-rsr2-rcr11-esr100.npz,,,,,0,192,192,112,,right,red,0.91,688.6622960567474,689.0179829597473,3,,EB,2,lightness,readingArea,uniform,75,2023-03-12_16h22.39.803,tripletExp_regina_11082022,2022.2.4,120.44706341822024,
6,9,2,2,0.027777777777778,1.0,2,0.444444444444444,1.0,2,0.25,0.298245614035088,ReadingArea_rsl2-rcl2-esl100-rsm2-rcm44-esm100-rsr2-rcr25-esr29,exr/ReadingArea_rsl2-rcl2-esl100-rsm2-rcm44-esm100-rsr2-rcr25-esr29.exr,ReadingArea_rsl2-rcl2-esl100-rsm2-rcm44-esm100-rsr2-rcr25-esr29.npz,,,,,0,193,193,182,,right,red,0.88,690.7345869541168,691.0716938972473,3,,EB,2,lightness,readingArea,uniform,75,2023-03-12_16h22.39.803,tripletExp_regina_11082022,2022.2.4,120.44706341822024,
14,3,2,2,0.25,3.10526315789474,2,0.444444444444444,0.298245614035088,2,0.25,0.298245614035088,ReadingArea_rsl2-rcl25-esl310-rsm2-rcm44-esm29-rsr2-rcr25-esr29,exr/ReadingArea_rsl2-rcl25-esl310-rsm2-rcm44-esm29-rsr2-rcr25-esr29.exr,ReadingArea_rsl2-rcl25-esl310-rsm2-rcm44-esm29-rsr2-rcr25-esr29.npz,,,,,0,194,194,52,,right,red,0.8,692.7713739871979,693.1280899047852,3,,EB,2,lightness,readingArea,uniform,75,2023-03-12_16h22.39.803,tripletExp_regina_11082022,2022.2.4,120.44706341822024,
2,9,8,2,0.25,0.298245614035088,2,0.444444444444444,1.0,2,0.25,1.0,ReadingArea_rsl2-rcl25-esl29-rsm2-rcm44-esm100-rsr2-rcr25-esr100,exr/ReadingArea_rsl2-rcl25-esl29-rsm2-rcm44-esm100-rsr2-rcr25-esr100.exr,ReadingArea_rsl2-rcl25-esl29-rsm2-rcm44-esm100-rsr2-rcr25-esr100.npz,,,,,0,195,195,407,,right,red,0.52,694.822566986084,695.1565029621124,3,,EB,2,lightness,readingArea,uniform,75,2023-03-12_16h22.39.803,tripletExp_regina_11082022,2022.2.4,120.44706341822024,
10,3,0,2,0.694444444444444,1.0,2,0.444444444444444,0.298245614035088,2,0.027777777777778,0.298245614035088,ReadingArea_rsl2-rcl69-esl100-rsm2-rcm44-esm29-rsr2-rcr2-esr29,exr/ReadingArea_rsl2-rcl69-esl100-rsm2-rcm44-esm29-rsr2-rcr2-esr29.exr,ReadingArea_rsl2-rcl69-esl100-rsm2-rcm44-esm29-rsr2-rcr2-esr29.npz,,,,,0,196,196,203,,right,red,0.76,696.8552620410919,697.2280180454254,3,,EB,2,lightness,readingArea,uniform,75,2023-03-12_16h22.39.803,tripletExp_regina_11082022,2022.2.4,120.44706341822024,
11,4,0,2,1.0,1.0,2,0.694444444444444,0.298245614035088,2,0.027777777777778,0.298245614035088,ReadingArea_rsl2-rcl100-esl100-rsm2-rcm69-esm29-rsr2-rcr2-esr29,exr/ReadingArea_rsl2-rcl100-esl100-rsm2-rcm69-esm29-rsr2-rcr2-esr29.exr,ReadingArea_rsl2-rcl100-esl100-rsm2-rcm69-esm29-rsr2-rcr2-esr29.npz,,,,,0,197,197,219,,left,green,4.51,702.4587359428406,702.8282330036163,3,,EB,2,lightness,readingArea,uniform,75,2023-03-12_16h22.39.803,tripletExp_regina_11082022,2022.2.4,120.44706341822024,
12,13,14,2,0.027777777777778,3.10526315789474,2,0.111111111111111,3.10526315789474,2,0.25,3.10526315789474,ReadingArea_rsl2-rcl2-esl310-rsm2-rcm11-esm310-rsr2-rcr25-esr310,exr/ReadingArea_rsl2-rcl2-esl310-rsm2-rcm11-esm310-rsr2-rcr25-esr310.exr,ReadingArea_rsl2-rcl2-esl310-rsm2-rcm11-esm310-rsr2-rcr25-esr310.npz,,,,,0,198,198,208,,left,green,1.36,704.5254499912262,704.8652889728546,3,,EB,2,lightness,readingArea,uniform,75,2023-03-12_16h22.39.803,tripletExp_regina_11082022,2022.2.4,120.44706341822024,
5,4,12,2,1.0,0.298245614035088,2,0.694444444444444,0.298245614035088,2,0.027777777777778,3.10526315789474,ReadingArea_rsl2-rcl100-esl29-rsm2-rcm69-esm29-rsr2-rcr2-esr310,exr/ReadingArea_rsl2-rcl100-esl29-rsm2-rcm69-esm29-rsr2-rcr2-esr310.exr,ReadingArea_rsl2-rcl100-esl29-rsm2-rcm69-esm29-rsr2-rcr2-esr310.npz,,,,,0,199,199,82,,left,green,0.64,706.5586750507355,,3,,EB,2,lightness,readingArea,uniform,75,2023-03-12_16h22.39.803,tripletExp_regina_11082022,2022.2.4,120.44706341822024,
10,7,2,2,0.694444444444444,1.0,2,0.111111111111111,1.0,2,0.25,0.298245614035088,ReadingArea_rsl2-rcl69-esl100-rsm2-rcm11-esm100-rsr2-rcr25-esr29,exr/ReadingArea_rsl2-rcl69-esl100-rsm2-rcm11-esm100-rsr2-rcr25-esr29.exr,ReadingArea_rsl2-rcl69-esl100-rsm2-rcm11-esm100-rsr2-rcr25-esr29.npz,,,,,0,200,200,523,,right,red,0.66,708.6016089916229,708.9604969024658,3,,EB,2,lightness,readingArea,uniform,75,2023-03-12_16h22.39.803,tripletExp_regina_11082022,2022.2.4,120.44706341822024,
9,11,2,2,0.444444444444444,1.0,2,1.0,1.0,2,0.25,0.298245614035088,ReadingArea_rsl2-rcl44-esl100-rsm2-rcm100-esm100-rsr2-rcr25-esr29,exr/ReadingArea_rsl2-rcl44-esl100-rsm2-rcm100-esm100-rsr2-rcr25-esr29.exr,ReadingArea_rsl2-rcl44-esl100-rsm2-rcm100-esm100-rsr2-rcr25-esr29.npz,,,,,0,201,201,329,,left,green,0.52,710.6573169231415,711.0044610500336,3,,EB,2,lightness,readingArea,uniform,75,2023-03-12_16h22.39.803,tripletExp_regina_11082022,2022.2.4,120.44706341822024,
4,10,11,2,0.694444444444444,0.298245614035088,2,0.694444444444444,1.0,2,1.0,1.0,ReadingArea_rsl2-rcl69-esl29-rsm2-rcm69-esm100-rsr2-rcr100-esr100,exr/ReadingArea_rsl2-rcl69-esl29-rsm2-rcm69-esm100-rsr2-rcr100-esr100.exr,ReadingArea_rsl2-rcl69-esl29-rsm2-rcm69-esm100-rsr2-rcr100-esr100.npz,,,,,0,202,202,180,,right,red,0.64,712.7146310806274,713.0560779571533,3,,EB,2,lightness,readingArea,uniform,75,2023-03-12_16h22.39.803,tripletExp_regina_11082022,2022.2.4,120.44706341822024,
3,9,10,2,0.444444444444444,0.298245614035088,2,0.444444444444444,1.0,2,0.694444444444444,1.0,ReadingArea_rsl2-rcl44-esl29-rsm2-rcm44-esm100-rsr2-rcr69-esr100,exr/ReadingArea_rsl2-rcl44-esl29-rsm2-rcm44-esm100-rsr2-rcr69-esr100.exr,ReadingArea_rsl2-rcl44-esl29-rsm2-rcm44-esm100-rsr2-rcr69-esr100.npz,,,,,0,203,203,581,,right,red,0.56,714.7666358947754,715.1016550064087,3,,EB,2,lightness,readingArea,uniform,75,2023-03-12_16h22.39.803,tripletExp_regina_11082022,2022.2.4,120.44706341822024,
