index_left,index_middle,index_right,reflectance_surround_left,reflectance_center_left,emission_spot_left,reflectance_surround_middle,reflectance_center_middle,emission_spot_middle,reflectance_surround_right,reflectance_center_right,emission_spot_right,ImageName,ImageExr,ImageNpy,trials_2.thisRepN,trials_2.thisTrialN,trials_2.thisN,trials_2.thisIndex,trials.thisRepN,trials.thisTrialN,trials.thisN,trials.thisIndex,sound_1.started,BB_Trial.resp,BB_Trial.color,BB_Trial.rt,text.started,text.stopped,block,sound_4.started,participant,session,L/B,scene,condition,nTrialsPerBlock,date,expName,psychopyVersion,frameRate,Unnamed: 41
8,6,13,2,0.25,1.0,2,0.027777777777778,1.0,2,0.111111111111111,3.10526315789474,ReadingArea_rsl2-rcl25-esl100-rsm2-rcm2-esm100-rsr2-rcr11-esr310,exr/ReadingArea_rsl2-rcl25-esl100-rsm2-rcm2-esm100-rsr2-rcr11-esr310.exr,ReadingArea_rsl2-rcl25-esl100-rsm2-rcm2-esm100-rsr2-rcr11-esr310.npz,,,,,0,0,0,440,121.81129131317138,left,green,4.44,198.5185329914093,199.26605701446533,1,,7,6,lightness,readingArea,realistic,75,2023-04-01_13h23.30.484,tripletExp_regina_11082022,2022.2.4,120.57067131206684,
4,5,9,2,0.694444444444444,0.298245614035088,2,1.0,0.298245614035088,2,0.444444444444444,1.0,ReadingArea_rsl2-rcl69-esl29-rsm2-rcm100-esm29-rsr2-rcr44-esr100,exr/ReadingArea_rsl2-rcl69-esl29-rsm2-rcm100-esm29-rsr2-rcr44-esr100.exr,ReadingArea_rsl2-rcl69-esl29-rsm2-rcm100-esm29-rsr2-rcr44-esr100.npz,,,,,0,1,1,211,,left,green,4.5,204.5104179382324,,1,,7,6,lightness,readingArea,realistic,75,2023-04-01_13h23.30.484,tripletExp_regina_11082022,2022.2.4,120.57067131206684,
13,6,10,2,0.111111111111111,3.10526315789474,2,0.027777777777778,1.0,2,0.694444444444444,1.0,ReadingArea_rsl2-rcl11-esl310-rsm2-rcm2-esm100-rsr2-rcr69-esr100,exr/ReadingArea_rsl2-rcl11-esl310-rsm2-rcm2-esm100-rsr2-rcr69-esr100.exr,ReadingArea_rsl2-rcl11-esl310-rsm2-rcm2-esm100-rsr2-rcr69-esr100.npz,,,,,0,2,2,593,,left,green,4.17,210.3767828941345,211.0193719863892,1,,7,6,lightness,readingArea,realistic,75,2023-04-01_13h23.30.484,tripletExp_regina_11082022,2022.2.4,120.57067131206684,
4,8,7,2,0.694444444444444,0.298245614035088,2,0.25,1.0,2,0.111111111111111,1.0,ReadingArea_rsl2-rcl69-esl29-rsm2-rcm25-esm100-rsr2-rcr11-esr100,exr/ReadingArea_rsl2-rcl69-esl29-rsm2-rcm25-esm100-rsr2-rcr11-esr100.exr,ReadingArea_rsl2-rcl69-esl29-rsm2-rcm25-esm100-rsr2-rcr11-esr100.npz,,,,,0,3,3,461,,left,green,2.65,214.51297688484192,214.9778528213501,1,,7,6,lightness,readingArea,realistic,75,2023-04-01_13h23.30.484,tripletExp_regina_11082022,2022.2.4,120.57067131206684,
3,4,13,2,0.444444444444444,0.298245614035088,2,0.694444444444444,0.298245614035088,2,0.111111111111111,3.10526315789474,ReadingArea_rsl2-rcl44-esl29-rsm2-rcm69-esm29-rsr2-rcr11-esr310,exr/ReadingArea_rsl2-rcl44-esl29-rsm2-rcm69-esm29-rsr2-rcr11-esr310.exr,ReadingArea_rsl2-rcl44-esl29-rsm2-rcm69-esm29-rsr2-rcr11-esr310.npz,,,,,0,4,4,63,,left,green,2.11,218.4754149913788,218.964166879654,1,,7,6,lightness,readingArea,realistic,75,2023-04-01_13h23.30.484,tripletExp_regina_11082022,2022.2.4,120.57067131206684,
13,3,12,2,0.111111111111111,3.10526315789474,2,0.444444444444444,0.298245614035088,2,0.027777777777778,3.10526315789474,ReadingArea_rsl2-rcl11-esl310-rsm2-rcm44-esm29-rsr2-rcr2-esr310,exr/ReadingArea_rsl2-rcl11-esl310-rsm2-rcm44-esm29-rsr2-rcr2-esr310.exr,ReadingArea_rsl2-rcl11-esl310-rsm2-rcm44-esm29-rsr2-rcr2-esr310.npz,,,,,0,5,5,80,,left,green,2.47,222.4389929771424,223.0542778968811,1,,7,6,lightness,readingArea,realistic,75,2023-04-01_13h23.30.484,tripletExp_regina_11082022,2022.2.4,120.57067131206684,
1,6,11,2,0.111111111111111,0.298245614035088,2,0.027777777777778,1.0,2,1.0,1.0,ReadingArea_rsl2-rcl11-esl29-rsm2-rcm2-esm100-rsr2-rcr100-esr100,exr/ReadingArea_rsl2-rcl11-esl29-rsm2-rcm2-esm100-rsr2-rcr100-esr100.exr,ReadingArea_rsl2-rcl11-esl29-rsm2-rcm2-esm100-rsr2-rcr100-esr100.npz,,,,,0,6,6,39,,left,green,2.68,226.515321969986,227.00201392173767,1,,7,6,lightness,readingArea,realistic,75,2023-04-01_13h23.30.484,tripletExp_regina_11082022,2022.2.4,120.57067131206684,
3,8,7,2,0.444444444444444,0.298245614035088,2,0.25,1.0,2,0.111111111111111,1.0,ReadingArea_rsl2-rcl44-esl29-rsm2-rcm25-esm100-rsr2-rcr11-esr100,exr/ReadingArea_rsl2-rcl44-esl29-rsm2-rcm25-esm100-rsr2-rcr11-esr100.exr,ReadingArea_rsl2-rcl44-esl29-rsm2-rcm25-esm100-rsr2-rcr11-esr100.npz,,,,,0,7,7,484,,left,green,2.82,230.44527792930603,230.95079684257507,1,,7,6,lightness,readingArea,realistic,75,2023-04-01_13h23.30.484,tripletExp_regina_11082022,2022.2.4,120.57067131206684,
14,8,2,2,0.25,3.10526315789474,2,0.25,1.0,2,0.25,0.298245614035088,ReadingArea_rsl2-rcl25-esl310-rsm2-rcm25-esm100-rsr2-rcr25-esr29,exr/ReadingArea_rsl2-rcl25-esl310-rsm2-rcm25-esm100-rsr2-rcr25-esr29.exr,ReadingArea_rsl2-rcl25-esl310-rsm2-rcm25-esm100-rsr2-rcr25-esr29.npz,,,,,0,8,8,251,,right,red,2.94,234.4122450351715,234.91460490226743,1,,7,6,lightness,readingArea,realistic,75,2023-04-01_13h23.30.484,tripletExp_regina_11082022,2022.2.4,120.57067131206684,
3,11,14,2,0.444444444444444,0.298245614035088,2,1.0,1.0,2,0.25,3.10526315789474,ReadingArea_rsl2-rcl44-esl29-rsm2-rcm100-esm100-rsr2-rcr25-esr310,exr/ReadingArea_rsl2-rcl44-esl29-rsm2-rcm100-esm100-rsr2-rcr25-esr310.exr,ReadingArea_rsl2-rcl44-esl29-rsm2-rcm100-esm100-rsr2-rcr25-esr310.npz,,,,,0,9,9,570,,right,red,2.94,238.39630699157715,238.8793489933014,1,,7,6,lightness,readingArea,realistic,75,2023-04-01_13h23.30.484,tripletExp_regina_11082022,2022.2.4,120.57067131206684,
9,0,14,2,0.444444444444444,1.0,2,0.027777777777778,0.298245614035088,2,0.25,3.10526315789474,ReadingArea_rsl2-rcl44-esl100-rsm2-rcm2-esm29-rsr2-rcr25-esr310,exr/ReadingArea_rsl2-rcl44-esl100-rsm2-rcm2-esm29-rsr2-rcr25-esr310.exr,ReadingArea_rsl2-rcl44-esl100-rsm2-rcm2-esm29-rsr2-rcr25-esr310.npz,,,,,0,10,10,550,,left,green,4.22,244.1028800010681,244.5731508731842,1,,7,6,lightness,readingArea,realistic,75,2023-04-01_13h23.30.484,tripletExp_regina_11082022,2022.2.4,120.57067131206684,
14,6,5,2,0.25,3.10526315789474,2,0.027777777777778,1.0,2,1.0,0.298245614035088,ReadingArea_rsl2-rcl25-esl310-rsm2-rcm2-esm100-rsr2-rcr100-esr29,exr/ReadingArea_rsl2-rcl25-esl310-rsm2-rcm2-esm100-rsr2-rcr100-esr29.exr,ReadingArea_rsl2-rcl25-esl310-rsm2-rcm2-esm100-rsr2-rcr100-esr29.npz,,,,,0,11,11,297,,right,red,4.72,249.8082909584045,250.3719928264618,1,,7,6,lightness,readingArea,realistic,75,2023-04-01_13h23.30.484,tripletExp_regina_11082022,2022.2.4,120.57067131206684,
0,8,6,2,0.027777777777778,0.298245614035088,2,0.25,1.0,2,0.027777777777778,1.0,ReadingArea_rsl2-rcl2-esl29-rsm2-rcm25-esm100-rsr2-rcr2-esr100,exr/ReadingArea_rsl2-rcl2-esl29-rsm2-rcm25-esm100-rsr2-rcr2-esr100.exr,ReadingArea_rsl2-rcl2-esl29-rsm2-rcm25-esm100-rsr2-rcr2-esr100.npz,,,,,0,12,12,92,,right,red,4.89,255.5959630012512,256.1885108947754,1,,7,6,lightness,readingArea,realistic,75,2023-04-01_13h23.30.484,tripletExp_regina_11082022,2022.2.4,120.57067131206684,
10,1,6,2,0.694444444444444,1.0,2,0.111111111111111,0.298245614035088,2,0.027777777777778,1.0,ReadingArea_rsl2-rcl69-esl100-rsm2-rcm11-esm29-rsr2-rcr2-esr100,exr/ReadingArea_rsl2-rcl69-esl100-rsm2-rcm11-esm29-rsr2-rcr2-esr100.exr,ReadingArea_rsl2-rcl69-esl100-rsm2-rcm11-esm29-rsr2-rcr2-esr100.npz,,,,,0,13,13,160,,right,red,4.13,261.41765093803406,,1,,7,6,lightness,readingArea,realistic,75,2023-04-01_13h23.30.484,tripletExp_regina_11082022,2022.2.4,120.57067131206684,
14,3,6,2,0.25,3.10526315789474,2,0.444444444444444,0.298245614035088,2,0.027777777777778,1.0,ReadingArea_rsl2-rcl25-esl310-rsm2-rcm44-esm29-rsr2-rcr2-esr100,exr/ReadingArea_rsl2-rcl25-esl310-rsm2-rcm44-esm29-rsr2-rcr2-esr100.exr,ReadingArea_rsl2-rcl25-esl310-rsm2-rcm44-esm29-rsr2-rcr2-esr100.npz,,,,,0,14,14,244,,left,green,4.04,267.15599298477173,267.65391087532043,1,,7,6,lightness,readingArea,realistic,75,2023-04-01_13h23.30.484,tripletExp_regina_11082022,2022.2.4,120.57067131206684,
6,1,9,2,0.027777777777778,1.0,2,0.111111111111111,0.298245614035088,2,0.444444444444444,1.0,ReadingArea_rsl2-rcl2-esl100-rsm2-rcm11-esm29-rsr2-rcr44-esr100,exr/ReadingArea_rsl2-rcl2-esl100-rsm2-rcm11-esm29-rsr2-rcr44-esr100.exr,ReadingArea_rsl2-rcl2-esl100-rsm2-rcm11-esm29-rsr2-rcr44-esr100.npz,,,,,0,15,15,74,,left,green,2.35,271.1321380138397,271.8389308452606,1,,7,6,lightness,readingArea,realistic,75,2023-04-01_13h23.30.484,tripletExp_regina_11082022,2022.2.4,120.57067131206684,
10,1,13,2,0.694444444444444,1.0,2,0.111111111111111,0.298245614035088,2,0.111111111111111,3.10526315789474,ReadingArea_rsl2-rcl69-esl100-rsm2-rcm11-esm29-rsr2-rcr11-esr310,exr/ReadingArea_rsl2-rcl69-esl100-rsm2-rcm11-esm29-rsr2-rcr11-esr310.exr,ReadingArea_rsl2-rcl69-esl100-rsm2-rcm11-esm29-rsr2-rcr11-esr310.npz,,,,,0,16,16,45,,right,red,2.71,275.30374002456665,275.7924649715424,1,,7,6,lightness,readingArea,realistic,75,2023-04-01_13h23.30.484,tripletExp_regina_11082022,2022.2.4,120.57067131206684,
14,7,13,2,0.25,3.10526315789474,2,0.111111111111111,1.0,2,0.111111111111111,3.10526315789474,ReadingArea_rsl2-rcl25-esl310-rsm2-rcm11-esm100-rsr2-rcr11-esr310,exr/ReadingArea_rsl2-rcl25-esl310-rsm2-rcm11-esm100-rsr2-rcr11-esr310.exr,ReadingArea_rsl2-rcl25-esl310-rsm2-rcm11-esm100-rsr2-rcr11-esr310.npz,,,,,0,17,17,358,,right,red,2.46,279.293664932251,279.77352499961853,1,,7,6,lightness,readingArea,realistic,75,2023-04-01_13h23.30.484,tripletExp_regina_11082022,2022.2.4,120.57067131206684,
3,0,8,2,0.444444444444444,0.298245614035088,2,0.027777777777778,0.298245614035088,2,0.25,1.0,ReadingArea_rsl2-rcl44-esl29-rsm2-rcm2-esm29-rsr2-rcr25-esr100,exr/ReadingArea_rsl2-rcl44-esl29-rsm2-rcm2-esm29-rsr2-rcr25-esr100.exr,ReadingArea_rsl2-rcl44-esl29-rsm2-rcm2-esm29-rsr2-rcr25-esr100.npz,,,,,0,18,18,510,,left,green,3.24,283.2465088367462,283.7277808189392,1,,7,6,lightness,readingArea,realistic,75,2023-04-01_13h23.30.484,tripletExp_regina_11082022,2022.2.4,120.57067131206684,
10,5,13,2,0.694444444444444,1.0,2,1.0,0.298245614035088,2,0.111111111111111,3.10526315789474,ReadingArea_rsl2-rcl69-esl100-rsm2-rcm100-esm29-rsr2-rcr11-esr310,exr/ReadingArea_rsl2-rcl69-esl100-rsm2-rcm100-esm29-rsr2-rcr11-esr310.exr,ReadingArea_rsl2-rcl69-esl100-rsm2-rcm100-esm29-rsr2-rcr11-esr310.npz,,,,,0,19,19,478,,left,green,2.75,287.18982005119324,287.7526638507843,1,,7,6,lightness,readingArea,realistic,75,2023-04-01_13h23.30.484,tripletExp_regina_11082022,2022.2.4,120.57067131206684,
8,13,3,2,0.25,1.0,2,0.111111111111111,3.10526315789474,2,0.444444444444444,0.298245614035088,ReadingArea_rsl2-rcl25-esl100-rsm2-rcm11-esm310-rsr2-rcr44-esr29,exr/ReadingArea_rsl2-rcl25-esl100-rsm2-rcm11-esm310-rsr2-rcr44-esr29.exr,ReadingArea_rsl2-rcl25-esl100-rsm2-rcm11-esm310-rsr2-rcr44-esr29.npz,,,,,0,20,20,553,,left,green,3.16,291.22580003738403,291.70677304267883,1,,7,6,lightness,readingArea,realistic,75,2023-04-01_13h23.30.484,tripletExp_regina_11082022,2022.2.4,120.57067131206684,
11,1,12,2,1.0,1.0,2,0.111111111111111,0.298245614035088,2,0.027777777777778,3.10526315789474,ReadingArea_rsl2-rcl100-esl100-rsm2-rcm11-esm29-rsr2-rcr2-esr310,exr/ReadingArea_rsl2-rcl100-esl100-rsm2-rcm11-esm29-rsr2-rcr2-esr310.exr,ReadingArea_rsl2-rcl100-esl100-rsm2-rcm11-esm29-rsr2-rcr2-esr310.npz,,,,,0,21,21,339,,right,red,2.42,295.2055079936981,295.698529958725,1,,7,6,lightness,readingArea,realistic,75,2023-04-01_13h23.30.484,tripletExp_regina_11082022,2022.2.4,120.57067131206684,
8,4,2,2,0.25,1.0,2,0.694444444444444,0.298245614035088,2,0.25,0.298245614035088,ReadingArea_rsl2-rcl25-esl100-rsm2-rcm69-esm29-rsr2-rcr25-esr29,exr/ReadingArea_rsl2-rcl25-esl100-rsm2-rcm69-esm29-rsr2-rcr25-esr29.exr,ReadingArea_rsl2-rcl25-esl100-rsm2-rcm69-esm29-rsr2-rcr25-esr29.npz,,,,,0,22,22,184,,left,green,2.54,299.16734194755554,299.6648099422455,1,,7,6,lightness,readingArea,realistic,75,2023-04-01_13h23.30.484,tripletExp_regina_11082022,2022.2.4,120.57067131206684,
1,14,6,2,0.111111111111111,0.298245614035088,2,0.25,3.10526315789474,2,0.027777777777778,1.0,ReadingArea_rsl2-rcl11-esl29-rsm2-rcm25-esm310-rsr2-rcr2-esr100,exr/ReadingArea_rsl2-rcl11-esl29-rsm2-rcm25-esm310-rsr2-rcr2-esr100.exr,ReadingArea_rsl2-rcl11-esl29-rsm2-rcm25-esm310-rsr2-rcr2-esr100.npz,,,,,0,23,23,475,,left,green,2.53,303.1609790325165,303.6681909561157,1,,7,6,lightness,readingArea,realistic,75,2023-04-01_13h23.30.484,tripletExp_regina_11082022,2022.2.4,120.57067131206684,
14,13,6,2,0.25,3.10526315789474,2,0.111111111111111,3.10526315789474,2,0.027777777777778,1.0,ReadingArea_rsl2-rcl25-esl310-rsm2-rcm11-esm310-rsr2-rcr2-esr100,exr/ReadingArea_rsl2-rcl25-esl310-rsm2-rcm11-esm310-rsr2-rcr2-esr100.exr,ReadingArea_rsl2-rcl25-esl310-rsm2-rcm11-esm310-rsr2-rcr2-esr100.npz,,,,,0,24,24,102,,left,green,4.17,308.9164588451385,,1,,7,6,lightness,readingArea,realistic,75,2023-04-01_13h23.30.484,tripletExp_regina_11082022,2022.2.4,120.57067131206684,
13,3,7,2,0.111111111111111,3.10526315789474,2,0.444444444444444,0.298245614035088,2,0.111111111111111,1.0,ReadingArea_rsl2-rcl11-esl310-rsm2-rcm44-esm29-rsr2-rcr11-esr100,exr/ReadingArea_rsl2-rcl11-esl310-rsm2-rcm44-esm29-rsr2-rcr11-esr100.exr,ReadingArea_rsl2-rcl11-esl310-rsm2-rcm44-esm29-rsr2-rcr11-esr100.npz,,,,,0,25,25,497,,left,green,4.04,314.74091386795044,315.2969868183136,1,,7,6,lightness,readingArea,realistic,75,2023-04-01_13h23.30.484,tripletExp_regina_11082022,2022.2.4,120.57067131206684,
1,11,12,2,0.111111111111111,0.298245614035088,2,1.0,1.0,2,0.027777777777778,3.10526315789474,ReadingArea_rsl2-rcl11-esl29-rsm2-rcm100-esm100-rsr2-rcr2-esr310,exr/ReadingArea_rsl2-rcl11-esl29-rsm2-rcm100-esm100-rsr2-rcr2-esr310.exr,ReadingArea_rsl2-rcl11-esl29-rsm2-rcm100-esm100-rsr2-rcr2-esr310.npz,,,,,0,26,26,288,,left,green,4.63,320.52035999298096,321.16503286361694,1,,7,6,lightness,readingArea,realistic,75,2023-04-01_13h23.30.484,tripletExp_regina_11082022,2022.2.4,120.57067131206684,
11,4,0,2,1.0,1.0,2,0.694444444444444,0.298245614035088,2,0.027777777777778,0.298245614035088,ReadingArea_rsl2-rcl100-esl100-rsm2-rcm69-esm29-rsr2-rcr2-esr29,exr/ReadingArea_rsl2-rcl100-esl100-rsm2-rcm69-esm29-rsr2-rcr2-esr29.exr,ReadingArea_rsl2-rcl100-esl100-rsm2-rcm69-esm29-rsr2-rcr2-esr29.npz,,,,,0,27,27,219,,left,green,1.71,322.8485209941864,323.3225109577179,1,,7,6,lightness,readingArea,realistic,75,2023-04-01_13h23.30.484,tripletExp_regina_11082022,2022.2.4,120.57067131206684,
8,1,14,2,0.25,1.0,2,0.111111111111111,0.298245614035088,2,0.25,3.10526315789474,ReadingArea_rsl2-rcl25-esl100-rsm2-rcm11-esm29-rsr2-rcr25-esr310,exr/ReadingArea_rsl2-rcl25-esl100-rsm2-rcm11-esm29-rsr2-rcr25-esr310.exr,ReadingArea_rsl2-rcl25-esl100-rsm2-rcm11-esm29-rsr2-rcr25-esr310.npz,,,,,0,28,28,500,,left,green,2.3,326.782685995102,327.34731793403625,1,,7,6,lightness,readingArea,realistic,75,2023-04-01_13h23.30.484,tripletExp_regina_11082022,2022.2.4,120.57067131206684,
6,0,11,2,0.027777777777778,1.0,2,0.027777777777778,0.298245614035088,2,1.0,1.0,ReadingArea_rsl2-rcl2-esl100-rsm2-rcm2-esm29-rsr2-rcr100-esr100,exr/ReadingArea_rsl2-rcl2-esl100-rsm2-rcm2-esm29-rsr2-rcr100-esr100.exr,ReadingArea_rsl2-rcl2-esl100-rsm2-rcm2-esm29-rsr2-rcr100-esr100.npz,,,,,0,29,29,245,,left,green,2.56,330.82471203804016,331.3094758987427,1,,7,6,lightness,readingArea,realistic,75,2023-04-01_13h23.30.484,tripletExp_regina_11082022,2022.2.4,120.57067131206684,
11,12,1,2,1.0,1.0,2,0.027777777777778,3.10526315789474,2,0.111111111111111,0.298245614035088,ReadingArea_rsl2-rcl100-esl100-rsm2-rcm2-esm310-rsr2-rcr11-esr29,exr/ReadingArea_rsl2-rcl100-esl100-rsm2-rcm2-esm310-rsr2-rcr11-esr29.exr,ReadingArea_rsl2-rcl100-esl100-rsm2-rcm2-esm310-rsr2-rcr11-esr29.npz,,,,,0,30,30,140,,right,red,2.55,334.74890899658203,335.2357149124145,1,,7,6,lightness,readingArea,realistic,75,2023-04-01_13h23.30.484,tripletExp_regina_11082022,2022.2.4,120.57067131206684,
5,9,0,2,1.0,0.298245614035088,2,0.444444444444444,1.0,2,0.027777777777778,0.298245614035088,ReadingArea_rsl2-rcl100-esl29-rsm2-rcm44-esm100-rsr2-rcr2-esr29,exr/ReadingArea_rsl2-rcl100-esl29-rsm2-rcm44-esm100-rsr2-rcr2-esr29.exr,ReadingArea_rsl2-rcl100-esl29-rsm2-rcm44-esm100-rsr2-rcr2-esr29.npz,,,,,0,31,31,575,,left,green,2.31,338.7195689678192,339.19014382362366,1,,7,6,lightness,readingArea,realistic,75,2023-04-01_13h23.30.484,tripletExp_regina_11082022,2022.2.4,120.57067131206684,
14,6,13,2,0.25,3.10526315789474,2,0.027777777777778,1.0,2,0.111111111111111,3.10526315789474,ReadingArea_rsl2-rcl25-esl310-rsm2-rcm2-esm100-rsr2-rcr11-esr310,exr/ReadingArea_rsl2-rcl25-esl310-rsm2-rcm2-esm100-rsr2-rcr11-esr310.exr,ReadingArea_rsl2-rcl25-esl310-rsm2-rcm2-esm100-rsr2-rcr11-esr310.npz,,,,,0,32,32,91,,right,red,3.15,342.6849069595337,343.22520685195923,1,,7,6,lightness,readingArea,realistic,75,2023-04-01_13h23.30.484,tripletExp_regina_11082022,2022.2.4,120.57067131206684,
10,11,4,2,0.694444444444444,1.0,2,1.0,1.0,2,0.694444444444444,0.298245614035088,ReadingArea_rsl2-rcl69-esl100-rsm2-rcm100-esm100-rsr2-rcr69-esr29,exr/ReadingArea_rsl2-rcl69-esl100-rsm2-rcm100-esm100-rsr2-rcr69-esr29.exr,ReadingArea_rsl2-rcl69-esl100-rsm2-rcm100-esm100-rsr2-rcr69-esr29.npz,,,,,0,33,33,239,,left,green,3.21,346.6792540550232,347.1841399669647,1,,7,6,lightness,readingArea,realistic,75,2023-04-01_13h23.30.484,tripletExp_regina_11082022,2022.2.4,120.57067131206684,
8,7,12,2,0.25,1.0,2,0.111111111111111,1.0,2,0.027777777777778,3.10526315789474,ReadingArea_rsl2-rcl25-esl100-rsm2-rcm11-esm100-rsr2-rcr2-esr310,exr/ReadingArea_rsl2-rcl25-esl100-rsm2-rcm11-esm100-rsr2-rcr2-esr310.exr,ReadingArea_rsl2-rcl25-esl100-rsm2-rcm11-esm100-rsr2-rcr2-esr310.npz,,,,,0,34,34,471,,left,green,2.27,350.6808190345764,351.16122698783875,1,,7,6,lightness,readingArea,realistic,75,2023-04-01_13h23.30.484,tripletExp_regina_11082022,2022.2.4,120.57067131206684,
14,2,1,2,0.25,3.10526315789474,2,0.25,0.298245614035088,2,0.111111111111111,0.298245614035088,ReadingArea_rsl2-rcl25-esl310-rsm2-rcm25-esm29-rsr2-rcr11-esr29,exr/ReadingArea_rsl2-rcl25-esl310-rsm2-rcm25-esm29-rsr2-rcr11-esr29.exr,ReadingArea_rsl2-rcl25-esl310-rsm2-rcm25-esm29-rsr2-rcr11-esr29.npz,,,,,0,35,35,321,,left,green,2.88,354.6534869670868,355.1344459056854,1,,7,6,lightness,readingArea,realistic,75,2023-04-01_13h23.30.484,tripletExp_regina_11082022,2022.2.4,120.57067131206684,
4,8,14,2,0.694444444444444,0.298245614035088,2,0.25,1.0,2,0.25,3.10526315789474,ReadingArea_rsl2-rcl69-esl29-rsm2-rcm25-esm100-rsr2-rcr25-esr310,exr/ReadingArea_rsl2-rcl69-esl29-rsm2-rcm25-esm100-rsr2-rcr25-esr310.exr,ReadingArea_rsl2-rcl69-esl29-rsm2-rcm25-esm100-rsr2-rcr25-esr310.npz,,,,,0,36,36,234,,left,green,1.35,356.84976601600647,357.35287594795227,1,,7,6,lightness,readingArea,realistic,75,2023-04-01_13h23.30.484,tripletExp_regina_11082022,2022.2.4,120.57067131206684,
11,12,4,2,1.0,1.0,2,0.027777777777778,3.10526315789474,2,0.694444444444444,0.298245614035088,ReadingArea_rsl2-rcl100-esl100-rsm2-rcm2-esm310-rsr2-rcr69-esr29,exr/ReadingArea_rsl2-rcl100-esl100-rsm2-rcm2-esm310-rsr2-rcr69-esr29.exr,ReadingArea_rsl2-rcl100-esl100-rsm2-rcm2-esm310-rsr2-rcr69-esr29.npz,,,,,0,37,37,250,,right,red,2.81,360.8361940383911,361.3672308921814,1,,7,6,lightness,readingArea,realistic,75,2023-04-01_13h23.30.484,tripletExp_regina_11082022,2022.2.4,120.57067131206684,
12,3,11,2,0.027777777777778,3.10526315789474,2,0.444444444444444,0.298245614035088,2,1.0,1.0,ReadingArea_rsl2-rcl2-esl310-rsm2-rcm44-esm29-rsr2-rcr100-esr100,exr/ReadingArea_rsl2-rcl2-esl310-rsm2-rcm44-esm29-rsr2-rcr100-esr100.exr,ReadingArea_rsl2-rcl2-esl310-rsm2-rcm44-esm29-rsr2-rcr100-esr100.npz,,,,,0,38,38,83,,right,red,4.67,366.614413022995,367.1030678749085,1,,7,6,lightness,readingArea,realistic,75,2023-04-01_13h23.30.484,tripletExp_regina_11082022,2022.2.4,120.57067131206684,
4,0,3,2,0.694444444444444,0.298245614035088,2,0.027777777777778,0.298245614035088,2,0.444444444444444,0.298245614035088,ReadingArea_rsl2-rcl69-esl29-rsm2-rcm2-esm29-rsr2-rcr44-esr29,exr/ReadingArea_rsl2-rcl69-esl29-rsm2-rcm2-esm29-rsr2-rcr44-esr29.exr,ReadingArea_rsl2-rcl69-esl29-rsm2-rcm2-esm29-rsr2-rcr44-esr29.npz,,,,,0,39,39,88,,right,red,2.45,370.5797040462494,371.0532379150391,1,,7,6,lightness,readingArea,realistic,75,2023-04-01_13h23.30.484,tripletExp_regina_11082022,2022.2.4,120.57067131206684,
13,2,9,2,0.111111111111111,3.10526315789474,2,0.25,0.298245614035088,2,0.444444444444444,1.0,ReadingArea_rsl2-rcl11-esl310-rsm2-rcm25-esm29-rsr2-rcr44-esr100,exr/ReadingArea_rsl2-rcl11-esl310-rsm2-rcm25-esm29-rsr2-rcr44-esr100.exr,ReadingArea_rsl2-rcl11-esl310-rsm2-rcm25-esm29-rsr2-rcr44-esr100.npz,,,,,0,40,40,457,,left,green,2.37,374.533695936203,375.0299470424652,1,,7,6,lightness,readingArea,realistic,75,2023-04-01_13h23.30.484,tripletExp_regina_11082022,2022.2.4,120.57067131206684,
6,0,4,2,0.027777777777778,1.0,2,0.027777777777778,0.298245614035088,2,0.694444444444444,0.298245614035088,ReadingArea_rsl2-rcl2-esl100-rsm2-rcm2-esm29-rsr2-rcr69-esr29,exr/ReadingArea_rsl2-rcl2-esl100-rsm2-rcm2-esm29-rsr2-rcr69-esr29.exr,ReadingArea_rsl2-rcl2-esl100-rsm2-rcm2-esm29-rsr2-rcr69-esr29.npz,,,,,0,41,41,555,,left,green,1.19,376.7235188484192,377.1929278373718,1,,7,6,lightness,readingArea,realistic,75,2023-04-01_13h23.30.484,tripletExp_regina_11082022,2022.2.4,120.57067131206684,
14,9,0,2,0.25,3.10526315789474,2,0.444444444444444,1.0,2,0.027777777777778,0.298245614035088,ReadingArea_rsl2-rcl25-esl310-rsm2-rcm44-esm100-rsr2-rcr2-esr29,exr/ReadingArea_rsl2-rcl25-esl310-rsm2-rcm44-esm100-rsr2-rcr2-esr29.exr,ReadingArea_rsl2-rcl25-esl310-rsm2-rcm44-esm100-rsr2-rcr2-esr29.npz,,,,,0,42,42,313,,left,green,0.9,378.9116108417511,379.3929169178009,1,,7,6,lightness,readingArea,realistic,75,2023-04-01_13h23.30.484,tripletExp_regina_11082022,2022.2.4,120.57067131206684,
13,10,3,2,0.111111111111111,3.10526315789474,2,0.694444444444444,1.0,2,0.444444444444444,0.298245614035088,ReadingArea_rsl2-rcl11-esl310-rsm2-rcm69-esm100-rsr2-rcr44-esr29,exr/ReadingArea_rsl2-rcl11-esl310-rsm2-rcm69-esm100-rsr2-rcr44-esr29.exr,ReadingArea_rsl2-rcl11-esl310-rsm2-rcm69-esm100-rsr2-rcr44-esr29.npz,,,,,0,43,43,224,,right,red,2.17,382.8798229694367,383.3770098686218,1,,7,6,lightness,readingArea,realistic,75,2023-04-01_13h23.30.484,tripletExp_regina_11082022,2022.2.4,120.57067131206684,
5,0,11,2,1.0,0.298245614035088,2,0.027777777777778,0.298245614035088,2,1.0,1.0,ReadingArea_rsl2-rcl100-esl29-rsm2-rcm2-esm29-rsr2-rcr100-esr100,exr/ReadingArea_rsl2-rcl100-esl29-rsm2-rcm2-esm29-rsr2-rcr100-esr100.exr,ReadingArea_rsl2-rcl100-esl29-rsm2-rcm2-esm29-rsr2-rcr100-esr100.npz,,,,,0,44,44,547,,left,green,2.2,386.8704500198364,,1,,7,6,lightness,readingArea,realistic,75,2023-04-01_13h23.30.484,tripletExp_regina_11082022,2022.2.4,120.57067131206684,
3,14,12,2,0.444444444444444,0.298245614035088,2,0.25,3.10526315789474,2,0.027777777777778,3.10526315789474,ReadingArea_rsl2-rcl44-esl29-rsm2-rcm25-esm310-rsr2-rcr2-esr310,exr/ReadingArea_rsl2-rcl44-esl29-rsm2-rcm25-esm310-rsr2-rcr2-esr310.exr,ReadingArea_rsl2-rcl44-esl29-rsm2-rcm25-esm310-rsr2-rcr2-esr310.npz,,,,,0,45,45,336,,left,green,0.97,389.0700378417969,389.571888923645,1,,7,6,lightness,readingArea,realistic,75,2023-04-01_13h23.30.484,tripletExp_regina_11082022,2022.2.4,120.57067131206684,
14,9,12,2,0.25,3.10526315789474,2,0.444444444444444,1.0,2,0.027777777777778,3.10526315789474,ReadingArea_rsl2-rcl25-esl310-rsm2-rcm44-esm100-rsr2-rcr2-esr310,exr/ReadingArea_rsl2-rcl25-esl310-rsm2-rcm44-esm100-rsr2-rcr2-esr310.exr,ReadingArea_rsl2-rcl25-esl310-rsm2-rcm44-esm100-rsr2-rcr2-esr310.npz,,,,,0,46,46,378,,left,green,0.88,391.2816350460053,391.7543230056762,1,,7,6,lightness,readingArea,realistic,75,2023-04-01_13h23.30.484,tripletExp_regina_11082022,2022.2.4,120.57067131206684,
9,4,11,2,0.444444444444444,1.0,2,0.694444444444444,0.298245614035088,2,1.0,1.0,ReadingArea_rsl2-rcl44-esl100-rsm2-rcm69-esm29-rsr2-rcr100-esr100,exr/ReadingArea_rsl2-rcl44-esl100-rsm2-rcm69-esm29-rsr2-rcr100-esr100.exr,ReadingArea_rsl2-rcl44-esl100-rsm2-rcm69-esm29-rsr2-rcr100-esr100.npz,,,,,0,47,47,133,,left,green,2.36,395.2576589584351,395.7520020008087,1,,7,6,lightness,readingArea,realistic,75,2023-04-01_13h23.30.484,tripletExp_regina_11082022,2022.2.4,120.57067131206684,
5,7,14,2,1.0,0.298245614035088,2,0.111111111111111,1.0,2,0.25,3.10526315789474,ReadingArea_rsl2-rcl100-esl29-rsm2-rcm11-esm100-rsr2-rcr25-esr310,exr/ReadingArea_rsl2-rcl100-esl29-rsm2-rcm11-esm100-rsr2-rcr25-esr310.exr,ReadingArea_rsl2-rcl100-esl29-rsm2-rcm11-esm100-rsr2-rcr25-esr310.npz,,,,,0,48,48,210,,left,green,2.53,399.229740858078,399.7243769168854,1,,7,6,lightness,readingArea,realistic,75,2023-04-01_13h23.30.484,tripletExp_regina_11082022,2022.2.4,120.57067131206684,
13,1,3,2,0.111111111111111,3.10526315789474,2,0.111111111111111,0.298245614035088,2,0.444444444444444,0.298245614035088,ReadingArea_rsl2-rcl11-esl310-rsm2-rcm11-esm29-rsr2-rcr44-esr29,exr/ReadingArea_rsl2-rcl11-esl310-rsm2-rcm11-esm29-rsr2-rcr44-esr29.exr,ReadingArea_rsl2-rcl11-esl310-rsm2-rcm11-esm29-rsr2-rcr44-esr29.npz,,,,,0,49,49,588,,left,green,2.55,403.205029964447,403.7045669555664,1,,7,6,lightness,readingArea,realistic,75,2023-04-01_13h23.30.484,tripletExp_regina_11082022,2022.2.4,120.57067131206684,
6,11,7,2,0.027777777777778,1.0,2,1.0,1.0,2,0.111111111111111,1.0,ReadingArea_rsl2-rcl2-esl100-rsm2-rcm100-esm100-rsr2-rcr11-esr100,exr/ReadingArea_rsl2-rcl2-esl100-rsm2-rcm100-esm100-rsr2-rcr11-esr100.exr,ReadingArea_rsl2-rcl2-esl100-rsm2-rcm100-esm100-rsr2-rcr11-esr100.npz,,,,,0,50,50,571,,right,red,1.49,405.4277799129486,405.90290093421936,1,,7,6,lightness,readingArea,realistic,75,2023-04-01_13h23.30.484,tripletExp_regina_11082022,2022.2.4,120.57067131206684,
6,0,14,2,0.027777777777778,1.0,2,0.027777777777778,0.298245614035088,2,0.25,3.10526315789474,ReadingArea_rsl2-rcl2-esl100-rsm2-rcm2-esm29-rsr2-rcr25-esr310,exr/ReadingArea_rsl2-rcl2-esl100-rsm2-rcm2-esm29-rsr2-rcr25-esr310.exr,ReadingArea_rsl2-rcl2-esl100-rsm2-rcm2-esm29-rsr2-rcr25-esr310.npz,,,,,0,51,51,169,,left,green,0.89,407.5948710441589,408.0620229244232,1,,7,6,lightness,readingArea,realistic,75,2023-04-01_13h23.30.484,tripletExp_regina_11082022,2022.2.4,120.57067131206684,
0,8,9,2,0.027777777777778,0.298245614035088,2,0.25,1.0,2,0.444444444444444,1.0,ReadingArea_rsl2-rcl2-esl29-rsm2-rcm25-esm100-rsr2-rcr44-esr100,exr/ReadingArea_rsl2-rcl2-esl29-rsm2-rcm25-esm100-rsr2-rcr44-esr100.exr,ReadingArea_rsl2-rcl2-esl29-rsm2-rcm25-esm100-rsr2-rcr44-esr100.npz,,,,,0,52,52,541,,right,red,0.91,409.75185203552246,410.2435789108277,1,,7,6,lightness,readingArea,realistic,75,2023-04-01_13h23.30.484,tripletExp_regina_11082022,2022.2.4,120.57067131206684,
2,14,7,2,0.25,0.298245614035088,2,0.25,3.10526315789474,2,0.111111111111111,1.0,ReadingArea_rsl2-rcl25-esl29-rsm2-rcm25-esm310-rsr2-rcr11-esr100,exr/ReadingArea_rsl2-rcl25-esl29-rsm2-rcm25-esm310-rsr2-rcr11-esr100.exr,ReadingArea_rsl2-rcl25-esl29-rsm2-rcm25-esm310-rsr2-rcr11-esr100.npz,,,,,0,53,53,310,,left,green,2.37,413.70030188560486,414.25534296035767,1,,7,6,lightness,readingArea,realistic,75,2023-04-01_13h23.30.484,tripletExp_regina_11082022,2022.2.4,120.57067131206684,
8,11,1,2,0.25,1.0,2,1.0,1.0,2,0.111111111111111,0.298245614035088,ReadingArea_rsl2-rcl25-esl100-rsm2-rcm100-esm100-rsr2-rcr11-esr29,exr/ReadingArea_rsl2-rcl25-esl100-rsm2-rcm100-esm100-rsr2-rcr11-esr29.exr,ReadingArea_rsl2-rcl25-esl100-rsm2-rcm100-esm100-rsr2-rcr11-esr29.npz,,,,,0,54,54,132,,left,green,0.93,415.9566299915314,416.4239180088043,1,,7,6,lightness,readingArea,realistic,75,2023-04-01_13h23.30.484,tripletExp_regina_11082022,2022.2.4,120.57067131206684,
9,4,14,2,0.444444444444444,1.0,2,0.694444444444444,0.298245614035088,2,0.25,3.10526315789474,ReadingArea_rsl2-rcl44-esl100-rsm2-rcm69-esm29-rsr2-rcr25-esr310,exr/ReadingArea_rsl2-rcl44-esl100-rsm2-rcm69-esm29-rsr2-rcr25-esr310.exr,ReadingArea_rsl2-rcl44-esl100-rsm2-rcm69-esm29-rsr2-rcr25-esr310.npz,,,,,0,55,55,104,,left,green,2.5,419.9164628982544,420.39812088012695,1,,7,6,lightness,readingArea,realistic,75,2023-04-01_13h23.30.484,tripletExp_regina_11082022,2022.2.4,120.57067131206684,
2,1,14,2,0.25,0.298245614035088,2,0.111111111111111,0.298245614035088,2,0.25,3.10526315789474,ReadingArea_rsl2-rcl25-esl29-rsm2-rcm11-esm29-rsr2-rcr25-esr310,exr/ReadingArea_rsl2-rcl25-esl29-rsm2-rcm11-esm29-rsr2-rcr25-esr310.exr,ReadingArea_rsl2-rcl25-esl29-rsm2-rcm11-esm29-rsr2-rcr25-esr310.npz,,,,,0,56,56,59,,left,green,0.85,422.11150193214417,422.5945439338684,1,,7,6,lightness,readingArea,realistic,75,2023-04-01_13h23.30.484,tripletExp_regina_11082022,2022.2.4,120.57067131206684,
0,1,7,2,0.027777777777778,0.298245614035088,2,0.111111111111111,0.298245614035088,2,0.111111111111111,1.0,ReadingArea_rsl2-rcl2-esl29-rsm2-rcm11-esm29-rsr2-rcr11-esr100,exr/ReadingArea_rsl2-rcl2-esl29-rsm2-rcm11-esm29-rsr2-rcr11-esr100.exr,ReadingArea_rsl2-rcl2-esl29-rsm2-rcm11-esm29-rsr2-rcr11-esr100.npz,,,,,0,57,57,243,,right,red,0.85,424.3015298843384,,1,,7,6,lightness,readingArea,realistic,75,2023-04-01_13h23.30.484,tripletExp_regina_11082022,2022.2.4,120.57067131206684,
2,1,8,2,0.25,0.298245614035088,2,0.111111111111111,0.298245614035088,2,0.25,1.0,ReadingArea_rsl2-rcl25-esl29-rsm2-rcm11-esm29-rsr2-rcr25-esr100,exr/ReadingArea_rsl2-rcl25-esl29-rsm2-rcm11-esm29-rsr2-rcr25-esr100.exr,ReadingArea_rsl2-rcl25-esl29-rsm2-rcm11-esm29-rsr2-rcr25-esr100.npz,,,,,0,58,58,125,,left,green,1.22,426.4754469394684,426.9708158969879,1,,7,6,lightness,readingArea,realistic,75,2023-04-01_13h23.30.484,tripletExp_regina_11082022,2022.2.4,120.57067131206684,
3,13,6,2,0.444444444444444,0.298245614035088,2,0.111111111111111,3.10526315789474,2,0.027777777777778,1.0,ReadingArea_rsl2-rcl44-esl29-rsm2-rcm11-esm310-rsr2-rcr2-esr100,exr/ReadingArea_rsl2-rcl44-esl29-rsm2-rcm11-esm310-rsr2-rcr2-esr100.exr,ReadingArea_rsl2-rcl44-esl29-rsm2-rcm11-esm310-rsr2-rcr2-esr100.npz,,,,,0,59,59,199,,left,green,1.24,428.6925678253174,429.25336599349976,1,,7,6,lightness,readingArea,realistic,75,2023-04-01_13h23.30.484,tripletExp_regina_11082022,2022.2.4,120.57067131206684,
6,5,13,2,0.027777777777778,1.0,2,1.0,0.298245614035088,2,0.111111111111111,3.10526315789474,ReadingArea_rsl2-rcl2-esl100-rsm2-rcm100-esm29-rsr2-rcr11-esr310,exr/ReadingArea_rsl2-rcl2-esl100-rsm2-rcm100-esm29-rsr2-rcr11-esr310.exr,ReadingArea_rsl2-rcl2-esl100-rsm2-rcm100-esm29-rsr2-rcr11-esr310.npz,,,,,0,60,60,450,,right,red,1.31,430.97287702560425,431.4796869754791,1,,7,6,lightness,readingArea,realistic,75,2023-04-01_13h23.30.484,tripletExp_regina_11082022,2022.2.4,120.57067131206684,
3,14,4,2,0.444444444444444,0.298245614035088,2,0.25,3.10526315789474,2,0.694444444444444,0.298245614035088,ReadingArea_rsl2-rcl44-esl29-rsm2-rcm25-esm310-rsr2-rcr69-esr29,exr/ReadingArea_rsl2-rcl44-esl29-rsm2-rcm25-esm310-rsr2-rcr69-esr29.exr,ReadingArea_rsl2-rcl44-esl29-rsm2-rcm25-esm310-rsr2-rcr69-esr29.npz,,,,,0,61,61,537,,right,red,2.63,434.9322979450226,435.41099286079407,1,,7,6,lightness,readingArea,realistic,75,2023-04-01_13h23.30.484,tripletExp_regina_11082022,2022.2.4,120.57067131206684,
10,11,9,2,0.694444444444444,1.0,2,1.0,1.0,2,0.444444444444444,1.0,ReadingArea_rsl2-rcl69-esl100-rsm2-rcm100-esm100-rsr2-rcr44-esr100,exr/ReadingArea_rsl2-rcl69-esl100-rsm2-rcm100-esm100-rsr2-rcr44-esr100.exr,ReadingArea_rsl2-rcl69-esl100-rsm2-rcm100-esm100-rsr2-rcr44-esr100.npz,,,,,0,62,62,492,,left,green,1.15,437.1313920021057,437.621367931366,1,,7,6,lightness,readingArea,realistic,75,2023-04-01_13h23.30.484,tripletExp_regina_11082022,2022.2.4,120.57067131206684,
14,2,0,2,0.25,3.10526315789474,2,0.25,0.298245614035088,2,0.027777777777778,0.298245614035088,ReadingArea_rsl2-rcl25-esl310-rsm2-rcm25-esm29-rsr2-rcr2-esr29,exr/ReadingArea_rsl2-rcl25-esl310-rsm2-rcm25-esm29-rsr2-rcr2-esr29.exr,ReadingArea_rsl2-rcl25-esl310-rsm2-rcm25-esm29-rsr2-rcr2-esr29.npz,,,,,0,63,63,460,,right,red,2.82,441.10598492622375,441.5967090129852,1,,7,6,lightness,readingArea,realistic,75,2023-04-01_13h23.30.484,tripletExp_regina_11082022,2022.2.4,120.57067131206684,
5,3,6,2,1.0,0.298245614035088,2,0.444444444444444,0.298245614035088,2,0.027777777777778,1.0,ReadingArea_rsl2-rcl100-esl29-rsm2-rcm44-esm29-rsr2-rcr2-esr100,exr/ReadingArea_rsl2-rcl100-esl29-rsm2-rcm44-esm29-rsr2-rcr2-esr100.exr,ReadingArea_rsl2-rcl100-esl29-rsm2-rcm44-esm29-rsr2-rcr2-esr100.npz,,,,,0,64,64,316,,left,green,1.22,443.3114290237427,443.778697013855,1,,7,6,lightness,readingArea,realistic,75,2023-04-01_13h23.30.484,tripletExp_regina_11082022,2022.2.4,120.57067131206684,
7,14,3,2,0.111111111111111,1.0,2,0.25,3.10526315789474,2,0.444444444444444,0.298245614035088,ReadingArea_rsl2-rcl11-esl100-rsm2-rcm25-esm310-rsr2-rcr44-esr29,exr/ReadingArea_rsl2-rcl11-esl100-rsm2-rcm25-esm310-rsr2-rcr44-esr29.exr,ReadingArea_rsl2-rcl11-esl100-rsm2-rcm25-esm310-rsr2-rcr44-esr29.npz,,,,,0,65,65,103,,right,red,2.14,447.252907037735,447.7494769096375,1,,7,6,lightness,readingArea,realistic,75,2023-04-01_13h23.30.484,tripletExp_regina_11082022,2022.2.4,120.57067131206684,
0,13,12,2,0.027777777777778,0.298245614035088,2,0.111111111111111,3.10526315789474,2,0.027777777777778,3.10526315789474,ReadingArea_rsl2-rcl2-esl29-rsm2-rcm11-esm310-rsr2-rcr2-esr310,exr/ReadingArea_rsl2-rcl2-esl29-rsm2-rcm11-esm310-rsr2-rcr2-esr310.exr,ReadingArea_rsl2-rcl2-esl29-rsm2-rcm11-esm310-rsr2-rcr2-esr310.npz,,,,,0,66,66,501,,right,red,2.2,451.2210869789124,451.72686982154846,1,,7,6,lightness,readingArea,realistic,75,2023-04-01_13h23.30.484,tripletExp_regina_11082022,2022.2.4,120.57067131206684,
9,6,13,2,0.444444444444444,1.0,2,0.027777777777778,1.0,2,0.111111111111111,3.10526315789474,ReadingArea_rsl2-rcl44-esl100-rsm2-rcm2-esm100-rsr2-rcr11-esr310,exr/ReadingArea_rsl2-rcl44-esl100-rsm2-rcm2-esm100-rsr2-rcr11-esr310.exr,ReadingArea_rsl2-rcl44-esl100-rsm2-rcm2-esm100-rsr2-rcr11-esr310.npz,,,,,0,67,67,285,,right,red,2.24,455.1765868663788,455.7047779560089,1,,7,6,lightness,readingArea,realistic,75,2023-04-01_13h23.30.484,tripletExp_regina_11082022,2022.2.4,120.57067131206684,
9,0,3,2,0.444444444444444,1.0,2,0.027777777777778,0.298245614035088,2,0.444444444444444,0.298245614035088,ReadingArea_rsl2-rcl44-esl100-rsm2-rcm2-esm29-rsr2-rcr44-esr29,exr/ReadingArea_rsl2-rcl44-esl100-rsm2-rcm2-esm29-rsr2-rcr44-esr29.exr,ReadingArea_rsl2-rcl44-esl100-rsm2-rcm2-esm29-rsr2-rcr44-esr29.npz,,,,,0,68,68,2,,right,red,2.23,459.20156502723694,459.6776540279389,1,,7,6,lightness,readingArea,realistic,75,2023-04-01_13h23.30.484,tripletExp_regina_11082022,2022.2.4,120.57067131206684,
2,4,14,2,0.25,0.298245614035088,2,0.694444444444444,0.298245614035088,2,0.25,3.10526315789474,ReadingArea_rsl2-rcl25-esl29-rsm2-rcm69-esm29-rsr2-rcr25-esr310,exr/ReadingArea_rsl2-rcl25-esl29-rsm2-rcm69-esm29-rsr2-rcr25-esr310.exr,ReadingArea_rsl2-rcl25-esl29-rsm2-rcm69-esm29-rsr2-rcr25-esr310.npz,,,,,0,69,69,356,,right,red,1.21,461.3871269226074,461.86769700050354,1,,7,6,lightness,readingArea,realistic,75,2023-04-01_13h23.30.484,tripletExp_regina_11082022,2022.2.4,120.57067131206684,
11,8,10,2,1.0,1.0,2,0.25,1.0,2,0.694444444444444,1.0,ReadingArea_rsl2-rcl100-esl100-rsm2-rcm25-esm100-rsr2-rcr69-esr100,exr/ReadingArea_rsl2-rcl100-esl100-rsm2-rcm25-esm100-rsr2-rcr69-esr100.exr,ReadingArea_rsl2-rcl100-esl100-rsm2-rcm25-esm100-rsr2-rcr69-esr100.npz,,,,,0,70,70,67,,left,green,1.26,463.57400584220886,,1,,7,6,lightness,readingArea,realistic,75,2023-04-01_13h23.30.484,tripletExp_regina_11082022,2022.2.4,120.57067131206684,
7,8,12,2,0.111111111111111,1.0,2,0.25,1.0,2,0.027777777777778,3.10526315789474,ReadingArea_rsl2-rcl11-esl100-rsm2-rcm25-esm100-rsr2-rcr2-esr310,exr/ReadingArea_rsl2-rcl11-esl100-rsm2-rcm25-esm100-rsr2-rcr2-esr310.exr,ReadingArea_rsl2-rcl11-esl100-rsm2-rcm25-esm100-rsr2-rcr2-esr310.npz,,,,,0,71,71,271,,left,green,1.3,465.7755348682404,466.2662589550018,1,,7,6,lightness,readingArea,realistic,75,2023-04-01_13h23.30.484,tripletExp_regina_11082022,2022.2.4,120.57067131206684,
9,11,6,2,0.444444444444444,1.0,2,1.0,1.0,2,0.027777777777778,1.0,ReadingArea_rsl2-rcl44-esl100-rsm2-rcm100-esm100-rsr2-rcr2-esr100,exr/ReadingArea_rsl2-rcl44-esl100-rsm2-rcm100-esm100-rsr2-rcr2-esr100.exr,ReadingArea_rsl2-rcl44-esl100-rsm2-rcm100-esm100-rsr2-rcr2-esr100.npz,,,,,0,72,72,404,,left,green,1.09,467.9573848247528,468.43945693969727,1,,7,6,lightness,readingArea,realistic,75,2023-04-01_13h23.30.484,tripletExp_regina_11082022,2022.2.4,120.57067131206684,
4,2,13,2,0.694444444444444,0.298245614035088,2,0.25,0.298245614035088,2,0.111111111111111,3.10526315789474,ReadingArea_rsl2-rcl69-esl29-rsm2-rcm25-esm29-rsr2-rcr11-esr310,exr/ReadingArea_rsl2-rcl69-esl29-rsm2-rcm25-esm29-rsr2-rcr11-esr310.exr,ReadingArea_rsl2-rcl69-esl29-rsm2-rcm25-esm29-rsr2-rcr11-esr310.npz,,,,,0,73,73,304,,right,red,2.69,471.9288489818573,472.4710919857025,1,,7,6,lightness,readingArea,realistic,75,2023-04-01_13h23.30.484,tripletExp_regina_11082022,2022.2.4,120.57067131206684,
5,11,8,2,1.0,0.298245614035088,2,1.0,1.0,2,0.25,1.0,ReadingArea_rsl2-rcl100-esl29-rsm2-rcm100-esm100-rsr2-rcr25-esr100,exr/ReadingArea_rsl2-rcl100-esl29-rsm2-rcm100-esm100-rsr2-rcr25-esr100.exr,ReadingArea_rsl2-rcl100-esl29-rsm2-rcm100-esm100-rsr2-rcr25-esr100.npz,,,,,0,74,74,548,,left,green,1.39,474.1683008670807,474.37459683418274,1,,7,6,lightness,readingArea,realistic,75,2023-04-01_13h23.30.484,tripletExp_regina_11082022,2022.2.4,120.57067131206684,
14,10,5,2,0.25,3.10526315789474,2,0.694444444444444,1.0,2,1.0,0.298245614035088,ReadingArea_rsl2-rcl25-esl310-rsm2-rcm69-esm100-rsr2-rcr100-esr29,exr/ReadingArea_rsl2-rcl25-esl310-rsm2-rcm69-esm100-rsr2-rcr100-esr29.exr,ReadingArea_rsl2-rcl25-esl310-rsm2-rcm69-esm100-rsr2-rcr100-esr29.npz,,,,,0,75,75,96,,left,green,2.39,504.94031500816345,505.4408638477325,2,,7,6,lightness,readingArea,realistic,75,2023-04-01_13h23.30.484,tripletExp_regina_11082022,2022.2.4,120.57067131206684,
2,3,4,2,0.25,0.298245614035088,2,0.444444444444444,0.298245614035088,2,0.694444444444444,0.298245614035088,ReadingArea_rsl2-rcl25-esl29-rsm2-rcm44-esm29-rsr2-rcr69-esr29,exr/ReadingArea_rsl2-rcl25-esl29-rsm2-rcm44-esm29-rsr2-rcr69-esr29.exr,ReadingArea_rsl2-rcl25-esl29-rsm2-rcm44-esm29-rsr2-rcr69-esr29.npz,,,,,0,76,76,61,,right,red,2.67,508.932657957077,509.41774702072144,2,,7,6,lightness,readingArea,realistic,75,2023-04-01_13h23.30.484,tripletExp_regina_11082022,2022.2.4,120.57067131206684,
14,6,12,2,0.25,3.10526315789474,2,0.027777777777778,1.0,2,0.027777777777778,3.10526315789474,ReadingArea_rsl2-rcl25-esl310-rsm2-rcm2-esm100-rsr2-rcr2-esr310,exr/ReadingArea_rsl2-rcl25-esl310-rsm2-rcm2-esm100-rsr2-rcr2-esr310.exr,ReadingArea_rsl2-rcl25-esl310-rsm2-rcm2-esm100-rsr2-rcr2-esr310.npz,,,,,0,77,77,242,,right,red,0.84,511.1417539119721,511.6665790081024,2,,7,6,lightness,readingArea,realistic,75,2023-04-01_13h23.30.484,tripletExp_regina_11082022,2022.2.4,120.57067131206684,
4,14,1,2,0.694444444444444,0.298245614035088,2,0.25,3.10526315789474,2,0.111111111111111,0.298245614035088,ReadingArea_rsl2-rcl69-esl29-rsm2-rcm25-esm310-rsr2-rcr11-esr29,exr/ReadingArea_rsl2-rcl69-esl29-rsm2-rcm25-esm310-rsr2-rcr11-esr29.exr,ReadingArea_rsl2-rcl69-esl29-rsm2-rcm25-esm310-rsr2-rcr11-esr29.npz,,,,,0,78,78,477,,left,green,0.96,513.3686189651489,513.8340258598328,2,,7,6,lightness,readingArea,realistic,75,2023-04-01_13h23.30.484,tripletExp_regina_11082022,2022.2.4,120.57067131206684,
2,1,12,2,0.25,0.298245614035088,2,0.111111111111111,0.298245614035088,2,0.027777777777778,3.10526315789474,ReadingArea_rsl2-rcl25-esl29-rsm2-rcm11-esm29-rsr2-rcr2-esr310,exr/ReadingArea_rsl2-rcl25-esl29-rsm2-rcm11-esm29-rsr2-rcr2-esr310.exr,ReadingArea_rsl2-rcl25-esl29-rsm2-rcm11-esm29-rsr2-rcr2-esr310.npz,,,,,0,79,79,12,,right,red,3.88,519.0822558403015,519.5753259658813,2,,7,6,lightness,readingArea,realistic,75,2023-04-01_13h23.30.484,tripletExp_regina_11082022,2022.2.4,120.57067131206684,
13,9,4,2,0.111111111111111,3.10526315789474,2,0.444444444444444,1.0,2,0.694444444444444,0.298245614035088,ReadingArea_rsl2-rcl11-esl310-rsm2-rcm44-esm100-rsr2-rcr69-esr29,exr/ReadingArea_rsl2-rcl11-esl310-rsm2-rcm44-esm100-rsr2-rcr69-esr29.exr,ReadingArea_rsl2-rcl11-esl310-rsm2-rcm44-esm100-rsr2-rcr69-esr29.npz,,,,,0,80,80,444,,right,red,2.14,523.0243458747864,523.542237997055,2,,7,6,lightness,readingArea,realistic,75,2023-04-01_13h23.30.484,tripletExp_regina_11082022,2022.2.4,120.57067131206684,
8,13,2,2,0.25,1.0,2,0.111111111111111,3.10526315789474,2,0.25,0.298245614035088,ReadingArea_rsl2-rcl25-esl100-rsm2-rcm11-esm310-rsr2-rcr25-esr29,exr/ReadingArea_rsl2-rcl25-esl100-rsm2-rcm11-esm310-rsr2-rcr25-esr29.exr,ReadingArea_rsl2-rcl25-esl100-rsm2-rcm11-esm310-rsr2-rcr25-esr29.npz,,,,,0,81,81,376,,left,green,2.48,527.004546880722,527.4992339611053,2,,7,6,lightness,readingArea,realistic,75,2023-04-01_13h23.30.484,tripletExp_regina_11082022,2022.2.4,120.57067131206684,
6,2,12,2,0.027777777777778,1.0,2,0.25,0.298245614035088,2,0.027777777777778,3.10526315789474,ReadingArea_rsl2-rcl2-esl100-rsm2-rcm25-esm29-rsr2-rcr2-esr310,exr/ReadingArea_rsl2-rcl2-esl100-rsm2-rcm25-esm29-rsr2-rcr2-esr310.exr,ReadingArea_rsl2-rcl2-esl100-rsm2-rcm25-esm29-rsr2-rcr2-esr310.npz,,,,,0,82,82,480,,right,red,1.33,529.1925418376923,,2,,7,6,lightness,readingArea,realistic,75,2023-04-01_13h23.30.484,tripletExp_regina_11082022,2022.2.4,120.57067131206684,
1,8,12,2,0.111111111111111,0.298245614035088,2,0.25,1.0,2,0.027777777777778,3.10526315789474,ReadingArea_rsl2-rcl11-esl29-rsm2-rcm25-esm100-rsr2-rcr2-esr310,exr/ReadingArea_rsl2-rcl11-esl29-rsm2-rcm25-esm100-rsr2-rcr2-esr310.exr,ReadingArea_rsl2-rcl11-esl29-rsm2-rcm25-esm100-rsr2-rcr2-esr310.npz,,,,,0,83,83,156,,right,red,1.43,531.4493329524994,531.9374039173126,2,,7,6,lightness,readingArea,realistic,75,2023-04-01_13h23.30.484,tripletExp_regina_11082022,2022.2.4,120.57067131206684,
2,6,0,2,0.25,0.298245614035088,2,0.027777777777778,1.0,2,0.027777777777778,0.298245614035088,ReadingArea_rsl2-rcl25-esl29-rsm2-rcm2-esm100-rsr2-rcr2-esr29,exr/ReadingArea_rsl2-rcl25-esl29-rsm2-rcm2-esm100-rsr2-rcr2-esr29.exr,ReadingArea_rsl2-rcl25-esl29-rsm2-rcm2-esm100-rsr2-rcr2-esr29.npz,,,,,0,84,84,525,,right,red,2.95,535.3956780433655,535.9144039154053,2,,7,6,lightness,readingArea,realistic,75,2023-04-01_13h23.30.484,tripletExp_regina_11082022,2022.2.4,120.57067131206684,
7,11,13,2,0.111111111111111,1.0,2,1.0,1.0,2,0.111111111111111,3.10526315789474,ReadingArea_rsl2-rcl11-esl100-rsm2-rcm100-esm100-rsr2-rcr11-esr310,exr/ReadingArea_rsl2-rcl11-esl100-rsm2-rcm100-esm100-rsr2-rcr11-esr310.exr,ReadingArea_rsl2-rcl11-esl100-rsm2-rcm100-esm100-rsr2-rcr11-esr310.npz,,,,,0,85,85,76,,right,red,1.4,537.6383049488068,538.1181139945984,2,,7,6,lightness,readingArea,realistic,75,2023-04-01_13h23.30.484,tripletExp_regina_11082022,2022.2.4,120.57067131206684,
0,4,9,2,0.027777777777778,0.298245614035088,2,0.694444444444444,0.298245614035088,2,0.444444444444444,1.0,ReadingArea_rsl2-rcl2-esl29-rsm2-rcm69-esm29-rsr2-rcr44-esr100,exr/ReadingArea_rsl2-rcl2-esl29-rsm2-rcm69-esm29-rsr2-rcr44-esr100.exr,ReadingArea_rsl2-rcl2-esl29-rsm2-rcm69-esm29-rsr2-rcr44-esr100.npz,,,,,0,86,86,21,,right,red,0.81,539.8120248317719,540.3243000507355,2,,7,6,lightness,readingArea,realistic,75,2023-04-01_13h23.30.484,tripletExp_regina_11082022,2022.2.4,120.57067131206684,
9,12,6,2,0.444444444444444,1.0,2,0.027777777777778,3.10526315789474,2,0.027777777777778,1.0,ReadingArea_rsl2-rcl44-esl100-rsm2-rcm2-esm310-rsr2-rcr2-esr100,exr/ReadingArea_rsl2-rcl44-esl100-rsm2-rcm2-esm310-rsr2-rcr2-esr100.exr,ReadingArea_rsl2-rcl44-esl100-rsm2-rcm2-esm310-rsr2-rcr2-esr100.npz,,,,,0,87,87,5,,right,red,0.94,542.0093548297882,542.4894099235535,2,,7,6,lightness,readingArea,realistic,75,2023-04-01_13h23.30.484,tripletExp_regina_11082022,2022.2.4,120.57067131206684,
14,6,2,2,0.25,3.10526315789474,2,0.027777777777778,1.0,2,0.25,0.298245614035088,ReadingArea_rsl2-rcl25-esl310-rsm2-rcm2-esm100-rsr2-rcr25-esr29,exr/ReadingArea_rsl2-rcl25-esl310-rsm2-rcm2-esm100-rsr2-rcr25-esr29.exr,ReadingArea_rsl2-rcl25-esl310-rsm2-rcm2-esm100-rsr2-rcr25-esr29.npz,,,,,0,88,88,272,,right,red,1.15,544.2129509449005,544.6815960407257,2,,7,6,lightness,readingArea,realistic,75,2023-04-01_13h23.30.484,tripletExp_regina_11082022,2022.2.4,120.57067131206684,
14,4,8,2,0.25,3.10526315789474,2,0.694444444444444,0.298245614035088,2,0.25,1.0,ReadingArea_rsl2-rcl25-esl310-rsm2-rcm69-esm29-rsr2-rcr25-esr100,exr/ReadingArea_rsl2-rcl25-esl310-rsm2-rcm69-esm29-rsr2-rcr25-esr100.exr,ReadingArea_rsl2-rcl25-esl310-rsm2-rcm69-esm29-rsr2-rcr25-esr100.npz,,,,,0,89,89,253,,right,red,1.3,546.3748099803925,547.0654540061951,2,,7,6,lightness,readingArea,realistic,75,2023-04-01_13h23.30.484,tripletExp_regina_11082022,2022.2.4,120.57067131206684,
0,10,14,2,0.027777777777778,0.298245614035088,2,0.694444444444444,1.0,2,0.25,3.10526315789474,ReadingArea_rsl2-rcl2-esl29-rsm2-rcm69-esm100-rsr2-rcr25-esr310,exr/ReadingArea_rsl2-rcl2-esl29-rsm2-rcm69-esm100-rsr2-rcr25-esr310.exr,ReadingArea_rsl2-rcl2-esl29-rsm2-rcm69-esm100-rsr2-rcr25-esr310.npz,,,,,0,90,90,31,,right,red,1.2,548.7608668804169,549.3511610031128,2,,7,6,lightness,readingArea,realistic,75,2023-04-01_13h23.30.484,tripletExp_regina_11082022,2022.2.4,120.57067131206684,
1,12,10,2,0.111111111111111,0.298245614035088,2,0.027777777777778,3.10526315789474,2,0.694444444444444,1.0,ReadingArea_rsl2-rcl11-esl29-rsm2-rcm2-esm310-rsr2-rcr69-esr100,exr/ReadingArea_rsl2-rcl11-esl29-rsm2-rcm2-esm310-rsr2-rcr69-esr100.exr,ReadingArea_rsl2-rcl11-esl29-rsm2-rcm2-esm310-rsr2-rcr69-esr100.npz,,,,,0,91,91,567,,left,green,1.08,551.0506370067596,551.6496188640594,2,,7,6,lightness,readingArea,realistic,75,2023-04-01_13h23.30.484,tripletExp_regina_11082022,2022.2.4,120.57067131206684,
0,5,11,2,0.027777777777778,0.298245614035088,2,1.0,0.298245614035088,2,1.0,1.0,ReadingArea_rsl2-rcl2-esl29-rsm2-rcm100-esm29-rsr2-rcr100-esr100,exr/ReadingArea_rsl2-rcl2-esl29-rsm2-rcm100-esm29-rsr2-rcr100-esr100.exr,ReadingArea_rsl2-rcl2-esl29-rsm2-rcm100-esm29-rsr2-rcr100-esr100.npz,,,,,0,92,92,422,,right,red,1.47,553.3397278785706,553.8390898704529,2,,7,6,lightness,readingArea,realistic,75,2023-04-01_13h23.30.484,tripletExp_regina_11082022,2022.2.4,120.57067131206684,
13,6,4,2,0.111111111111111,3.10526315789474,2,0.027777777777778,1.0,2,0.694444444444444,0.298245614035088,ReadingArea_rsl2-rcl11-esl310-rsm2-rcm2-esm100-rsr2-rcr69-esr29,exr/ReadingArea_rsl2-rcl11-esl310-rsm2-rcm2-esm100-rsr2-rcr69-esr29.exr,ReadingArea_rsl2-rcl11-esl310-rsm2-rcm2-esm100-rsr2-rcr69-esr29.npz,,,,,0,93,93,328,,left,green,3.24,557.3072998523712,557.8351359367371,2,,7,6,lightness,readingArea,realistic,75,2023-04-01_13h23.30.484,tripletExp_regina_11082022,2022.2.4,120.57067131206684,
8,6,11,2,0.25,1.0,2,0.027777777777778,1.0,2,1.0,1.0,ReadingArea_rsl2-rcl25-esl100-rsm2-rcm2-esm100-rsr2-rcr100-esr100,exr/ReadingArea_rsl2-rcl25-esl100-rsm2-rcm2-esm100-rsr2-rcr100-esr100.exr,ReadingArea_rsl2-rcl25-esl100-rsm2-rcm2-esm100-rsr2-rcr100-esr100.npz,,,,,0,94,94,236,,left,green,1.36,559.5237128734589,560.0160129070282,2,,7,6,lightness,readingArea,realistic,75,2023-04-01_13h23.30.484,tripletExp_regina_11082022,2022.2.4,120.57067131206684,
7,13,5,2,0.111111111111111,1.0,2,0.111111111111111,3.10526315789474,2,1.0,0.298245614035088,ReadingArea_rsl2-rcl11-esl100-rsm2-rcm11-esm310-rsr2-rcr100-esr29,exr/ReadingArea_rsl2-rcl11-esl100-rsm2-rcm11-esm310-rsr2-rcr100-esr29.exr,ReadingArea_rsl2-rcl11-esl100-rsm2-rcm11-esm310-rsr2-rcr100-esr29.npz,,,,,0,95,95,332,,left,green,1.22,561.7356288433075,562.2371850013733,2,,7,6,lightness,readingArea,realistic,75,2023-04-01_13h23.30.484,tripletExp_regina_11082022,2022.2.4,120.57067131206684,
9,13,5,2,0.444444444444444,1.0,2,0.111111111111111,3.10526315789474,2,1.0,0.298245614035088,ReadingArea_rsl2-rcl44-esl100-rsm2-rcm11-esm310-rsr2-rcr100-esr29,exr/ReadingArea_rsl2-rcl44-esl100-rsm2-rcm11-esm310-rsr2-rcr100-esr29.exr,ReadingArea_rsl2-rcl44-esl100-rsm2-rcm11-esm310-rsr2-rcr100-esr29.npz,,,,,0,96,96,349,,left,green,1.56,563.92573595047,564.4537498950958,2,,7,6,lightness,readingArea,realistic,75,2023-04-01_13h23.30.484,tripletExp_regina_11082022,2022.2.4,120.57067131206684,
12,10,9,2,0.027777777777778,3.10526315789474,2,0.694444444444444,1.0,2,0.444444444444444,1.0,ReadingArea_rsl2-rcl2-esl310-rsm2-rcm69-esm100-rsr2-rcr44-esr100,exr/ReadingArea_rsl2-rcl2-esl310-rsm2-rcm69-esm100-rsr2-rcr44-esr100.exr,ReadingArea_rsl2-rcl2-esl310-rsm2-rcm69-esm100-rsr2-rcr44-esr100.npz,,,,,0,97,97,126,,right,red,1.34,566.1563358306885,566.6344878673553,2,,7,6,lightness,readingArea,realistic,75,2023-04-01_13h23.30.484,tripletExp_regina_11082022,2022.2.4,120.57067131206684,
2,0,3,2,0.25,0.298245614035088,2,0.027777777777778,0.298245614035088,2,0.444444444444444,0.298245614035088,ReadingArea_rsl2-rcl25-esl29-rsm2-rcm2-esm29-rsr2-rcr44-esr29,exr/ReadingArea_rsl2-rcl25-esl29-rsm2-rcm2-esm29-rsr2-rcr44-esr29.exr,ReadingArea_rsl2-rcl25-esl29-rsm2-rcm2-esm29-rsr2-rcr44-esr29.npz,,,,,0,98,98,338,,left,green,2.21,570.1249380111694,570.6243989467621,2,,7,6,lightness,readingArea,realistic,75,2023-04-01_13h23.30.484,tripletExp_regina_11082022,2022.2.4,120.57067131206684,
3,14,10,2,0.444444444444444,0.298245614035088,2,0.25,3.10526315789474,2,0.694444444444444,1.0,ReadingArea_rsl2-rcl44-esl29-rsm2-rcm25-esm310-rsr2-rcr69-esr100,exr/ReadingArea_rsl2-rcl44-esl29-rsm2-rcm25-esm310-rsr2-rcr69-esr100.exr,ReadingArea_rsl2-rcl44-esl29-rsm2-rcm25-esm310-rsr2-rcr69-esr100.npz,,,,,0,99,99,279,,right,red,1.12,572.3405239582062,572.8326399326324,2,,7,6,lightness,readingArea,realistic,75,2023-04-01_13h23.30.484,tripletExp_regina_11082022,2022.2.4,120.57067131206684,
12,9,13,2,0.027777777777778,3.10526315789474,2,0.444444444444444,1.0,2,0.111111111111111,3.10526315789474,ReadingArea_rsl2-rcl2-esl310-rsm2-rcm44-esm100-rsr2-rcr11-esr310,exr/ReadingArea_rsl2-rcl2-esl310-rsm2-rcm44-esm100-rsr2-rcr11-esr310.exr,ReadingArea_rsl2-rcl2-esl310-rsm2-rcm44-esm100-rsr2-rcr11-esr310.npz,,,,,0,100,100,529,,right,red,1.19,574.5413548946381,,2,,7,6,lightness,readingArea,realistic,75,2023-04-01_13h23.30.484,tripletExp_regina_11082022,2022.2.4,120.57067131206684,
6,1,10,2,0.027777777777778,1.0,2,0.111111111111111,0.298245614035088,2,0.694444444444444,1.0,ReadingArea_rsl2-rcl2-esl100-rsm2-rcm11-esm29-rsr2-rcr69-esr100,exr/ReadingArea_rsl2-rcl2-esl100-rsm2-rcm11-esm29-rsr2-rcr69-esr100.exr,ReadingArea_rsl2-rcl2-esl100-rsm2-rcm11-esm29-rsr2-rcr69-esr100.npz,,,,,0,101,101,561,,left,green,1.09,576.741574048996,,2,,7,6,lightness,readingArea,realistic,75,2023-04-01_13h23.30.484,tripletExp_regina_11082022,2022.2.4,120.57067131206684,
4,2,9,2,0.694444444444444,0.298245614035088,2,0.25,0.298245614035088,2,0.444444444444444,1.0,ReadingArea_rsl2-rcl69-esl29-rsm2-rcm25-esm29-rsr2-rcr44-esr100,exr/ReadingArea_rsl2-rcl69-esl29-rsm2-rcm25-esm29-rsr2-rcr44-esr100.exr,ReadingArea_rsl2-rcl69-esl29-rsm2-rcm25-esm29-rsr2-rcr44-esr100.npz,,,,,0,102,102,479,,left,green,1.33,578.933436870575,579.4175930023193,2,,7,6,lightness,readingArea,realistic,75,2023-04-01_13h23.30.484,tripletExp_regina_11082022,2022.2.4,120.57067131206684,
11,12,10,2,1.0,1.0,2,0.027777777777778,3.10526315789474,2,0.694444444444444,1.0,ReadingArea_rsl2-rcl100-esl100-rsm2-rcm2-esm310-rsr2-rcr69-esr100,exr/ReadingArea_rsl2-rcl100-esl100-rsm2-rcm2-esm310-rsr2-rcr69-esr100.exr,ReadingArea_rsl2-rcl100-esl100-rsm2-rcm2-esm310-rsr2-rcr69-esr100.npz,,,,,0,103,103,465,,right,red,2.52,582.9114470481873,583.549978017807,2,,7,6,lightness,readingArea,realistic,75,2023-04-01_13h23.30.484,tripletExp_regina_11082022,2022.2.4,120.57067131206684,
12,0,2,2,0.027777777777778,3.10526315789474,2,0.027777777777778,0.298245614035088,2,0.25,0.298245614035088,ReadingArea_rsl2-rcl2-esl310-rsm2-rcm2-esm29-rsr2-rcr25-esr29,exr/ReadingArea_rsl2-rcl2-esl310-rsm2-rcm2-esm29-rsr2-rcr25-esr29.exr,ReadingArea_rsl2-rcl2-esl310-rsm2-rcm2-esm29-rsr2-rcr25-esr29.npz,,,,,0,104,104,77,,left,green,1.25,585.2398128509521,585.7420239448547,2,,7,6,lightness,readingArea,realistic,75,2023-04-01_13h23.30.484,tripletExp_regina_11082022,2022.2.4,120.57067131206684,
3,6,5,2,0.444444444444444,0.298245614035088,2,0.027777777777778,1.0,2,1.0,0.298245614035088,ReadingArea_rsl2-rcl44-esl29-rsm2-rcm2-esm100-rsr2-rcr100-esr29,exr/ReadingArea_rsl2-rcl44-esl29-rsm2-rcm2-esm100-rsr2-rcr100-esr29.exr,ReadingArea_rsl2-rcl44-esl29-rsm2-rcm2-esm100-rsr2-rcr100-esr29.npz,,,,,0,105,105,274,,left,green,1.31,587.4352579116821,,2,,7,6,lightness,readingArea,realistic,75,2023-04-01_13h23.30.484,tripletExp_regina_11082022,2022.2.4,120.57067131206684,
3,10,4,2,0.444444444444444,0.298245614035088,2,0.694444444444444,1.0,2,0.694444444444444,0.298245614035088,ReadingArea_rsl2-rcl44-esl29-rsm2-rcm69-esm100-rsr2-rcr69-esr29,exr/ReadingArea_rsl2-rcl44-esl29-rsm2-rcm69-esm100-rsr2-rcr69-esr29.exr,ReadingArea_rsl2-rcl44-esl29-rsm2-rcm69-esm100-rsr2-rcr69-esr29.npz,,,,,0,106,106,435,,right,red,2.74,591.4966249465942,591.9885718822479,2,,7,6,lightness,readingArea,realistic,75,2023-04-01_13h23.30.484,tripletExp_regina_11082022,2022.2.4,120.57067131206684,
0,7,13,2,0.027777777777778,0.298245614035088,2,0.111111111111111,1.0,2,0.111111111111111,3.10526315789474,ReadingArea_rsl2-rcl2-esl29-rsm2-rcm11-esm100-rsr2-rcr11-esr310,exr/ReadingArea_rsl2-rcl2-esl29-rsm2-rcm11-esm100-rsr2-rcr11-esr310.exr,ReadingArea_rsl2-rcl2-esl29-rsm2-rcm11-esm100-rsr2-rcr11-esr310.npz,,,,,0,107,107,159,,right,red,1.11,593.6762199401855,594.2449488639832,2,,7,6,lightness,readingArea,realistic,75,2023-04-01_13h23.30.484,tripletExp_regina_11082022,2022.2.4,120.57067131206684,
1,14,0,2,0.111111111111111,0.298245614035088,2,0.25,3.10526315789474,2,0.027777777777778,0.298245614035088,ReadingArea_rsl2-rcl11-esl29-rsm2-rcm25-esm310-rsr2-rcr2-esr29,exr/ReadingArea_rsl2-rcl11-esl29-rsm2-rcm25-esm310-rsr2-rcr2-esr29.exr,ReadingArea_rsl2-rcl11-esl29-rsm2-rcm25-esm310-rsr2-rcr2-esr29.npz,,,,,0,108,108,394,,left,green,0.97,595.9358258247375,596.424430847168,2,,7,6,lightness,readingArea,realistic,75,2023-04-01_13h23.30.484,tripletExp_regina_11082022,2022.2.4,120.57067131206684,
12,2,9,2,0.027777777777778,3.10526315789474,2,0.25,0.298245614035088,2,0.444444444444444,1.0,ReadingArea_rsl2-rcl2-esl310-rsm2-rcm25-esm29-rsr2-rcr44-esr100,exr/ReadingArea_rsl2-rcl2-esl310-rsm2-rcm25-esm29-rsr2-rcr44-esr100.exr,ReadingArea_rsl2-rcl2-esl310-rsm2-rcm25-esm29-rsr2-rcr44-esr100.npz,,,,,0,109,109,495,,left,green,1.33,598.116693019867,598.6121339797974,2,,7,6,lightness,readingArea,realistic,75,2023-04-01_13h23.30.484,tripletExp_regina_11082022,2022.2.4,120.57067131206684,
3,1,6,2,0.444444444444444,0.298245614035088,2,0.111111111111111,0.298245614035088,2,0.027777777777778,1.0,ReadingArea_rsl2-rcl44-esl29-rsm2-rcm11-esm29-rsr2-rcr2-esr100,exr/ReadingArea_rsl2-rcl44-esl29-rsm2-rcm11-esm29-rsr2-rcr2-esr100.exr,ReadingArea_rsl2-rcl44-esl29-rsm2-rcm11-esm29-rsr2-rcr2-esr100.npz,,,,,0,110,110,464,,right,red,1.01,600.3071370124817,600.8275179862976,2,,7,6,lightness,readingArea,realistic,75,2023-04-01_13h23.30.484,tripletExp_regina_11082022,2022.2.4,120.57067131206684,
13,8,0,2,0.111111111111111,3.10526315789474,2,0.25,1.0,2,0.027777777777778,0.298245614035088,ReadingArea_rsl2-rcl11-esl310-rsm2-rcm25-esm100-rsr2-rcr2-esr29,exr/ReadingArea_rsl2-rcl11-esl310-rsm2-rcm25-esm100-rsr2-rcr2-esr29.exr,ReadingArea_rsl2-rcl11-esl310-rsm2-rcm25-esm100-rsr2-rcr2-esr29.npz,,,,,0,111,111,429,,left,green,1.18,602.5162129402161,603.0139589309692,2,,7,6,lightness,readingArea,realistic,75,2023-04-01_13h23.30.484,tripletExp_regina_11082022,2022.2.4,120.57067131206684,
11,7,9,2,1.0,1.0,2,0.111111111111111,1.0,2,0.444444444444444,1.0,ReadingArea_rsl2-rcl100-esl100-rsm2-rcm11-esm100-rsr2-rcr44-esr100,exr/ReadingArea_rsl2-rcl100-esl100-rsm2-rcm11-esm100-rsr2-rcr44-esr100.exr,ReadingArea_rsl2-rcl100-esl100-rsm2-rcm11-esm100-rsr2-rcr44-esr100.npz,,,,,0,112,112,521,,right,red,1.32,604.7097189426422,605.3557379245758,2,,7,6,lightness,readingArea,realistic,75,2023-04-01_13h23.30.484,tripletExp_regina_11082022,2022.2.4,120.57067131206684,
2,1,13,2,0.25,0.298245614035088,2,0.111111111111111,0.298245614035088,2,0.111111111111111,3.10526315789474,ReadingArea_rsl2-rcl25-esl29-rsm2-rcm11-esm29-rsr2-rcr11-esr310,exr/ReadingArea_rsl2-rcl25-esl29-rsm2-rcm11-esm29-rsr2-rcr11-esr310.exr,ReadingArea_rsl2-rcl25-esl29-rsm2-rcm11-esm29-rsr2-rcr11-esr310.npz,,,,,0,113,113,290,,,red,1.32,610.5903499126434,,2,610.0677102565766,7,6,lightness,readingArea,realistic,75,2023-04-01_13h23.30.484,tripletExp_regina_11082022,2022.2.4,120.57067131206684,
9,8,0,2,0.444444444444444,1.0,2,0.25,1.0,2,0.027777777777778,0.298245614035088,ReadingArea_rsl2-rcl44-esl100-rsm2-rcm25-esm100-rsr2-rcr2-esr29,exr/ReadingArea_rsl2-rcl44-esl100-rsm2-rcm25-esm100-rsr2-rcr2-esr29.exr,ReadingArea_rsl2-rcl44-esl100-rsm2-rcm25-esm100-rsr2-rcr2-esr29.npz,,,,,0,114,114,66,,,red,1.32,618.4890439510345,,2,616.5104382991791,7,6,lightness,readingArea,realistic,75,2023-04-01_13h23.30.484,tripletExp_regina_11082022,2022.2.4,120.57067131206684,
14,0,9,2,0.25,3.10526315789474,2,0.027777777777778,0.298245614035088,2,0.444444444444444,1.0,ReadingArea_rsl2-rcl25-esl310-rsm2-rcm2-esm29-rsr2-rcr44-esr100,exr/ReadingArea_rsl2-rcl25-esl310-rsm2-rcm2-esm29-rsr2-rcr44-esr100.exr,ReadingArea_rsl2-rcl25-esl310-rsm2-rcm2-esm29-rsr2-rcr44-esr100.npz,,,,,0,115,115,90,,,red,1.32,625.4894509315491,,2,624.5167652130127,7,6,lightness,readingArea,realistic,75,2023-04-01_13h23.30.484,tripletExp_regina_11082022,2022.2.4,120.57067131206684,
2,6,13,2,0.25,0.298245614035088,2,0.027777777777778,1.0,2,0.111111111111111,3.10526315789474,ReadingArea_rsl2-rcl25-esl29-rsm2-rcm2-esm100-rsr2-rcr11-esr310,exr/ReadingArea_rsl2-rcl25-esl29-rsm2-rcm2-esm100-rsr2-rcr11-esr310.exr,ReadingArea_rsl2-rcl25-esl29-rsm2-rcm2-esm100-rsr2-rcr11-esr310.npz,,,,,0,116,116,388,,,red,1.32,633.4901778697968,,2,631.515390253067,7,6,lightness,readingArea,realistic,75,2023-04-01_13h23.30.484,tripletExp_regina_11082022,2022.2.4,120.57067131206684,
7,8,6,2,0.111111111111111,1.0,2,0.25,1.0,2,0.027777777777778,1.0,ReadingArea_rsl2-rcl11-esl100-rsm2-rcm25-esm100-rsr2-rcr2-esr100,exr/ReadingArea_rsl2-rcl11-esl100-rsm2-rcm25-esm100-rsr2-rcr2-esr100.exr,ReadingArea_rsl2-rcl11-esl100-rsm2-rcm25-esm100-rsr2-rcr2-esr100.npz,,,,,0,117,117,387,,,red,1.32,639.5189759731293,,2,639.5157724380493,7,6,lightness,readingArea,realistic,75,2023-04-01_13h23.30.484,tripletExp_regina_11082022,2022.2.4,120.57067131206684,
7,8,14,2,0.111111111111111,1.0,2,0.25,1.0,2,0.25,3.10526315789474,ReadingArea_rsl2-rcl11-esl100-rsm2-rcm25-esm100-rsr2-rcr25-esr310,exr/ReadingArea_rsl2-rcl11-esl100-rsm2-rcm25-esm100-rsr2-rcr25-esr310.exr,ReadingArea_rsl2-rcl11-esl100-rsm2-rcm25-esm100-rsr2-rcr25-esr310.npz,,,,,0,118,118,300,,,red,1.32,645.3192439079285,645.8761260509491,2,644.8780022621155,7,6,lightness,readingArea,realistic,75,2023-04-01_13h23.30.484,tripletExp_regina_11082022,2022.2.4,120.57067131206684,
7,10,13,2,0.111111111111111,1.0,2,0.694444444444444,1.0,2,0.111111111111111,3.10526315789474,ReadingArea_rsl2-rcl11-esl100-rsm2-rcm69-esm100-rsr2-rcr11-esr310,exr/ReadingArea_rsl2-rcl11-esl100-rsm2-rcm69-esm100-rsr2-rcr11-esr310.exr,ReadingArea_rsl2-rcl11-esl100-rsm2-rcm69-esm100-rsr2-rcr11-esr310.npz,,,,,0,119,119,446,,,red,1.32,651.1291618347168,,2,650.757169342041,7,6,lightness,readingArea,realistic,75,2023-04-01_13h23.30.484,tripletExp_regina_11082022,2022.2.4,120.57067131206684,
2,8,3,2,0.25,0.298245614035088,2,0.25,1.0,2,0.444444444444444,0.298245614035088,ReadingArea_rsl2-rcl25-esl29-rsm2-rcm25-esm100-rsr2-rcr44-esr29,exr/ReadingArea_rsl2-rcl25-esl29-rsm2-rcm25-esm100-rsr2-rcr44-esr29.exr,ReadingArea_rsl2-rcl25-esl29-rsm2-rcm25-esm100-rsr2-rcr44-esr29.npz,,,,,0,120,120,568,,,red,1.32,656.8701028823853,657.365476846695,2,656.4623542785645,7,6,lightness,readingArea,realistic,75,2023-04-01_13h23.30.484,tripletExp_regina_11082022,2022.2.4,120.57067131206684,
7,9,5,2,0.111111111111111,1.0,2,0.444444444444444,1.0,2,1.0,0.298245614035088,ReadingArea_rsl2-rcl11-esl100-rsm2-rcm44-esm100-rsr2-rcr100-esr29,exr/ReadingArea_rsl2-rcl11-esl100-rsm2-rcm44-esm100-rsr2-rcr100-esr29.exr,ReadingArea_rsl2-rcl11-esl100-rsm2-rcm44-esm100-rsr2-rcr100-esr29.npz,,,,,0,121,121,291,,right,red,2.35,660.8151290416718,661.4243779182434,2,,7,6,lightness,readingArea,realistic,75,2023-04-01_13h23.30.484,tripletExp_regina_11082022,2022.2.4,120.57067131206684,
2,9,12,2,0.25,0.298245614035088,2,0.444444444444444,1.0,2,0.027777777777778,3.10526315789474,ReadingArea_rsl2-rcl25-esl29-rsm2-rcm44-esm100-rsr2-rcr2-esr310,exr/ReadingArea_rsl2-rcl25-esl29-rsm2-rcm44-esm100-rsr2-rcr2-esr310.exr,ReadingArea_rsl2-rcl25-esl29-rsm2-rcm44-esm100-rsr2-rcr2-esr310.npz,,,,,0,122,122,354,,left,green,2.51,664.8698558807373,665.3588268756866,2,,7,6,lightness,readingArea,realistic,75,2023-04-01_13h23.30.484,tripletExp_regina_11082022,2022.2.4,120.57067131206684,
4,13,1,2,0.694444444444444,0.298245614035088,2,0.111111111111111,3.10526315789474,2,0.111111111111111,0.298245614035088,ReadingArea_rsl2-rcl69-esl29-rsm2-rcm11-esm310-rsr2-rcr11-esr29,exr/ReadingArea_rsl2-rcl69-esl29-rsm2-rcm11-esm310-rsr2-rcr11-esr29.exr,ReadingArea_rsl2-rcl69-esl29-rsm2-rcm11-esm310-rsr2-rcr11-esr29.npz,,,,,0,123,123,192,,left,green,4.58,670.5632538795471,671.0759749412537,2,,7,6,lightness,readingArea,realistic,75,2023-04-01_13h23.30.484,tripletExp_regina_11082022,2022.2.4,120.57067131206684,
5,3,4,2,1.0,0.298245614035088,2,0.444444444444444,0.298245614035088,2,0.694444444444444,0.298245614035088,ReadingArea_rsl2-rcl100-esl29-rsm2-rcm44-esm29-rsr2-rcr69-esr29,exr/ReadingArea_rsl2-rcl100-esl29-rsm2-rcm44-esm29-rsr2-rcr69-esr29.exr,ReadingArea_rsl2-rcl100-esl29-rsm2-rcm44-esm29-rsr2-rcr69-esr29.npz,,,,,0,124,124,201,,right,red,2.27,674.52960896492,675.1149299144745,2,,7,6,lightness,readingArea,realistic,75,2023-04-01_13h23.30.484,tripletExp_regina_11082022,2022.2.4,120.57067131206684,
10,14,4,2,0.694444444444444,1.0,2,0.25,3.10526315789474,2,0.694444444444444,0.298245614035088,ReadingArea_rsl2-rcl69-esl100-rsm2-rcm25-esm310-rsr2-rcr69-esr29,exr/ReadingArea_rsl2-rcl69-esl100-rsm2-rcm25-esm310-rsr2-rcr69-esr29.exr,ReadingArea_rsl2-rcl69-esl100-rsm2-rcm25-esm310-rsr2-rcr69-esr29.npz,,,,,0,125,125,267,,left,green,1.04,676.7977948188782,677.4602248668671,2,,7,6,lightness,readingArea,realistic,75,2023-04-01_13h23.30.484,tripletExp_regina_11082022,2022.2.4,120.57067131206684,
7,5,1,2,0.111111111111111,1.0,2,1.0,0.298245614035088,2,0.111111111111111,0.298245614035088,ReadingArea_rsl2-rcl11-esl100-rsm2-rcm100-esm29-rsr2-rcr11-esr29,exr/ReadingArea_rsl2-rcl11-esl100-rsm2-rcm100-esm29-rsr2-rcr11-esr29.exr,ReadingArea_rsl2-rcl11-esl100-rsm2-rcm100-esm29-rsr2-rcr11-esr29.npz,,,,,0,126,126,513,,left,green,2.42,680.8998818397522,,2,,7,6,lightness,readingArea,realistic,75,2023-04-01_13h23.30.484,tripletExp_regina_11082022,2022.2.4,120.57067131206684,
5,4,1,2,1.0,0.298245614035088,2,0.694444444444444,0.298245614035088,2,0.111111111111111,0.298245614035088,ReadingArea_rsl2-rcl100-esl29-rsm2-rcm69-esm29-rsr2-rcr11-esr29,exr/ReadingArea_rsl2-rcl100-esl29-rsm2-rcm69-esm29-rsr2-rcr11-esr29.exr,ReadingArea_rsl2-rcl100-esl29-rsm2-rcm69-esm29-rsr2-rcr11-esr29.npz,,,,,0,127,127,560,,left,green,0.89,683.1967489719391,683.6856489181519,2,,7,6,lightness,readingArea,realistic,75,2023-04-01_13h23.30.484,tripletExp_regina_11082022,2022.2.4,120.57067131206684,
6,5,0,2,0.027777777777778,1.0,2,1.0,0.298245614035088,2,0.027777777777778,0.298245614035088,ReadingArea_rsl2-rcl2-esl100-rsm2-rcm100-esm29-rsr2-rcr2-esr29,exr/ReadingArea_rsl2-rcl2-esl100-rsm2-rcm100-esm29-rsr2-rcr2-esr29.exr,ReadingArea_rsl2-rcl2-esl100-rsm2-rcm100-esm29-rsr2-rcr2-esr29.npz,,,,,0,128,128,558,,left,green,1.17,685.3777208328247,685.8813488483429,2,,7,6,lightness,readingArea,realistic,75,2023-04-01_13h23.30.484,tripletExp_regina_11082022,2022.2.4,120.57067131206684,
1,13,8,2,0.111111111111111,0.298245614035088,2,0.111111111111111,3.10526315789474,2,0.25,1.0,ReadingArea_rsl2-rcl11-esl29-rsm2-rcm11-esm310-rsr2-rcr25-esr100,exr/ReadingArea_rsl2-rcl11-esl29-rsm2-rcm11-esm310-rsr2-rcr25-esr100.exr,ReadingArea_rsl2-rcl11-esl29-rsm2-rcm11-esm310-rsr2-rcr25-esr100.npz,,,,,0,129,129,64,,right,red,1.34,687.6050779819489,688.1066319942474,2,,7,6,lightness,readingArea,realistic,75,2023-04-01_13h23.30.484,tripletExp_regina_11082022,2022.2.4,120.57067131206684,
9,7,2,2,0.444444444444444,1.0,2,0.111111111111111,1.0,2,0.25,0.298245614035088,ReadingArea_rsl2-rcl44-esl100-rsm2-rcm11-esm100-rsr2-rcr25-esr29,exr/ReadingArea_rsl2-rcl44-esl100-rsm2-rcm11-esm100-rsr2-rcr25-esr29.exr,ReadingArea_rsl2-rcl44-esl100-rsm2-rcm11-esm100-rsr2-rcr25-esr29.npz,,,,,0,130,130,428,,right,red,1.12,689.7976310253143,690.2844450473785,2,,7,6,lightness,readingArea,realistic,75,2023-04-01_13h23.30.484,tripletExp_regina_11082022,2022.2.4,120.57067131206684,
3,10,9,2,0.444444444444444,0.298245614035088,2,0.694444444444444,1.0,2,0.444444444444444,1.0,ReadingArea_rsl2-rcl44-esl29-rsm2-rcm69-esm100-rsr2-rcr44-esr100,exr/ReadingArea_rsl2-rcl44-esl29-rsm2-rcm69-esm100-rsr2-rcr44-esr100.exr,ReadingArea_rsl2-rcl44-esl29-rsm2-rcm69-esm100-rsr2-rcr44-esr100.npz,,,,,0,131,131,222,,right,red,1.09,691.9791328907013,692.4858298301697,2,,7,6,lightness,readingArea,realistic,75,2023-04-01_13h23.30.484,tripletExp_regina_11082022,2022.2.4,120.57067131206684,
14,5,13,2,0.25,3.10526315789474,2,1.0,0.298245614035088,2,0.111111111111111,3.10526315789474,ReadingArea_rsl2-rcl25-esl310-rsm2-rcm100-esm29-rsr2-rcr11-esr310,exr/ReadingArea_rsl2-rcl25-esl310-rsm2-rcm100-esm29-rsr2-rcr11-esr310.exr,ReadingArea_rsl2-rcl25-esl310-rsm2-rcm100-esm29-rsr2-rcr11-esr310.npz,,,,,0,132,132,524,,left,green,2.49,695.9375638961792,696.4582979679108,2,,7,6,lightness,readingArea,realistic,75,2023-04-01_13h23.30.484,tripletExp_regina_11082022,2022.2.4,120.57067131206684,
10,2,0,2,0.694444444444444,1.0,2,0.25,0.298245614035088,2,0.027777777777778,0.298245614035088,ReadingArea_rsl2-rcl69-esl100-rsm2-rcm25-esm29-rsr2-rcr2-esr29,exr/ReadingArea_rsl2-rcl69-esl100-rsm2-rcm25-esm29-rsr2-rcr2-esr29.exr,ReadingArea_rsl2-rcl69-esl100-rsm2-rcm25-esm29-rsr2-rcr2-esr29.npz,,,,,0,133,133,427,,right,red,1.29,698.1498680114746,698.6506538391113,2,,7,6,lightness,readingArea,realistic,75,2023-04-01_13h23.30.484,tripletExp_regina_11082022,2022.2.4,120.57067131206684,
2,12,13,2,0.25,0.298245614035088,2,0.027777777777778,3.10526315789474,2,0.111111111111111,3.10526315789474,ReadingArea_rsl2-rcl25-esl29-rsm2-rcm2-esm310-rsr2-rcr11-esr310,exr/ReadingArea_rsl2-rcl25-esl29-rsm2-rcm2-esm310-rsr2-rcr11-esr310.exr,ReadingArea_rsl2-rcl25-esl29-rsm2-rcm2-esm310-rsr2-rcr11-esr310.npz,,,,,0,134,134,232,,left,green,2.88,702.1283679008484,,2,,7,6,lightness,readingArea,realistic,75,2023-04-01_13h23.30.484,tripletExp_regina_11082022,2022.2.4,120.57067131206684,
11,14,2,2,1.0,1.0,2,0.25,3.10526315789474,2,0.25,0.298245614035088,ReadingArea_rsl2-rcl100-esl100-rsm2-rcm25-esm310-rsr2-rcr25-esr29,exr/ReadingArea_rsl2-rcl100-esl100-rsm2-rcm25-esm310-rsr2-rcr25-esr29.exr,ReadingArea_rsl2-rcl100-esl100-rsm2-rcm25-esm310-rsr2-rcr25-esr29.npz,,,,,0,135,135,419,,left,green,1.12,704.3581318855286,704.8516299724579,2,,7,6,lightness,readingArea,realistic,75,2023-04-01_13h23.30.484,tripletExp_regina_11082022,2022.2.4,120.57067131206684,
9,7,10,2,0.444444444444444,1.0,2,0.111111111111111,1.0,2,0.694444444444444,1.0,ReadingArea_rsl2-rcl44-esl100-rsm2-rcm11-esm100-rsr2-rcr69-esr100,exr/ReadingArea_rsl2-rcl44-esl100-rsm2-rcm11-esm100-rsr2-rcr69-esr100.exr,ReadingArea_rsl2-rcl44-esl100-rsm2-rcm11-esm100-rsr2-rcr69-esr100.npz,,,,,0,136,136,508,,left,green,1.28,706.5749709606171,707.152587890625,2,,7,6,lightness,readingArea,realistic,75,2023-04-01_13h23.30.484,tripletExp_regina_11082022,2022.2.4,120.57067131206684,
13,1,7,2,0.111111111111111,3.10526315789474,2,0.111111111111111,0.298245614035088,2,0.111111111111111,1.0,ReadingArea_rsl2-rcl11-esl310-rsm2-rcm11-esm29-rsr2-rcr11-esr100,exr/ReadingArea_rsl2-rcl11-esl310-rsm2-rcm11-esm29-rsr2-rcr11-esr100.exr,ReadingArea_rsl2-rcl11-esl310-rsm2-rcm11-esm29-rsr2-rcr11-esr100.npz,,,,,0,137,137,206,,right,red,1.23,708.8447840213776,709.3445630073547,2,,7,6,lightness,readingArea,realistic,75,2023-04-01_13h23.30.484,tripletExp_regina_11082022,2022.2.4,120.57067131206684,
7,2,0,2,0.111111111111111,1.0,2,0.25,0.298245614035088,2,0.027777777777778,0.298245614035088,ReadingArea_rsl2-rcl11-esl100-rsm2-rcm25-esm29-rsr2-rcr2-esr29,exr/ReadingArea_rsl2-rcl11-esl100-rsm2-rcm25-esm29-rsr2-rcr2-esr29.exr,ReadingArea_rsl2-rcl11-esl100-rsm2-rcm25-esm29-rsr2-rcr2-esr29.npz,,,,,0,138,138,520,,left,green,1.15,711.0646450519562,711.53759598732,2,,7,6,lightness,readingArea,realistic,75,2023-04-01_13h23.30.484,tripletExp_regina_11082022,2022.2.4,120.57067131206684,
11,5,4,2,1.0,1.0,2,1.0,0.298245614035088,2,0.694444444444444,0.298245614035088,ReadingArea_rsl2-rcl100-esl100-rsm2-rcm100-esm29-rsr2-rcr69-esr29,exr/ReadingArea_rsl2-rcl100-esl100-rsm2-rcm100-esm29-rsr2-rcr69-esr29.exr,ReadingArea_rsl2-rcl100-esl100-rsm2-rcm100-esm29-rsr2-rcr69-esr29.npz,,,,,0,139,139,564,,right,red,0.97,713.2268829345703,713.7204978466034,2,,7,6,lightness,readingArea,realistic,75,2023-04-01_13h23.30.484,tripletExp_regina_11082022,2022.2.4,120.57067131206684,
1,7,8,2,0.111111111111111,0.298245614035088,2,0.111111111111111,1.0,2,0.25,1.0,ReadingArea_rsl2-rcl11-esl29-rsm2-rcm11-esm100-rsr2-rcr25-esr100,exr/ReadingArea_rsl2-rcl11-esl29-rsm2-rcm11-esm100-rsr2-rcr25-esr100.exr,ReadingArea_rsl2-rcl11-esl29-rsm2-rcm11-esm100-rsr2-rcr25-esr100.npz,,,,,0,140,140,260,,left,green,0.91,715.413736820221,,2,,7,6,lightness,readingArea,realistic,75,2023-04-01_13h23.30.484,tripletExp_regina_11082022,2022.2.4,120.57067131206684,
8,3,12,2,0.25,1.0,2,0.444444444444444,0.298245614035088,2,0.027777777777778,3.10526315789474,ReadingArea_rsl2-rcl25-esl100-rsm2-rcm44-esm29-rsr2-rcr2-esr310,exr/ReadingArea_rsl2-rcl25-esl100-rsm2-rcm44-esm29-rsr2-rcr2-esr310.exr,ReadingArea_rsl2-rcl25-esl100-rsm2-rcm44-esm29-rsr2-rcr2-esr310.npz,,,,,0,141,141,22,,left,green,1.09,717.6240718364716,718.1029689311981,2,,7,6,lightness,readingArea,realistic,75,2023-04-01_13h23.30.484,tripletExp_regina_11082022,2022.2.4,120.57067131206684,
11,7,12,2,1.0,1.0,2,0.111111111111111,1.0,2,0.027777777777778,3.10526315789474,ReadingArea_rsl2-rcl100-esl100-rsm2-rcm11-esm100-rsr2-rcr2-esr310,exr/ReadingArea_rsl2-rcl100-esl100-rsm2-rcm11-esm100-rsr2-rcr2-esr310.exr,ReadingArea_rsl2-rcl100-esl100-rsm2-rcm11-esm100-rsr2-rcr2-esr310.npz,,,,,0,142,142,352,,right,red,0.89,719.8087940216064,720.3040390014648,2,,7,6,lightness,readingArea,realistic,75,2023-04-01_13h23.30.484,tripletExp_regina_11082022,2022.2.4,120.57067131206684,
11,8,0,2,1.0,1.0,2,0.25,1.0,2,0.027777777777778,0.298245614035088,ReadingArea_rsl2-rcl100-esl100-rsm2-rcm25-esm100-rsr2-rcr2-esr29,exr/ReadingArea_rsl2-rcl100-esl100-rsm2-rcm25-esm100-rsr2-rcr2-esr29.exr,ReadingArea_rsl2-rcl100-esl100-rsm2-rcm25-esm100-rsr2-rcr2-esr29.npz,,,,,0,143,143,81,,left,green,2.21,723.7716138362885,724.2607209682465,2,,7,6,lightness,readingArea,realistic,75,2023-04-01_13h23.30.484,tripletExp_regina_11082022,2022.2.4,120.57067131206684,
4,12,7,2,0.694444444444444,0.298245614035088,2,0.027777777777778,3.10526315789474,2,0.111111111111111,1.0,ReadingArea_rsl2-rcl69-esl29-rsm2-rcm2-esm310-rsr2-rcr11-esr100,exr/ReadingArea_rsl2-rcl69-esl29-rsm2-rcm2-esm310-rsr2-rcr11-esr100.exr,ReadingArea_rsl2-rcl69-esl29-rsm2-rcm2-esm310-rsr2-rcr11-esr100.npz,,,,,0,144,144,112,,right,red,1.07,725.9755148887634,726.4852418899536,2,,7,6,lightness,readingArea,realistic,75,2023-04-01_13h23.30.484,tripletExp_regina_11082022,2022.2.4,120.57067131206684,
9,3,14,2,0.444444444444444,1.0,2,0.444444444444444,0.298245614035088,2,0.25,3.10526315789474,ReadingArea_rsl2-rcl44-esl100-rsm2-rcm44-esm29-rsr2-rcr25-esr310,exr/ReadingArea_rsl2-rcl44-esl100-rsm2-rcm44-esm29-rsr2-rcr25-esr310.exr,ReadingArea_rsl2-rcl44-esl100-rsm2-rcm44-esm29-rsr2-rcr25-esr310.npz,,,,,0,145,145,17,,left,green,2.32,729.971540927887,730.5047008991241,2,,7,6,lightness,readingArea,realistic,75,2023-04-01_13h23.30.484,tripletExp_regina_11082022,2022.2.4,120.57067131206684,
9,8,7,2,0.444444444444444,1.0,2,0.25,1.0,2,0.111111111111111,1.0,ReadingArea_rsl2-rcl44-esl100-rsm2-rcm25-esm100-rsr2-rcr11-esr100,exr/ReadingArea_rsl2-rcl44-esl100-rsm2-rcm25-esm100-rsr2-rcr11-esr100.exr,ReadingArea_rsl2-rcl44-esl100-rsm2-rcm25-esm100-rsr2-rcr11-esr100.npz,,,,,0,146,146,368,,left,green,2.45,733.9892449378967,734.4752779006958,2,,7,6,lightness,readingArea,realistic,75,2023-04-01_13h23.30.484,tripletExp_regina_11082022,2022.2.4,120.57067131206684,
2,1,6,2,0.25,0.298245614035088,2,0.111111111111111,0.298245614035088,2,0.027777777777778,1.0,ReadingArea_rsl2-rcl25-esl29-rsm2-rcm11-esm29-rsr2-rcr2-esr100,exr/ReadingArea_rsl2-rcl25-esl29-rsm2-rcm11-esm29-rsr2-rcr2-esr100.exr,ReadingArea_rsl2-rcl25-esl29-rsm2-rcm11-esm29-rsr2-rcr2-esr100.npz,,,,,0,147,147,171,,left,green,0.89,736.167829990387,,2,,7,6,lightness,readingArea,realistic,75,2023-04-01_13h23.30.484,tripletExp_regina_11082022,2022.2.4,120.57067131206684,
6,13,0,2,0.027777777777778,1.0,2,0.111111111111111,3.10526315789474,2,0.027777777777778,0.298245614035088,ReadingArea_rsl2-rcl2-esl100-rsm2-rcm11-esm310-rsr2-rcr2-esr29,exr/ReadingArea_rsl2-rcl2-esl100-rsm2-rcm11-esm310-rsr2-rcr2-esr29.exr,ReadingArea_rsl2-rcl2-esl100-rsm2-rcm11-esm310-rsr2-rcr2-esr29.npz,,,,,0,148,148,580,,left,green,1.29,738.3922770023346,,2,,7,6,lightness,readingArea,realistic,75,2023-04-01_13h23.30.484,tripletExp_regina_11082022,2022.2.4,120.57067131206684,
7,4,1,2,0.111111111111111,1.0,2,0.694444444444444,0.298245614035088,2,0.111111111111111,0.298245614035088,ReadingArea_rsl2-rcl11-esl100-rsm2-rcm69-esm29-rsr2-rcr11-esr29,exr/ReadingArea_rsl2-rcl11-esl100-rsm2-rcm69-esm29-rsr2-rcr11-esr29.exr,ReadingArea_rsl2-rcl11-esl100-rsm2-rcm69-esm29-rsr2-rcr11-esr29.npz,,,,,0,149,149,369,,left,green,1.32,740.5514168739319,,2,,7,6,lightness,readingArea,realistic,75,2023-04-01_13h23.30.484,tripletExp_regina_11082022,2022.2.4,120.57067131206684,
0,13,1,2,0.027777777777778,0.298245614035088,2,0.111111111111111,3.10526315789474,2,0.111111111111111,0.298245614035088,ReadingArea_rsl2-rcl2-esl29-rsm2-rcm11-esm310-rsr2-rcr11-esr29,exr/ReadingArea_rsl2-rcl2-esl29-rsm2-rcm11-esm310-rsr2-rcr11-esr29.exr,ReadingArea_rsl2-rcl2-esl29-rsm2-rcm11-esm310-rsr2-rcr11-esr29.npz,,,,,0,150,150,458,,right,red,1.28,745.058748960495,745.5521810054779,3,,7,6,lightness,readingArea,realistic,75,2023-04-01_13h23.30.484,tripletExp_regina_11082022,2022.2.4,120.57067131206684,
0,8,3,2,0.027777777777778,0.298245614035088,2,0.25,1.0,2,0.444444444444444,0.298245614035088,ReadingArea_rsl2-rcl2-esl29-rsm2-rcm25-esm100-rsr2-rcr44-esr29,exr/ReadingArea_rsl2-rcl2-esl29-rsm2-rcm25-esm100-rsr2-rcr44-esr29.exr,ReadingArea_rsl2-rcl2-esl29-rsm2-rcm25-esm100-rsr2-rcr44-esr29.npz,,,,,0,151,151,301,,right,red,0.88,747.2757308483124,747.7578949928284,3,,7,6,lightness,readingArea,realistic,75,2023-04-01_13h23.30.484,tripletExp_regina_11082022,2022.2.4,120.57067131206684,
14,12,5,2,0.25,3.10526315789474,2,0.027777777777778,3.10526315789474,2,1.0,0.298245614035088,ReadingArea_rsl2-rcl25-esl310-rsm2-rcm2-esm310-rsr2-rcr100-esr29,exr/ReadingArea_rsl2-rcl25-esl310-rsm2-rcm2-esm310-rsr2-rcr100-esr29.exr,ReadingArea_rsl2-rcl25-esl310-rsm2-rcm2-esm310-rsr2-rcr100-esr29.npz,,,,,0,152,152,335,,right,red,1.14,749.4833970069885,749.9992170333862,3,,7,6,lightness,readingArea,realistic,75,2023-04-01_13h23.30.484,tripletExp_regina_11082022,2022.2.4,120.57067131206684,
10,5,4,2,0.694444444444444,1.0,2,1.0,0.298245614035088,2,0.694444444444444,0.298245614035088,ReadingArea_rsl2-rcl69-esl100-rsm2-rcm100-esm29-rsr2-rcr69-esr29,exr/ReadingArea_rsl2-rcl69-esl100-rsm2-rcm100-esm29-rsr2-rcr69-esr29.exr,ReadingArea_rsl2-rcl69-esl100-rsm2-rcm100-esm29-rsr2-rcr69-esr29.npz,,,,,0,153,153,455,,left,green,1.55,751.7167589664459,752.2198979854584,3,,7,6,lightness,readingArea,realistic,75,2023-04-01_13h23.30.484,tripletExp_regina_11082022,2022.2.4,120.57067131206684,
3,12,14,2,0.444444444444444,0.298245614035088,2,0.027777777777778,3.10526315789474,2,0.25,3.10526315789474,ReadingArea_rsl2-rcl44-esl29-rsm2-rcm2-esm310-rsr2-rcr25-esr310,exr/ReadingArea_rsl2-rcl44-esl29-rsm2-rcm2-esm310-rsr2-rcr25-esr310.exr,ReadingArea_rsl2-rcl44-esl29-rsm2-rcm2-esm310-rsr2-rcr25-esr310.npz,,,,,0,154,154,16,,left,green,1.39,753.9078719615936,754.4140429496765,3,,7,6,lightness,readingArea,realistic,75,2023-04-01_13h23.30.484,tripletExp_regina_11082022,2022.2.4,120.57067131206684,
6,14,10,2,0.027777777777778,1.0,2,0.25,3.10526315789474,2,0.694444444444444,1.0,ReadingArea_rsl2-rcl2-esl100-rsm2-rcm25-esm310-rsr2-rcr69-esr100,exr/ReadingArea_rsl2-rcl2-esl100-rsm2-rcm25-esm310-rsr2-rcr69-esr100.exr,ReadingArea_rsl2-rcl2-esl100-rsm2-rcm25-esm310-rsr2-rcr69-esr100.npz,,,,,0,155,155,413,,right,red,0.99,756.1019399166107,756.5987298488617,3,,7,6,lightness,readingArea,realistic,75,2023-04-01_13h23.30.484,tripletExp_regina_11082022,2022.2.4,120.57067131206684,
6,11,1,2,0.027777777777778,1.0,2,1.0,1.0,2,0.111111111111111,0.298245614035088,ReadingArea_rsl2-rcl2-esl100-rsm2-rcm100-esm100-rsr2-rcr11-esr29,exr/ReadingArea_rsl2-rcl2-esl100-rsm2-rcm100-esm100-rsr2-rcr11-esr29.exr,ReadingArea_rsl2-rcl2-esl100-rsm2-rcm100-esm100-rsr2-rcr11-esr29.npz,,,,,0,156,156,436,,right,red,1.05,758.2995529174805,758.7693948745728,3,,7,6,lightness,readingArea,realistic,75,2023-04-01_13h23.30.484,tripletExp_regina_11082022,2022.2.4,120.57067131206684,
7,3,0,2,0.111111111111111,1.0,2,0.444444444444444,0.298245614035088,2,0.027777777777778,0.298245614035088,ReadingArea_rsl2-rcl11-esl100-rsm2-rcm44-esm29-rsr2-rcr2-esr29,exr/ReadingArea_rsl2-rcl11-esl100-rsm2-rcm44-esm29-rsr2-rcr2-esr29.exr,ReadingArea_rsl2-rcl11-esl100-rsm2-rcm44-esm29-rsr2-rcr2-esr29.npz,,,,,0,157,157,318,,left,green,0.8,760.4600529670715,760.9720499515533,3,,7,6,lightness,readingArea,realistic,75,2023-04-01_13h23.30.484,tripletExp_regina_11082022,2022.2.4,120.57067131206684,
6,10,8,2,0.027777777777778,1.0,2,0.694444444444444,1.0,2,0.25,1.0,ReadingArea_rsl2-rcl2-esl100-rsm2-rcm69-esm100-rsr2-rcr25-esr100,exr/ReadingArea_rsl2-rcl2-esl100-rsm2-rcm69-esm100-rsr2-rcr25-esr100.exr,ReadingArea_rsl2-rcl2-esl100-rsm2-rcm69-esm100-rsr2-rcr25-esr100.npz,,,,,0,158,158,167,,right,red,0.77,762.6637439727783,763.1643300056458,3,,7,6,lightness,readingArea,realistic,75,2023-04-01_13h23.30.484,tripletExp_regina_11082022,2022.2.4,120.57067131206684,
3,13,1,2,0.444444444444444,0.298245614035088,2,0.111111111111111,3.10526315789474,2,0.111111111111111,0.298245614035088,ReadingArea_rsl2-rcl44-esl29-rsm2-rcm11-esm310-rsr2-rcr11-esr29,exr/ReadingArea_rsl2-rcl44-esl29-rsm2-rcm11-esm310-rsr2-rcr11-esr29.exr,ReadingArea_rsl2-rcl44-esl29-rsm2-rcm11-esm310-rsr2-rcr11-esr29.npz,,,,,0,159,159,421,,left,green,0.96,764.8671078681946,765.3811130523682,3,,7,6,lightness,readingArea,realistic,75,2023-04-01_13h23.30.484,tripletExp_regina_11082022,2022.2.4,120.57067131206684,
11,12,2,2,1.0,1.0,2,0.027777777777778,3.10526315789474,2,0.25,0.298245614035088,ReadingArea_rsl2-rcl100-esl100-rsm2-rcm2-esm310-rsr2-rcr25-esr29,exr/ReadingArea_rsl2-rcl100-esl100-rsm2-rcm2-esm310-rsr2-rcr25-esr29.exr,ReadingArea_rsl2-rcl100-esl100-rsm2-rcm2-esm310-rsr2-rcr25-esr29.npz,,,,,0,160,160,423,,right,red,1.15,767.070611000061,767.6311898231506,3,,7,6,lightness,readingArea,realistic,75,2023-04-01_13h23.30.484,tripletExp_regina_11082022,2022.2.4,120.57067131206684,
0,5,6,2,0.027777777777778,0.298245614035088,2,1.0,0.298245614035088,2,0.027777777777778,1.0,ReadingArea_rsl2-rcl2-esl29-rsm2-rcm100-esm29-rsr2-rcr2-esr100,exr/ReadingArea_rsl2-rcl2-esl29-rsm2-rcm100-esm29-rsr2-rcr2-esr100.exr,ReadingArea_rsl2-rcl2-esl29-rsm2-rcm100-esm29-rsr2-rcr2-esr100.npz,,,,,0,161,161,374,,right,red,1.1,769.3298468589783,769.8161308765411,3,,7,6,lightness,readingArea,realistic,75,2023-04-01_13h23.30.484,tripletExp_regina_11082022,2022.2.4,120.57067131206684,
6,11,14,2,0.027777777777778,1.0,2,1.0,1.0,2,0.25,3.10526315789474,ReadingArea_rsl2-rcl2-esl100-rsm2-rcm100-esm100-rsr2-rcr25-esr310,exr/ReadingArea_rsl2-rcl2-esl100-rsm2-rcm100-esm100-rsr2-rcr25-esr310.exr,ReadingArea_rsl2-rcl2-esl100-rsm2-rcm100-esm100-rsr2-rcr25-esr310.npz,,,,,0,162,162,262,,right,red,0.86,771.5077528953552,771.9979119300842,3,,7,6,lightness,readingArea,realistic,75,2023-04-01_13h23.30.484,tripletExp_regina_11082022,2022.2.4,120.57067131206684,
7,14,5,2,0.111111111111111,1.0,2,0.25,3.10526315789474,2,1.0,0.298245614035088,ReadingArea_rsl2-rcl11-esl100-rsm2-rcm25-esm310-rsr2-rcr100-esr29,exr/ReadingArea_rsl2-rcl11-esl100-rsm2-rcm25-esm310-rsr2-rcr100-esr29.exr,ReadingArea_rsl2-rcl11-esl100-rsm2-rcm25-esm310-rsr2-rcr100-esr29.npz,,,,,0,163,163,372,,right,red,1.08,773.705207824707,774.2963228225708,3,,7,6,lightness,readingArea,realistic,75,2023-04-01_13h23.30.484,tripletExp_regina_11082022,2022.2.4,120.57067131206684,
3,9,10,2,0.444444444444444,0.298245614035088,2,0.444444444444444,1.0,2,0.694444444444444,1.0,ReadingArea_rsl2-rcl44-esl29-rsm2-rcm44-esm100-rsr2-rcr69-esr100,exr/ReadingArea_rsl2-rcl44-esl29-rsm2-rcm44-esm100-rsr2-rcr69-esr100.exr,ReadingArea_rsl2-rcl44-esl29-rsm2-rcm44-esm100-rsr2-rcr69-esr100.npz,,,,,0,164,164,581,,left,green,1.28,775.9869649410248,776.4878718852997,3,,7,6,lightness,readingArea,realistic,75,2023-04-01_13h23.30.484,tripletExp_regina_11082022,2022.2.4,120.57067131206684,
12,8,10,2,0.027777777777778,3.10526315789474,2,0.25,1.0,2,0.694444444444444,1.0,ReadingArea_rsl2-rcl2-esl310-rsm2-rcm25-esm100-rsr2-rcr69-esr100,exr/ReadingArea_rsl2-rcl2-esl310-rsm2-rcm25-esm100-rsr2-rcr69-esr100.exr,ReadingArea_rsl2-rcl2-esl310-rsm2-rcm25-esm100-rsr2-rcr69-esr100.npz,,,,,0,165,165,216,,left,green,1.36,778.1775629520416,778.6628148555756,3,,7,6,lightness,readingArea,realistic,75,2023-04-01_13h23.30.484,tripletExp_regina_11082022,2022.2.4,120.57067131206684,
12,6,7,2,0.027777777777778,3.10526315789474,2,0.027777777777778,1.0,2,0.111111111111111,1.0,ReadingArea_rsl2-rcl2-esl310-rsm2-rcm2-esm100-rsr2-rcr11-esr100,exr/ReadingArea_rsl2-rcl2-esl310-rsm2-rcm2-esm100-rsr2-rcr11-esr100.exr,ReadingArea_rsl2-rcl2-esl310-rsm2-rcm2-esm100-rsr2-rcr11-esr100.npz,,,,,0,166,166,308,,left,green,1.45,780.3561248779297,780.8327128887177,3,,7,6,lightness,readingArea,realistic,75,2023-04-01_13h23.30.484,tripletExp_regina_11082022,2022.2.4,120.57067131206684,
8,0,6,2,0.25,1.0,2,0.027777777777778,0.298245614035088,2,0.027777777777778,1.0,ReadingArea_rsl2-rcl25-esl100-rsm2-rcm2-esm29-rsr2-rcr2-esr100,exr/ReadingArea_rsl2-rcl25-esl100-rsm2-rcm2-esm29-rsr2-rcr2-esr100.exr,ReadingArea_rsl2-rcl25-esl100-rsm2-rcm2-esm29-rsr2-rcr2-esr100.npz,,,,,0,167,167,401,,right,red,1.1,782.5372748374939,783.0479719638824,3,,7,6,lightness,readingArea,realistic,75,2023-04-01_13h23.30.484,tripletExp_regina_11082022,2022.2.4,120.57067131206684,
1,7,2,2,0.111111111111111,0.298245614035088,2,0.111111111111111,1.0,2,0.25,0.298245614035088,ReadingArea_rsl2-rcl11-esl29-rsm2-rcm11-esm100-rsr2-rcr25-esr29,exr/ReadingArea_rsl2-rcl11-esl29-rsm2-rcm11-esm100-rsr2-rcr25-esr29.exr,ReadingArea_rsl2-rcl11-esl29-rsm2-rcm11-esm100-rsr2-rcr25-esr29.npz,,,,,0,168,168,162,,right,red,1.23,784.736879825592,785.2501938343048,3,,7,6,lightness,readingArea,realistic,75,2023-04-01_13h23.30.484,tripletExp_regina_11082022,2022.2.4,120.57067131206684,
10,3,14,2,0.694444444444444,1.0,2,0.444444444444444,0.298245614035088,2,0.25,3.10526315789474,ReadingArea_rsl2-rcl69-esl100-rsm2-rcm44-esm29-rsr2-rcr25-esr310,exr/ReadingArea_rsl2-rcl69-esl100-rsm2-rcm44-esm29-rsr2-rcr25-esr310.exr,ReadingArea_rsl2-rcl69-esl100-rsm2-rcm44-esm29-rsr2-rcr25-esr310.npz,,,,,0,169,169,597,,left,green,2.92,788.709538936615,789.267166852951,3,,7,6,lightness,readingArea,realistic,75,2023-04-01_13h23.30.484,tripletExp_regina_11082022,2022.2.4,120.57067131206684,
7,3,12,2,0.111111111111111,1.0,2,0.444444444444444,0.298245614035088,2,0.027777777777778,3.10526315789474,ReadingArea_rsl2-rcl11-esl100-rsm2-rcm44-esm29-rsr2-rcr2-esr310,exr/ReadingArea_rsl2-rcl11-esl100-rsm2-rcm44-esm29-rsr2-rcr2-esr310.exr,ReadingArea_rsl2-rcl11-esl100-rsm2-rcm44-esm29-rsr2-rcr2-esr310.npz,,,,,0,170,170,443,,left,green,2.43,792.7192480564117,793.2880249023438,3,,7,6,lightness,readingArea,realistic,75,2023-04-01_13h23.30.484,tripletExp_regina_11082022,2022.2.4,120.57067131206684,
6,13,8,2,0.027777777777778,1.0,2,0.111111111111111,3.10526315789474,2,0.25,1.0,ReadingArea_rsl2-rcl2-esl100-rsm2-rcm11-esm310-rsr2-rcr25-esr100,exr/ReadingArea_rsl2-rcl2-esl100-rsm2-rcm11-esm310-rsr2-rcr25-esr100.exr,ReadingArea_rsl2-rcl2-esl100-rsm2-rcm11-esm310-rsr2-rcr25-esr100.npz,,,,,0,171,171,535,,right,red,2.93,796.7420129776001,797.2331240177155,3,,7,6,lightness,readingArea,realistic,75,2023-04-01_13h23.30.484,tripletExp_regina_11082022,2022.2.4,120.57067131206684,
0,14,8,2,0.027777777777778,0.298245614035088,2,0.25,3.10526315789474,2,0.25,1.0,ReadingArea_rsl2-rcl2-esl29-rsm2-rcm25-esm310-rsr2-rcr25-esr100,exr/ReadingArea_rsl2-rcl2-esl29-rsm2-rcm25-esm310-rsr2-rcr25-esr100.exr,ReadingArea_rsl2-rcl2-esl29-rsm2-rcm25-esm310-rsr2-rcr25-esr100.npz,,,,,0,172,172,545,,right,red,2.33,800.7162139415741,801.2004599571228,3,,7,6,lightness,readingArea,realistic,75,2023-04-01_13h23.30.484,tripletExp_regina_11082022,2022.2.4,120.57067131206684,
10,5,2,2,0.694444444444444,1.0,2,1.0,0.298245614035088,2,0.25,0.298245614035088,ReadingArea_rsl2-rcl69-esl100-rsm2-rcm100-esm29-rsr2-rcr25-esr29,exr/ReadingArea_rsl2-rcl69-esl100-rsm2-rcm100-esm29-rsr2-rcr25-esr29.exr,ReadingArea_rsl2-rcl69-esl100-rsm2-rcm100-esm29-rsr2-rcr25-esr29.npz,,,,,0,173,173,299,,left,green,3.45,804.6867270469666,805.1956968307495,3,,7,6,lightness,readingArea,realistic,75,2023-04-01_13h23.30.484,tripletExp_regina_11082022,2022.2.4,120.57067131206684,
3,1,0,2,0.444444444444444,0.298245614035088,2,0.111111111111111,0.298245614035088,2,0.027777777777778,0.298245614035088,ReadingArea_rsl2-rcl44-esl29-rsm2-rcm11-esm29-rsr2-rcr2-esr29,exr/ReadingArea_rsl2-rcl44-esl29-rsm2-rcm11-esm29-rsr2-rcr2-esr29.exr,ReadingArea_rsl2-rcl44-esl29-rsm2-rcm11-esm29-rsr2-rcr2-esr29.npz,,,,,0,174,174,343,,right,red,1.33,806.9004919528961,807.3956258296967,3,,7,6,lightness,readingArea,realistic,75,2023-04-01_13h23.30.484,tripletExp_regina_11082022,2022.2.4,120.57067131206684,
4,10,11,2,0.694444444444444,0.298245614035088,2,0.694444444444444,1.0,2,1.0,1.0,ReadingArea_rsl2-rcl69-esl29-rsm2-rcm69-esm100-rsr2-rcr100-esr100,exr/ReadingArea_rsl2-rcl69-esl29-rsm2-rcm69-esm100-rsr2-rcr100-esr100.exr,ReadingArea_rsl2-rcl69-esl29-rsm2-rcm69-esm100-rsr2-rcr100-esr100.npz,,,,,0,175,175,180,,right,red,1.02,809.1159439086914,809.6155500411987,3,,7,6,lightness,readingArea,realistic,75,2023-04-01_13h23.30.484,tripletExp_regina_11082022,2022.2.4,120.57067131206684,
14,0,3,2,0.25,3.10526315789474,2,0.027777777777778,0.298245614035088,2,0.444444444444444,0.298245614035088,ReadingArea_rsl2-rcl25-esl310-rsm2-rcm2-esm29-rsr2-rcr44-esr29,exr/ReadingArea_rsl2-rcl25-esl310-rsm2-rcm2-esm29-rsr2-rcr44-esr29.exr,ReadingArea_rsl2-rcl25-esl310-rsm2-rcm2-esm29-rsr2-rcr44-esr29.npz,,,,,0,176,176,75,,right,red,3.9,814.865728855133,815.3832838535309,3,,7,6,lightness,readingArea,realistic,75,2023-04-01_13h23.30.484,tripletExp_regina_11082022,2022.2.4,120.57067131206684,
5,3,0,2,1.0,0.298245614035088,2,0.444444444444444,0.298245614035088,2,0.027777777777778,0.298245614035088,ReadingArea_rsl2-rcl100-esl29-rsm2-rcm44-esm29-rsr2-rcr2-esr29,exr/ReadingArea_rsl2-rcl100-esl29-rsm2-rcm44-esm29-rsr2-rcr2-esr29.exr,ReadingArea_rsl2-rcl100-esl29-rsm2-rcm44-esm29-rsr2-rcr2-esr29.npz,,,,,0,177,177,303,,left,green,2.32,818.8292880058289,819.3227968215942,3,,7,6,lightness,readingArea,realistic,75,2023-04-01_13h23.30.484,tripletExp_regina_11082022,2022.2.4,120.57067131206684,
12,14,8,2,0.027777777777778,3.10526315789474,2,0.25,3.10526315789474,2,0.25,1.0,ReadingArea_rsl2-rcl2-esl310-rsm2-rcm25-esm310-rsr2-rcr25-esr100,exr/ReadingArea_rsl2-rcl2-esl310-rsm2-rcm25-esm310-rsr2-rcr25-esr100.exr,ReadingArea_rsl2-rcl2-esl310-rsm2-rcm25-esm310-rsr2-rcr25-esr100.npz,,,,,0,178,178,466,,right,red,2.23,822.7763919830322,823.2641749382019,3,,7,6,lightness,readingArea,realistic,75,2023-04-01_13h23.30.484,tripletExp_regina_11082022,2022.2.4,120.57067131206684,
9,0,8,2,0.444444444444444,1.0,2,0.027777777777778,0.298245614035088,2,0.25,1.0,ReadingArea_rsl2-rcl44-esl100-rsm2-rcm2-esm29-rsr2-rcr25-esr100,exr/ReadingArea_rsl2-rcl44-esl100-rsm2-rcm2-esm29-rsr2-rcr25-esr100.exr,ReadingArea_rsl2-rcl44-esl100-rsm2-rcm2-esm29-rsr2-rcr25-esr100.npz,,,,,0,179,179,27,,right,red,1.09,824.9528770446777,825.4342579841614,3,,7,6,lightness,readingArea,realistic,75,2023-04-01_13h23.30.484,tripletExp_regina_11082022,2022.2.4,120.57067131206684,
1,5,13,2,0.111111111111111,0.298245614035088,2,1.0,0.298245614035088,2,0.111111111111111,3.10526315789474,ReadingArea_rsl2-rcl11-esl29-rsm2-rcm100-esm29-rsr2-rcr11-esr310,exr/ReadingArea_rsl2-rcl11-esl29-rsm2-rcm100-esm29-rsr2-rcr11-esr310.exr,ReadingArea_rsl2-rcl11-esl29-rsm2-rcm100-esm29-rsr2-rcr11-esr310.npz,,,,,0,180,180,598,,right,red,0.83,827.1329338550568,827.6267559528351,3,,7,6,lightness,readingArea,realistic,75,2023-04-01_13h23.30.484,tripletExp_regina_11082022,2022.2.4,120.57067131206684,
2,3,9,2,0.25,0.298245614035088,2,0.444444444444444,0.298245614035088,2,0.444444444444444,1.0,ReadingArea_rsl2-rcl25-esl29-rsm2-rcm44-esm29-rsr2-rcr44-esr100,exr/ReadingArea_rsl2-rcl25-esl29-rsm2-rcm44-esm29-rsr2-rcr44-esr100.exr,ReadingArea_rsl2-rcl25-esl29-rsm2-rcm44-esm29-rsr2-rcr44-esr100.npz,,,,,0,181,181,190,,left,green,1.03,829.3504168987274,829.8608000278473,3,,7,6,lightness,readingArea,realistic,75,2023-04-01_13h23.30.484,tripletExp_regina_11082022,2022.2.4,120.57067131206684,
11,13,1,2,1.0,1.0,2,0.111111111111111,3.10526315789474,2,0.111111111111111,0.298245614035088,ReadingArea_rsl2-rcl100-esl100-rsm2-rcm11-esm310-rsr2-rcr11-esr29,exr/ReadingArea_rsl2-rcl100-esl100-rsm2-rcm11-esm310-rsr2-rcr11-esr29.exr,ReadingArea_rsl2-rcl100-esl100-rsm2-rcm11-esm310-rsr2-rcr11-esr29.npz,,,,,0,182,182,185,,right,red,1.08,831.5602989196777,832.0784540176392,3,,7,6,lightness,readingArea,realistic,75,2023-04-01_13h23.30.484,tripletExp_regina_11082022,2022.2.4,120.57067131206684,
2,5,0,2,0.25,0.298245614035088,2,1.0,0.298245614035088,2,0.027777777777778,0.298245614035088,ReadingArea_rsl2-rcl25-esl29-rsm2-rcm100-esm29-rsr2-rcr2-esr29,exr/ReadingArea_rsl2-rcl25-esl29-rsm2-rcm100-esm29-rsr2-rcr2-esr29.exr,ReadingArea_rsl2-rcl25-esl29-rsm2-rcm100-esm29-rsr2-rcr2-esr29.npz,,,,,0,183,183,414,,left,green,1.12,833.7985179424286,834.3044319152832,3,,7,6,lightness,readingArea,realistic,75,2023-04-01_13h23.30.484,tripletExp_regina_11082022,2022.2.4,120.57067131206684,
14,8,5,2,0.25,3.10526315789474,2,0.25,1.0,2,1.0,0.298245614035088,ReadingArea_rsl2-rcl25-esl310-rsm2-rcm25-esm100-rsr2-rcr100-esr29,exr/ReadingArea_rsl2-rcl25-esl310-rsm2-rcm25-esm100-rsr2-rcr100-esr29.exr,ReadingArea_rsl2-rcl25-esl310-rsm2-rcm25-esm100-rsr2-rcr100-esr29.npz,,,,,0,184,184,28,,right,red,1.63,836.0279788970947,836.5828900337219,3,,7,6,lightness,readingArea,realistic,75,2023-04-01_13h23.30.484,tripletExp_regina_11082022,2022.2.4,120.57067131206684,
5,4,12,2,1.0,0.298245614035088,2,0.694444444444444,0.298245614035088,2,0.027777777777778,3.10526315789474,ReadingArea_rsl2-rcl100-esl29-rsm2-rcm69-esm29-rsr2-rcr2-esr310,exr/ReadingArea_rsl2-rcl100-esl29-rsm2-rcm69-esm29-rsr2-rcr2-esr310.exr,ReadingArea_rsl2-rcl100-esl29-rsm2-rcm69-esm29-rsr2-rcr2-esr310.npz,,,,,0,185,185,82,,left,green,1.75,838.2802150249481,838.7758049964905,3,,7,6,lightness,readingArea,realistic,75,2023-04-01_13h23.30.484,tripletExp_regina_11082022,2022.2.4,120.57067131206684,
2,14,9,2,0.25,0.298245614035088,2,0.25,3.10526315789474,2,0.444444444444444,1.0,ReadingArea_rsl2-rcl25-esl29-rsm2-rcm25-esm310-rsr2-rcr44-esr100,exr/ReadingArea_rsl2-rcl25-esl29-rsm2-rcm25-esm310-rsr2-rcr44-esr100.exr,ReadingArea_rsl2-rcl25-esl29-rsm2-rcm25-esm310-rsr2-rcr44-esr100.npz,,,,,0,186,186,51,,right,red,1.75,840.4974229335785,841.0052988529205,3,,7,6,lightness,readingArea,realistic,75,2023-04-01_13h23.30.484,tripletExp_regina_11082022,2022.2.4,120.57067131206684,
4,8,3,2,0.694444444444444,0.298245614035088,2,0.25,1.0,2,0.444444444444444,0.298245614035088,ReadingArea_rsl2-rcl69-esl29-rsm2-rcm25-esm100-rsr2-rcr44-esr29,exr/ReadingArea_rsl2-rcl69-esl29-rsm2-rcm25-esm100-rsr2-rcr44-esr29.exr,ReadingArea_rsl2-rcl69-esl29-rsm2-rcm25-esm100-rsr2-rcr44-esr29.npz,,,,,0,187,187,292,,right,red,3.08,844.4867339134216,845.0151040554047,3,,7,6,lightness,readingArea,realistic,75,2023-04-01_13h23.30.484,tripletExp_regina_11082022,2022.2.4,120.57067131206684,
4,10,9,2,0.694444444444444,0.298245614035088,2,0.694444444444444,1.0,2,0.444444444444444,1.0,ReadingArea_rsl2-rcl69-esl29-rsm2-rcm69-esm100-rsr2-rcr44-esr100,exr/ReadingArea_rsl2-rcl69-esl29-rsm2-rcm69-esm100-rsr2-rcr44-esr100.exr,ReadingArea_rsl2-rcl69-esl29-rsm2-rcm69-esm100-rsr2-rcr44-esr100.npz,,,,,0,188,188,516,,left,green,2.52,848.4567048549652,848.9539179801941,3,,7,6,lightness,readingArea,realistic,75,2023-04-01_13h23.30.484,tripletExp_regina_11082022,2022.2.4,120.57067131206684,
4,8,0,2,0.694444444444444,0.298245614035088,2,0.25,1.0,2,0.027777777777778,0.298245614035088,ReadingArea_rsl2-rcl69-esl29-rsm2-rcm25-esm100-rsr2-rcr2-esr29,exr/ReadingArea_rsl2-rcl69-esl29-rsm2-rcm25-esm100-rsr2-rcr2-esr29.exr,ReadingArea_rsl2-rcl69-esl29-rsm2-rcm25-esm100-rsr2-rcr2-esr29.npz,,,,,0,189,189,137,,left,green,1.32,850.6771569252014,,3,,7,6,lightness,readingArea,realistic,75,2023-04-01_13h23.30.484,tripletExp_regina_11082022,2022.2.4,120.57067131206684,
6,4,13,2,0.027777777777778,1.0,2,0.694444444444444,0.298245614035088,2,0.111111111111111,3.10526315789474,ReadingArea_rsl2-rcl2-esl100-rsm2-rcm69-esm29-rsr2-rcr11-esr310,exr/ReadingArea_rsl2-rcl2-esl100-rsm2-rcm69-esm29-rsr2-rcr11-esr310.exr,ReadingArea_rsl2-rcl2-esl100-rsm2-rcm69-esm29-rsr2-rcr11-esr310.npz,,,,,0,190,190,202,,right,red,1.12,852.8944919109344,,3,,7,6,lightness,readingArea,realistic,75,2023-04-01_13h23.30.484,tripletExp_regina_11082022,2022.2.4,120.57067131206684,
10,7,2,2,0.694444444444444,1.0,2,0.111111111111111,1.0,2,0.25,0.298245614035088,ReadingArea_rsl2-rcl69-esl100-rsm2-rcm11-esm100-rsr2-rcr25-esr29,exr/ReadingArea_rsl2-rcl69-esl100-rsm2-rcm11-esm100-rsr2-rcr25-esr29.exr,ReadingArea_rsl2-rcl69-esl100-rsm2-rcm11-esm100-rsr2-rcr25-esr29.npz,,,,,0,191,191,523,,right,red,1.17,855.1005640029907,855.5807299613953,3,,7,6,lightness,readingArea,realistic,75,2023-04-01_13h23.30.484,tripletExp_regina_11082022,2022.2.4,120.57067131206684,
5,1,4,2,1.0,0.298245614035088,2,0.111111111111111,0.298245614035088,2,0.694444444444444,0.298245614035088,ReadingArea_rsl2-rcl100-esl29-rsm2-rcm11-esm29-rsr2-rcr69-esr29,exr/ReadingArea_rsl2-rcl100-esl29-rsm2-rcm11-esm29-rsr2-rcr69-esr29.exr,ReadingArea_rsl2-rcl100-esl29-rsm2-rcm11-esm29-rsr2-rcr69-esr29.npz,,,,,0,192,192,287,,right,red,1.33,857.3063418865204,857.8313579559326,3,,7,6,lightness,readingArea,realistic,75,2023-04-01_13h23.30.484,tripletExp_regina_11082022,2022.2.4,120.57067131206684,
11,0,6,2,1.0,1.0,2,0.027777777777778,0.298245614035088,2,0.027777777777778,1.0,ReadingArea_rsl2-rcl100-esl100-rsm2-rcm2-esm29-rsr2-rcr2-esr100,exr/ReadingArea_rsl2-rcl100-esl100-rsm2-rcm2-esm29-rsr2-rcr2-esr100.exr,ReadingArea_rsl2-rcl100-esl100-rsm2-rcm2-esm29-rsr2-rcr2-esr100.npz,,,,,0,193,193,586,,right,red,1.14,859.5324358940125,860.0377888679504,3,,7,6,lightness,readingArea,realistic,75,2023-04-01_13h23.30.484,tripletExp_regina_11082022,2022.2.4,120.57067131206684,
1,8,5,2,0.111111111111111,0.298245614035088,2,0.25,1.0,2,1.0,0.298245614035088,ReadingArea_rsl2-rcl11-esl29-rsm2-rcm25-esm100-rsr2-rcr100-esr29,exr/ReadingArea_rsl2-rcl11-esl29-rsm2-rcm25-esm100-rsr2-rcr100-esr29.exr,ReadingArea_rsl2-rcl11-esl29-rsm2-rcm25-esm100-rsr2-rcr100-esr29.npz,,,,,0,194,194,445,,right,red,0.92,861.7260479927063,862.2131099700928,3,,7,6,lightness,readingArea,realistic,75,2023-04-01_13h23.30.484,tripletExp_regina_11082022,2022.2.4,120.57067131206684,
10,14,13,2,0.694444444444444,1.0,2,0.25,3.10526315789474,2,0.111111111111111,3.10526315789474,ReadingArea_rsl2-rcl69-esl100-rsm2-rcm25-esm310-rsr2-rcr11-esr310,exr/ReadingArea_rsl2-rcl69-esl100-rsm2-rcm25-esm310-rsr2-rcr11-esr310.exr,ReadingArea_rsl2-rcl69-esl100-rsm2-rcm25-esm310-rsr2-rcr11-esr310.npz,,,,,0,195,195,168,,left,green,1.13,863.9058690071106,864.3934369087219,3,,7,6,lightness,readingArea,realistic,75,2023-04-01_13h23.30.484,tripletExp_regina_11082022,2022.2.4,120.57067131206684,
9,3,0,2,0.444444444444444,1.0,2,0.444444444444444,0.298245614035088,2,0.027777777777778,0.298245614035088,ReadingArea_rsl2-rcl44-esl100-rsm2-rcm44-esm29-rsr2-rcr2-esr29,exr/ReadingArea_rsl2-rcl44-esl100-rsm2-rcm44-esm29-rsr2-rcr2-esr29.exr,ReadingArea_rsl2-rcl44-esl100-rsm2-rcm44-esm29-rsr2-rcr2-esr29.npz,,,,,0,196,196,120,,left,green,1.13,866.0831060409546,866.5689539909363,3,,7,6,lightness,readingArea,realistic,75,2023-04-01_13h23.30.484,tripletExp_regina_11082022,2022.2.4,120.57067131206684,
12,8,6,2,0.027777777777778,3.10526315789474,2,0.25,1.0,2,0.027777777777778,1.0,ReadingArea_rsl2-rcl2-esl310-rsm2-rcm25-esm100-rsr2-rcr2-esr100,exr/ReadingArea_rsl2-rcl2-esl310-rsm2-rcm25-esm100-rsr2-rcr2-esr100.exr,ReadingArea_rsl2-rcl2-esl310-rsm2-rcm25-esm100-rsr2-rcr2-esr100.npz,,,,,0,197,197,281,,left,green,2.62,870.0243430137634,870.5384449958801,3,,7,6,lightness,readingArea,realistic,75,2023-04-01_13h23.30.484,tripletExp_regina_11082022,2022.2.4,120.57067131206684,
7,9,8,2,0.111111111111111,1.0,2,0.444444444444444,1.0,2,0.25,1.0,ReadingArea_rsl2-rcl11-esl100-rsm2-rcm44-esm100-rsr2-rcr25-esr100,exr/ReadingArea_rsl2-rcl11-esl100-rsm2-rcm44-esm100-rsr2-rcr25-esr100.exr,ReadingArea_rsl2-rcl11-esl100-rsm2-rcm44-esm100-rsr2-rcr25-esr100.npz,,,,,0,198,198,515,,right,red,1.15,872.2292459011078,872.711110830307,3,,7,6,lightness,readingArea,realistic,75,2023-04-01_13h23.30.484,tripletExp_regina_11082022,2022.2.4,120.57067131206684,
8,7,13,2,0.25,1.0,2,0.111111111111111,1.0,2,0.111111111111111,3.10526315789474,ReadingArea_rsl2-rcl25-esl100-rsm2-rcm11-esm100-rsr2-rcr11-esr310,exr/ReadingArea_rsl2-rcl25-esl100-rsm2-rcm11-esm100-rsr2-rcr11-esr310.exr,ReadingArea_rsl2-rcl25-esl100-rsm2-rcm11-esm100-rsr2-rcr11-esr310.npz,,,,,0,199,199,512,,left,green,1.45,874.4022760391235,874.8929970264435,3,,7,6,lightness,readingArea,realistic,75,2023-04-01_13h23.30.484,tripletExp_regina_11082022,2022.2.4,120.57067131206684,
10,3,6,2,0.694444444444444,1.0,2,0.444444444444444,0.298245614035088,2,0.027777777777778,1.0,ReadingArea_rsl2-rcl69-esl100-rsm2-rcm44-esm29-rsr2-rcr2-esr100,exr/ReadingArea_rsl2-rcl69-esl100-rsm2-rcm44-esm29-rsr2-rcr2-esr100.exr,ReadingArea_rsl2-rcl69-esl100-rsm2-rcm44-esm29-rsr2-rcr2-esr100.npz,,,,,0,200,200,261,,left,green,1.24,876.5834698677063,877.0622508525848,3,,7,6,lightness,readingArea,realistic,75,2023-04-01_13h23.30.484,tripletExp_regina_11082022,2022.2.4,120.57067131206684,
14,11,4,2,0.25,3.10526315789474,2,1.0,1.0,2,0.694444444444444,0.298245614035088,ReadingArea_rsl2-rcl25-esl310-rsm2-rcm100-esm100-rsr2-rcr69-esr29,exr/ReadingArea_rsl2-rcl25-esl310-rsm2-rcm100-esm100-rsr2-rcr69-esr29.exr,ReadingArea_rsl2-rcl25-esl310-rsm2-rcm100-esm100-rsr2-rcr69-esr29.npz,,,,,0,201,201,370,,left,green,2.88,880.5501818656921,881.0705540180206,3,,7,6,lightness,readingArea,realistic,75,2023-04-01_13h23.30.484,tripletExp_regina_11082022,2022.2.4,120.57067131206684,
8,0,4,2,0.25,1.0,2,0.027777777777778,0.298245614035088,2,0.694444444444444,0.298245614035088,ReadingArea_rsl2-rcl25-esl100-rsm2-rcm2-esm29-rsr2-rcr69-esr29,exr/ReadingArea_rsl2-rcl25-esl100-rsm2-rcm2-esm29-rsr2-rcr69-esr29.exr,ReadingArea_rsl2-rcl25-esl100-rsm2-rcm2-esm29-rsr2-rcr69-esr29.npz,,,,,0,202,202,346,,right,red,2.27,884.5239820480347,,3,,7,6,lightness,readingArea,realistic,75,2023-04-01_13h23.30.484,tripletExp_regina_11082022,2022.2.4,120.57067131206684,
12,5,10,2,0.027777777777778,3.10526315789474,2,1.0,0.298245614035088,2,0.694444444444444,1.0,ReadingArea_rsl2-rcl2-esl310-rsm2-rcm100-esm29-rsr2-rcr69-esr100,exr/ReadingArea_rsl2-rcl2-esl310-rsm2-rcm100-esm29-rsr2-rcr69-esr100.exr,ReadingArea_rsl2-rcl2-esl310-rsm2-rcm100-esm29-rsr2-rcr69-esr100.npz,,,,,0,203,203,493,,right,red,0.88,886.7747240066528,,3,,7,6,lightness,readingArea,realistic,75,2023-04-01_13h23.30.484,tripletExp_regina_11082022,2022.2.4,120.57067131206684,
