index_left,index_middle,index_right,reflectance_surround_left,reflectance_center_left,emission_spot_left,reflectance_surround_middle,reflectance_center_middle,emission_spot_middle,reflectance_surround_right,reflectance_center_right,emission_spot_right,ImageName,ImageExr,ImageNpy,trials_2.thisRepN,trials_2.thisTrialN,trials_2.thisN,trials_2.thisIndex,trials.thisRepN,trials.thisTrialN,trials.thisN,trials.thisIndex,sound_1.started,BB_Trial.resp,BB_Trial.color,BB_Trial.rt,text.started,text.stopped,sound_2.started,sound_1.stopped,block,participant,session,L/B,scene,condition,nTrialsPerBlock,date,expName,psychopyVersion,frameRate,Unnamed: 42
9,12,6,2,0.444444444444444,1.0,2,0.027777777777778,3.10526315789474,2,0.027777777777778,1.0,ReadingArea_rsl2-rcl44-esl100-rsm2-rcm2-esm310-rsr2-rcr2-esr100,exr/ReadingArea_rsl2-rcl44-esl100-rsm2-rcm2-esm310-rsr2-rcr2-esr100.exr,ReadingArea_rsl2-rcl44-esl100-rsm2-rcm2-esm310-rsr2-rcr2-esr100.npz,,,,,0,0,0,5,111.2620540857315,right,red,0.88,117.56922602653503,112.41668581962584,65.89973509311676,103.28029084205627,1,5,6,lightness,readingArea,realistic,75,2023-03-15_13h35.03.368,tripletExp_regina_11082022,2022.2.4,120.18682912012656,
4,8,10,2,0.694444444444444,0.298245614035088,2,0.25,1.0,2,0.694444444444444,1.0,ReadingArea_rsl2-rcl69-esl29-rsm2-rcm25-esm100-rsr2-rcr69-esr100,exr/ReadingArea_rsl2-rcl69-esl29-rsm2-rcm25-esm100-rsr2-rcr69-esr100.exr,ReadingArea_rsl2-rcl69-esl29-rsm2-rcm25-esm100-rsr2-rcr69-esr100.npz,,,,,0,1,1,221,,left,green,1.37,119.81412386894226,120.3334460258484,,,1,5,6,lightness,readingArea,realistic,75,2023-03-15_13h35.03.368,tripletExp_regina_11082022,2022.2.4,120.18682912012656,
13,10,11,2,0.111111111111111,3.10526315789474,2,0.694444444444444,1.0,2,1.0,1.0,ReadingArea_rsl2-rcl11-esl310-rsm2-rcm69-esm100-rsr2-rcr100-esr100,exr/ReadingArea_rsl2-rcl11-esl310-rsm2-rcm69-esm100-rsr2-rcr100-esr100.exr,ReadingArea_rsl2-rcl11-esl310-rsm2-rcm69-esm100-rsr2-rcr100-esr100.npz,,,,,0,2,2,320,,right,red,1.17,122.04148697853088,122.46272897720335,,,1,5,6,lightness,readingArea,realistic,75,2023-03-15_13h35.03.368,tripletExp_regina_11082022,2022.2.4,120.18682912012656,
12,13,10,2,0.027777777777778,3.10526315789474,2,0.111111111111111,3.10526315789474,2,0.694444444444444,1.0,ReadingArea_rsl2-rcl2-esl310-rsm2-rcm11-esm310-rsr2-rcr69-esr100,exr/ReadingArea_rsl2-rcl2-esl310-rsm2-rcm11-esm310-rsr2-rcr69-esr100.exr,ReadingArea_rsl2-rcl2-esl310-rsm2-rcm11-esm310-rsr2-rcr69-esr100.npz,,,,,0,3,3,295,,left,green,1.52,124.17746090888976,,,,1,5,6,lightness,readingArea,realistic,75,2023-03-15_13h35.03.368,tripletExp_regina_11082022,2022.2.4,120.18682912012656,
0,4,9,2,0.027777777777778,0.298245614035088,2,0.694444444444444,0.298245614035088,2,0.444444444444444,1.0,ReadingArea_rsl2-rcl2-esl29-rsm2-rcm69-esm29-rsr2-rcr44-esr100,exr/ReadingArea_rsl2-rcl2-esl29-rsm2-rcm69-esm29-rsr2-rcr44-esr100.exr,ReadingArea_rsl2-rcl2-esl29-rsm2-rcm69-esm29-rsr2-rcr44-esr100.npz,,,,,0,4,4,21,,right,red,1.11,126.31906485557556,,,,1,5,6,lightness,readingArea,realistic,75,2023-03-15_13h35.03.368,tripletExp_regina_11082022,2022.2.4,120.18682912012656,
0,4,6,2,0.027777777777778,0.298245614035088,2,0.694444444444444,0.298245614035088,2,0.027777777777778,1.0,ReadingArea_rsl2-rcl2-esl29-rsm2-rcm69-esm29-rsr2-rcr2-esr100,exr/ReadingArea_rsl2-rcl2-esl29-rsm2-rcm69-esm29-rsr2-rcr2-esr100.exr,ReadingArea_rsl2-rcl2-esl29-rsm2-rcm69-esm29-rsr2-rcr2-esr100.npz,,,,,0,5,5,49,,right,red,1.41,128.43753480911255,128.89942693710327,,,1,5,6,lightness,readingArea,realistic,75,2023-03-15_13h35.03.368,tripletExp_regina_11082022,2022.2.4,120.18682912012656,
5,8,7,2,1.0,0.298245614035088,2,0.25,1.0,2,0.111111111111111,1.0,ReadingArea_rsl2-rcl100-esl29-rsm2-rcm25-esm100-rsr2-rcr11-esr100,exr/ReadingArea_rsl2-rcl100-esl29-rsm2-rcm25-esm100-rsr2-rcr11-esr100.exr,ReadingArea_rsl2-rcl100-esl29-rsm2-rcm25-esm100-rsr2-rcr11-esr100.npz,,,,,0,6,6,36,,right,red,1.06,130.60280179977417,131.0528838634491,,,1,5,6,lightness,readingArea,realistic,75,2023-03-15_13h35.03.368,tripletExp_regina_11082022,2022.2.4,120.18682912012656,
3,9,10,2,0.444444444444444,0.298245614035088,2,0.444444444444444,1.0,2,0.694444444444444,1.0,ReadingArea_rsl2-rcl44-esl29-rsm2-rcm44-esm100-rsr2-rcr69-esr100,exr/ReadingArea_rsl2-rcl44-esl29-rsm2-rcm44-esm100-rsr2-rcr69-esr100.exr,ReadingArea_rsl2-rcl44-esl29-rsm2-rcm44-esm100-rsr2-rcr69-esr100.npz,,,,,0,7,7,581,,left,green,1.4,132.74339890480042,133.17610383033752,,,1,5,6,lightness,readingArea,realistic,75,2023-03-15_13h35.03.368,tripletExp_regina_11082022,2022.2.4,120.18682912012656,
13,0,14,2,0.111111111111111,3.10526315789474,2,0.027777777777778,0.298245614035088,2,0.25,3.10526315789474,ReadingArea_rsl2-rcl11-esl310-rsm2-rcm2-esm29-rsr2-rcr25-esr310,exr/ReadingArea_rsl2-rcl11-esl310-rsm2-rcm2-esm29-rsr2-rcr25-esr310.exr,ReadingArea_rsl2-rcl11-esl310-rsm2-rcm2-esm29-rsr2-rcr25-esr310.npz,,,,,0,8,8,278,,left,green,1.42,134.8903238773346,135.32210993766785,,,1,5,6,lightness,readingArea,realistic,75,2023-03-15_13h35.03.368,tripletExp_regina_11082022,2022.2.4,120.18682912012656,
8,1,14,2,0.25,1.0,2,0.111111111111111,0.298245614035088,2,0.25,3.10526315789474,ReadingArea_rsl2-rcl25-esl100-rsm2-rcm11-esm29-rsr2-rcr25-esr310,exr/ReadingArea_rsl2-rcl25-esl100-rsm2-rcm11-esm29-rsr2-rcr25-esr310.exr,ReadingArea_rsl2-rcl25-esl100-rsm2-rcm11-esm29-rsr2-rcr25-esr310.npz,,,,,0,9,9,500,,left,green,1.01,137.0404360294342,137.49553894996643,,,1,5,6,lightness,readingArea,realistic,75,2023-03-15_13h35.03.368,tripletExp_regina_11082022,2022.2.4,120.18682912012656,
14,8,5,2,0.25,3.10526315789474,2,0.25,1.0,2,1.0,0.298245614035088,ReadingArea_rsl2-rcl25-esl310-rsm2-rcm25-esm100-rsr2-rcr100-esr29,exr/ReadingArea_rsl2-rcl25-esl310-rsm2-rcm25-esm100-rsr2-rcr100-esr29.exr,ReadingArea_rsl2-rcl25-esl310-rsm2-rcm25-esm100-rsr2-rcr100-esr29.npz,,,,,0,10,10,28,,right,red,1.52,139.21964192390442,139.6530179977417,,,1,5,6,lightness,readingArea,realistic,75,2023-03-15_13h35.03.368,tripletExp_regina_11082022,2022.2.4,120.18682912012656,
1,12,11,2,0.111111111111111,0.298245614035088,2,0.027777777777778,3.10526315789474,2,1.0,1.0,ReadingArea_rsl2-rcl11-esl29-rsm2-rcm2-esm310-rsr2-rcr100-esr100,exr/ReadingArea_rsl2-rcl11-esl29-rsm2-rcm2-esm310-rsr2-rcr100-esr100.exr,ReadingArea_rsl2-rcl11-esl29-rsm2-rcm2-esm310-rsr2-rcr100-esr100.npz,,,,,0,11,11,178,,left,green,0.93,141.3505048751831,141.75870990753174,,,1,5,6,lightness,readingArea,realistic,75,2023-03-15_13h35.03.368,tripletExp_regina_11082022,2022.2.4,120.18682912012656,
6,10,9,2,0.027777777777778,1.0,2,0.694444444444444,1.0,2,0.444444444444444,1.0,ReadingArea_rsl2-rcl2-esl100-rsm2-rcm69-esm100-rsr2-rcr44-esr100,exr/ReadingArea_rsl2-rcl2-esl100-rsm2-rcm69-esm100-rsr2-rcr44-esr100.exr,ReadingArea_rsl2-rcl2-esl100-rsm2-rcm69-esm100-rsr2-rcr44-esr100.npz,,,,,0,12,12,148,,right,red,2.36,145.2494559288025,145.7049880027771,,,1,5,6,lightness,readingArea,realistic,75,2023-03-15_13h35.03.368,tripletExp_regina_11082022,2022.2.4,120.18682912012656,
4,10,9,2,0.694444444444444,0.298245614035088,2,0.694444444444444,1.0,2,0.444444444444444,1.0,ReadingArea_rsl2-rcl69-esl29-rsm2-rcm69-esm100-rsr2-rcr44-esr100,exr/ReadingArea_rsl2-rcl69-esl29-rsm2-rcm69-esm100-rsr2-rcr44-esr100.exr,ReadingArea_rsl2-rcl69-esl29-rsm2-rcm69-esm100-rsr2-rcr44-esr100.npz,,,,,0,13,13,516,,left,green,1.5,147.4010238647461,147.9896638393402,,,1,5,6,lightness,readingArea,realistic,75,2023-03-15_13h35.03.368,tripletExp_regina_11082022,2022.2.4,120.18682912012656,
3,6,10,2,0.444444444444444,0.298245614035088,2,0.027777777777778,1.0,2,0.694444444444444,1.0,ReadingArea_rsl2-rcl44-esl29-rsm2-rcm2-esm100-rsr2-rcr69-esr100,exr/ReadingArea_rsl2-rcl44-esl29-rsm2-rcm2-esm100-rsr2-rcr69-esr100.exr,ReadingArea_rsl2-rcl44-esl29-rsm2-rcm2-esm100-rsr2-rcr69-esr100.npz,,,,,0,14,14,138,,left,green,1.5,149.67188787460327,150.09713792800903,,,1,5,6,lightness,readingArea,realistic,75,2023-03-15_13h35.03.368,tripletExp_regina_11082022,2022.2.4,120.18682912012656,
9,12,0,2,0.444444444444444,1.0,2,0.027777777777778,3.10526315789474,2,0.027777777777778,0.298245614035088,ReadingArea_rsl2-rcl44-esl100-rsm2-rcm2-esm310-rsr2-rcr2-esr29,exr/ReadingArea_rsl2-rcl44-esl100-rsm2-rcm2-esm310-rsr2-rcr2-esr29.exr,ReadingArea_rsl2-rcl44-esl100-rsm2-rcm2-esm310-rsr2-rcr2-esr29.npz,,,,,0,15,15,175,,right,red,1.13,151.81170082092285,152.22932887077332,,,1,5,6,lightness,readingArea,realistic,75,2023-03-15_13h35.03.368,tripletExp_regina_11082022,2022.2.4,120.18682912012656,
11,4,0,2,1.0,1.0,2,0.694444444444444,0.298245614035088,2,0.027777777777778,0.298245614035088,ReadingArea_rsl2-rcl100-esl100-rsm2-rcm69-esm29-rsr2-rcr2-esr29,exr/ReadingArea_rsl2-rcl100-esl100-rsm2-rcm69-esm29-rsr2-rcr2-esr29.exr,ReadingArea_rsl2-rcl100-esl100-rsm2-rcm69-esm29-rsr2-rcr2-esr29.npz,,,,,0,16,16,219,,left,green,1.13,153.95058298110962,154.45406079292297,,,1,5,6,lightness,readingArea,realistic,75,2023-03-15_13h35.03.368,tripletExp_regina_11082022,2022.2.4,120.18682912012656,
8,2,0,2,0.25,1.0,2,0.25,0.298245614035088,2,0.027777777777778,0.298245614035088,ReadingArea_rsl2-rcl25-esl100-rsm2-rcm25-esm29-rsr2-rcr2-esr29,exr/ReadingArea_rsl2-rcl25-esl100-rsm2-rcm25-esm29-rsr2-rcr2-esr29.exr,ReadingArea_rsl2-rcl25-esl100-rsm2-rcm25-esm29-rsr2-rcr2-esr29.npz,,,,,0,17,17,574,,left,green,1.5,156.15693593025208,156.61058592796326,,,1,5,6,lightness,readingArea,realistic,75,2023-03-15_13h35.03.368,tripletExp_regina_11082022,2022.2.4,120.18682912012656,
3,13,1,2,0.444444444444444,0.298245614035088,2,0.111111111111111,3.10526315789474,2,0.111111111111111,0.298245614035088,ReadingArea_rsl2-rcl44-esl29-rsm2-rcm11-esm310-rsr2-rcr11-esr29,exr/ReadingArea_rsl2-rcl44-esl29-rsm2-rcm11-esm310-rsr2-rcr11-esr29.exr,ReadingArea_rsl2-rcl44-esl29-rsm2-rcm11-esm310-rsr2-rcr11-esr29.npz,,,,,0,18,18,421,,left,green,1.49,158.323912858963,158.7846019268036,,,1,5,6,lightness,readingArea,realistic,75,2023-03-15_13h35.03.368,tripletExp_regina_11082022,2022.2.4,120.18682912012656,
3,1,6,2,0.444444444444444,0.298245614035088,2,0.111111111111111,0.298245614035088,2,0.027777777777778,1.0,ReadingArea_rsl2-rcl44-esl29-rsm2-rcm11-esm29-rsr2-rcr2-esr100,exr/ReadingArea_rsl2-rcl44-esl29-rsm2-rcm11-esm29-rsr2-rcr2-esr100.exr,ReadingArea_rsl2-rcl44-esl29-rsm2-rcm11-esm29-rsr2-rcr2-esr100.npz,,,,,0,19,19,464,,right,red,1.44,160.49536395072937,161.0257008075714,,,1,5,6,lightness,readingArea,realistic,75,2023-03-15_13h35.03.368,tripletExp_regina_11082022,2022.2.4,120.18682912012656,
6,10,8,2,0.027777777777778,1.0,2,0.694444444444444,1.0,2,0.25,1.0,ReadingArea_rsl2-rcl2-esl100-rsm2-rcm69-esm100-rsr2-rcr25-esr100,exr/ReadingArea_rsl2-rcl2-esl100-rsm2-rcm69-esm100-rsr2-rcr25-esr100.exr,ReadingArea_rsl2-rcl2-esl100-rsm2-rcm69-esm100-rsr2-rcr25-esr100.npz,,,,,0,20,20,167,,right,red,1.11,162.72738885879517,163.1910319328308,,,1,5,6,lightness,readingArea,realistic,75,2023-03-15_13h35.03.368,tripletExp_regina_11082022,2022.2.4,120.18682912012656,
5,2,10,2,1.0,0.298245614035088,2,0.25,0.298245614035088,2,0.694444444444444,1.0,ReadingArea_rsl2-rcl100-esl29-rsm2-rcm25-esm29-rsr2-rcr69-esr100,exr/ReadingArea_rsl2-rcl100-esl29-rsm2-rcm25-esm29-rsr2-rcr69-esr100.exr,ReadingArea_rsl2-rcl100-esl29-rsm2-rcm25-esm29-rsr2-rcr69-esr100.npz,,,,,0,21,21,595,,right,red,1.38,164.9119369983673,165.33647084236145,,,1,5,6,lightness,readingArea,realistic,75,2023-03-15_13h35.03.368,tripletExp_regina_11082022,2022.2.4,120.18682912012656,
7,14,5,2,0.111111111111111,1.0,2,0.25,3.10526315789474,2,1.0,0.298245614035088,ReadingArea_rsl2-rcl11-esl100-rsm2-rcm25-esm310-rsr2-rcr100-esr29,exr/ReadingArea_rsl2-rcl11-esl100-rsm2-rcm25-esm310-rsr2-rcr100-esr29.exr,ReadingArea_rsl2-rcl11-esl100-rsm2-rcm25-esm310-rsr2-rcr100-esr29.npz,,,,,0,22,22,372,,left,green,1.29,167.04557299613953,167.50251388549805,,,1,5,6,lightness,readingArea,realistic,75,2023-03-15_13h35.03.368,tripletExp_regina_11082022,2022.2.4,120.18682912012656,
0,1,7,2,0.027777777777778,0.298245614035088,2,0.111111111111111,0.298245614035088,2,0.111111111111111,1.0,ReadingArea_rsl2-rcl2-esl29-rsm2-rcm11-esm29-rsr2-rcr11-esr100,exr/ReadingArea_rsl2-rcl2-esl29-rsm2-rcm11-esm29-rsr2-rcr11-esr100.exr,ReadingArea_rsl2-rcl2-esl29-rsm2-rcm11-esm29-rsr2-rcr11-esr100.npz,,,,,0,23,23,243,,right,red,1.22,169.2122619152069,169.66526079177856,,,1,5,6,lightness,readingArea,realistic,75,2023-03-15_13h35.03.368,tripletExp_regina_11082022,2022.2.4,120.18682912012656,
11,7,8,2,1.0,1.0,2,0.111111111111111,1.0,2,0.25,1.0,ReadingArea_rsl2-rcl100-esl100-rsm2-rcm11-esm100-rsr2-rcr25-esr100,exr/ReadingArea_rsl2-rcl100-esl100-rsm2-rcm11-esm100-rsr2-rcr25-esr100.exr,ReadingArea_rsl2-rcl100-esl100-rsm2-rcm11-esm100-rsr2-rcr25-esr100.npz,,,,,0,24,24,37,,right,red,1.08,171.38576292991638,171.8041980266571,,,1,5,6,lightness,readingArea,realistic,75,2023-03-15_13h35.03.368,tripletExp_regina_11082022,2022.2.4,120.18682912012656,
2,11,8,2,0.25,0.298245614035088,2,1.0,1.0,2,0.25,1.0,ReadingArea_rsl2-rcl25-esl29-rsm2-rcm100-esm100-rsr2-rcr25-esr100,exr/ReadingArea_rsl2-rcl25-esl29-rsm2-rcm100-esm100-rsr2-rcr25-esr100.exr,ReadingArea_rsl2-rcl25-esl29-rsm2-rcm100-esm100-rsr2-rcr25-esr100.npz,,,,,0,25,25,364,,right,red,1.21,173.52385091781616,173.98991680145264,,,1,5,6,lightness,readingArea,realistic,75,2023-03-15_13h35.03.368,tripletExp_regina_11082022,2022.2.4,120.18682912012656,
8,0,4,2,0.25,1.0,2,0.027777777777778,0.298245614035088,2,0.694444444444444,0.298245614035088,ReadingArea_rsl2-rcl25-esl100-rsm2-rcm2-esm29-rsr2-rcr69-esr29,exr/ReadingArea_rsl2-rcl25-esl100-rsm2-rcm2-esm29-rsr2-rcr69-esr29.exr,ReadingArea_rsl2-rcl25-esl100-rsm2-rcm2-esm29-rsr2-rcr69-esr29.npz,,,,,0,26,26,346,,left,green,2.81,177.48902201652527,177.93882083892822,,,1,5,6,lightness,readingArea,realistic,75,2023-03-15_13h35.03.368,tripletExp_regina_11082022,2022.2.4,120.18682912012656,
6,11,3,2,0.027777777777778,1.0,2,1.0,1.0,2,0.444444444444444,0.298245614035088,ReadingArea_rsl2-rcl2-esl100-rsm2-rcm100-esm100-rsr2-rcr44-esr29,exr/ReadingArea_rsl2-rcl2-esl100-rsm2-rcm100-esm100-rsr2-rcr44-esr29.exr,ReadingArea_rsl2-rcl2-esl100-rsm2-rcm100-esm100-rsr2-rcr44-esr29.npz,,,,,0,27,27,11,,right,red,1.36,179.6346619129181,180.05797791481018,,,1,5,6,lightness,readingArea,realistic,75,2023-03-15_13h35.03.368,tripletExp_regina_11082022,2022.2.4,120.18682912012656,
13,12,5,2,0.111111111111111,3.10526315789474,2,0.027777777777778,3.10526315789474,2,1.0,0.298245614035088,ReadingArea_rsl2-rcl11-esl310-rsm2-rcm2-esm310-rsr2-rcr100-esr29,exr/ReadingArea_rsl2-rcl11-esl310-rsm2-rcm2-esm310-rsr2-rcr100-esr29.exr,ReadingArea_rsl2-rcl11-esl310-rsm2-rcm2-esm310-rsr2-rcr100-esr29.npz,,,,,0,28,28,294,,left,green,1.34,181.77824902534485,,,,1,5,6,lightness,readingArea,realistic,75,2023-03-15_13h35.03.368,tripletExp_regina_11082022,2022.2.4,120.18682912012656,
1,12,6,2,0.111111111111111,0.298245614035088,2,0.027777777777778,3.10526315789474,2,0.027777777777778,1.0,ReadingArea_rsl2-rcl11-esl29-rsm2-rcm2-esm310-rsr2-rcr2-esr100,exr/ReadingArea_rsl2-rcl11-esl29-rsm2-rcm2-esm310-rsr2-rcr2-esr100.exr,ReadingArea_rsl2-rcl11-esl29-rsm2-rcm2-esm310-rsr2-rcr2-esr100.npz,,,,,0,29,29,277,,right,red,1.28,183.90626096725464,184.38651990890503,,,1,5,6,lightness,readingArea,realistic,75,2023-03-15_13h35.03.368,tripletExp_regina_11082022,2022.2.4,120.18682912012656,
13,3,14,2,0.111111111111111,3.10526315789474,2,0.444444444444444,0.298245614035088,2,0.25,3.10526315789474,ReadingArea_rsl2-rcl11-esl310-rsm2-rcm44-esm29-rsr2-rcr25-esr310,exr/ReadingArea_rsl2-rcl11-esl310-rsm2-rcm44-esm29-rsr2-rcr25-esr310.exr,ReadingArea_rsl2-rcl11-esl310-rsm2-rcm44-esm29-rsr2-rcr25-esr310.npz,,,,,0,30,30,38,,left,green,1.51,186.10891699790955,186.5647418498993,,,1,5,6,lightness,readingArea,realistic,75,2023-03-15_13h35.03.368,tripletExp_regina_11082022,2022.2.4,120.18682912012656,
10,3,11,2,0.694444444444444,1.0,2,0.444444444444444,0.298245614035088,2,1.0,1.0,ReadingArea_rsl2-rcl69-esl100-rsm2-rcm44-esm29-rsr2-rcr100-esr100,exr/ReadingArea_rsl2-rcl69-esl100-rsm2-rcm44-esm29-rsr2-rcr100-esr100.exr,ReadingArea_rsl2-rcl69-esl100-rsm2-rcm44-esm29-rsr2-rcr100-esr100.npz,,,,,0,31,31,485,,left,green,1.4,188.28091883659363,188.71463990211487,,,1,5,6,lightness,readingArea,realistic,75,2023-03-15_13h35.03.368,tripletExp_regina_11082022,2022.2.4,120.18682912012656,
0,8,6,2,0.027777777777778,0.298245614035088,2,0.25,1.0,2,0.027777777777778,1.0,ReadingArea_rsl2-rcl2-esl29-rsm2-rcm25-esm100-rsr2-rcr2-esr100,exr/ReadingArea_rsl2-rcl2-esl29-rsm2-rcm25-esm100-rsr2-rcr2-esr100.exr,ReadingArea_rsl2-rcl2-esl29-rsm2-rcm25-esm100-rsr2-rcr2-esr100.npz,,,,,0,32,32,92,,right,red,1.4,190.42873692512512,190.87229895591736,,,1,5,6,lightness,readingArea,realistic,75,2023-03-15_13h35.03.368,tripletExp_regina_11082022,2022.2.4,120.18682912012656,
14,10,9,2,0.25,3.10526315789474,2,0.694444444444444,1.0,2,0.444444444444444,1.0,ReadingArea_rsl2-rcl25-esl310-rsm2-rcm69-esm100-rsr2-rcr44-esr100,exr/ReadingArea_rsl2-rcl25-esl310-rsm2-rcm69-esm100-rsr2-rcr44-esr100.exr,ReadingArea_rsl2-rcl25-esl310-rsm2-rcm69-esm100-rsr2-rcr44-esr100.npz,,,,,0,33,33,402,,right,red,1.3,192.58658695220947,193.01771879196167,,,1,5,6,lightness,readingArea,realistic,75,2023-03-15_13h35.03.368,tripletExp_regina_11082022,2022.2.4,120.18682912012656,
0,5,12,2,0.027777777777778,0.298245614035088,2,1.0,0.298245614035088,2,0.027777777777778,3.10526315789474,ReadingArea_rsl2-rcl2-esl29-rsm2-rcm100-esm29-rsr2-rcr2-esr310,exr/ReadingArea_rsl2-rcl2-esl29-rsm2-rcm100-esm29-rsr2-rcr2-esr310.exr,ReadingArea_rsl2-rcl2-esl29-rsm2-rcm100-esm29-rsr2-rcr2-esr310.npz,,,,,0,34,34,366,,right,red,1.3,194.7264540195465,195.15398788452148,,,1,5,6,lightness,readingArea,realistic,75,2023-03-15_13h35.03.368,tripletExp_regina_11082022,2022.2.4,120.18682912012656,
10,3,0,2,0.694444444444444,1.0,2,0.444444444444444,0.298245614035088,2,0.027777777777778,0.298245614035088,ReadingArea_rsl2-rcl69-esl100-rsm2-rcm44-esm29-rsr2-rcr2-esr29,exr/ReadingArea_rsl2-rcl69-esl100-rsm2-rcm44-esm29-rsr2-rcr2-esr29.exr,ReadingArea_rsl2-rcl69-esl100-rsm2-rcm44-esm29-rsr2-rcr2-esr29.npz,,,,,0,35,35,203,,left,green,1.18,196.84294891357425,197.2635807991028,,,1,5,6,lightness,readingArea,realistic,75,2023-03-15_13h35.03.368,tripletExp_regina_11082022,2022.2.4,120.18682912012656,
3,14,4,2,0.444444444444444,0.298245614035088,2,0.25,3.10526315789474,2,0.694444444444444,0.298245614035088,ReadingArea_rsl2-rcl44-esl29-rsm2-rcm25-esm310-rsr2-rcr69-esr29,exr/ReadingArea_rsl2-rcl44-esl29-rsm2-rcm25-esm310-rsr2-rcr69-esr29.exr,ReadingArea_rsl2-rcl44-esl29-rsm2-rcm25-esm310-rsr2-rcr69-esr29.npz,,,,,0,36,36,537,,left,green,1.39,198.9675009250641,199.43723893165588,,,1,5,6,lightness,readingArea,realistic,75,2023-03-15_13h35.03.368,tripletExp_regina_11082022,2022.2.4,120.18682912012656,
2,1,14,2,0.25,0.298245614035088,2,0.111111111111111,0.298245614035088,2,0.25,3.10526315789474,ReadingArea_rsl2-rcl25-esl29-rsm2-rcm11-esm29-rsr2-rcr25-esr310,exr/ReadingArea_rsl2-rcl25-esl29-rsm2-rcm11-esm29-rsr2-rcr25-esr310.exr,ReadingArea_rsl2-rcl25-esl29-rsm2-rcm11-esm29-rsr2-rcr25-esr310.npz,,,,,0,37,37,59,,left,green,1.27,201.1532979011536,201.6057209968567,,,1,5,6,lightness,readingArea,realistic,75,2023-03-15_13h35.03.368,tripletExp_regina_11082022,2022.2.4,120.18682912012656,
12,5,4,2,0.027777777777778,3.10526315789474,2,1.0,0.298245614035088,2,0.694444444444444,0.298245614035088,ReadingArea_rsl2-rcl2-esl310-rsm2-rcm100-esm29-rsr2-rcr69-esr29,exr/ReadingArea_rsl2-rcl2-esl310-rsm2-rcm100-esm29-rsr2-rcr69-esr29.exr,ReadingArea_rsl2-rcl2-esl310-rsm2-rcm100-esm29-rsr2-rcr69-esr29.npz,,,,,0,38,38,566,,right,red,1.16,203.3196268081665,203.7639849185944,,,1,5,6,lightness,readingArea,realistic,75,2023-03-15_13h35.03.368,tripletExp_regina_11082022,2022.2.4,120.18682912012656,
14,0,6,2,0.25,3.10526315789474,2,0.027777777777778,0.298245614035088,2,0.027777777777778,1.0,ReadingArea_rsl2-rcl25-esl310-rsm2-rcm2-esm29-rsr2-rcr2-esr100,exr/ReadingArea_rsl2-rcl25-esl310-rsm2-rcm2-esm29-rsr2-rcr2-esr100.exr,ReadingArea_rsl2-rcl25-esl310-rsm2-rcm2-esm29-rsr2-rcr2-esr100.npz,,,,,0,39,39,496,,right,red,1.0,205.47520685195923,205.93944597244263,,,1,5,6,lightness,readingArea,realistic,75,2023-03-15_13h35.03.368,tripletExp_regina_11082022,2022.2.4,120.18682912012656,
9,13,6,2,0.444444444444444,1.0,2,0.111111111111111,3.10526315789474,2,0.027777777777778,1.0,ReadingArea_rsl2-rcl44-esl100-rsm2-rcm11-esm310-rsr2-rcr2-esr100,exr/ReadingArea_rsl2-rcl44-esl100-rsm2-rcm11-esm310-rsr2-rcr2-esr100.exr,ReadingArea_rsl2-rcl44-esl100-rsm2-rcm11-esm310-rsr2-rcr2-esr100.npz,,,,,0,40,40,13,,left,green,1.12,207.64339089393616,208.0549309253693,,,1,5,6,lightness,readingArea,realistic,75,2023-03-15_13h35.03.368,tripletExp_regina_11082022,2022.2.4,120.18682912012656,
10,4,13,2,0.694444444444444,1.0,2,0.694444444444444,0.298245614035088,2,0.111111111111111,3.10526315789474,ReadingArea_rsl2-rcl69-esl100-rsm2-rcm69-esm29-rsr2-rcr11-esr310,exr/ReadingArea_rsl2-rcl69-esl100-rsm2-rcm69-esm29-rsr2-rcr11-esr310.exr,ReadingArea_rsl2-rcl69-esl100-rsm2-rcm69-esm29-rsr2-rcr11-esr310.npz,,,,,0,41,41,24,,right,red,2.6,211.5247478485108,,,,1,5,6,lightness,readingArea,realistic,75,2023-03-15_13h35.03.368,tripletExp_regina_11082022,2022.2.4,120.18682912012656,
5,13,6,2,1.0,0.298245614035088,2,0.111111111111111,3.10526315789474,2,0.027777777777778,1.0,ReadingArea_rsl2-rcl100-esl29-rsm2-rcm11-esm310-rsr2-rcr2-esr100,exr/ReadingArea_rsl2-rcl100-esl29-rsm2-rcm11-esm310-rsr2-rcr2-esr100.exr,ReadingArea_rsl2-rcl100-esl29-rsm2-rcm11-esm310-rsr2-rcr2-esr100.npz,,,,,0,42,42,263,,right,red,1.29,213.64772987365723,214.0733067989349,,,1,5,6,lightness,readingArea,realistic,75,2023-03-15_13h35.03.368,tripletExp_regina_11082022,2022.2.4,120.18682912012656,
1,5,8,2,0.111111111111111,0.298245614035088,2,1.0,0.298245614035088,2,0.25,1.0,ReadingArea_rsl2-rcl11-esl29-rsm2-rcm100-esm29-rsr2-rcr25-esr100,exr/ReadingArea_rsl2-rcl11-esl29-rsm2-rcm100-esm29-rsr2-rcr25-esr100.exr,ReadingArea_rsl2-rcl11-esl29-rsm2-rcm100-esm29-rsr2-rcr25-esr100.npz,,,,,0,43,43,238,,right,red,1.03,215.7962110042572,216.2147238254547,,,1,5,6,lightness,readingArea,realistic,75,2023-03-15_13h35.03.368,tripletExp_regina_11082022,2022.2.4,120.18682912012656,
11,5,2,2,1.0,1.0,2,1.0,0.298245614035088,2,0.25,0.298245614035088,ReadingArea_rsl2-rcl100-esl100-rsm2-rcm100-esm29-rsr2-rcr25-esr29,exr/ReadingArea_rsl2-rcl100-esl100-rsm2-rcm100-esm29-rsr2-rcr25-esr29.exr,ReadingArea_rsl2-rcl100-esl100-rsm2-rcm100-esm29-rsr2-rcr25-esr29.npz,,,,,0,44,44,596,,left,green,0.96,217.92625093460083,218.3320670127869,,,1,5,6,lightness,readingArea,realistic,75,2023-03-15_13h35.03.368,tripletExp_regina_11082022,2022.2.4,120.18682912012656,
11,7,14,2,1.0,1.0,2,0.111111111111111,1.0,2,0.25,3.10526315789474,ReadingArea_rsl2-rcl100-esl100-rsm2-rcm11-esm100-rsr2-rcr25-esr310,exr/ReadingArea_rsl2-rcl100-esl100-rsm2-rcm11-esm100-rsr2-rcr25-esr310.exr,ReadingArea_rsl2-rcl100-esl100-rsm2-rcm11-esm100-rsr2-rcr25-esr310.npz,,,,,0,45,45,119,,right,red,1.19,220.04425191879272,220.48232698440552,,,1,5,6,lightness,readingArea,realistic,75,2023-03-15_13h35.03.368,tripletExp_regina_11082022,2022.2.4,120.18682912012656,
10,5,1,2,0.694444444444444,1.0,2,1.0,0.298245614035088,2,0.111111111111111,0.298245614035088,ReadingArea_rsl2-rcl69-esl100-rsm2-rcm100-esm29-rsr2-rcr11-esr29,exr/ReadingArea_rsl2-rcl69-esl100-rsm2-rcm100-esm29-rsr2-rcr11-esr29.exr,ReadingArea_rsl2-rcl69-esl100-rsm2-rcm100-esm29-rsr2-rcr11-esr29.npz,,,,,0,46,46,152,,left,green,1.2,222.17487692832947,222.61556887626648,,,1,5,6,lightness,readingArea,realistic,75,2023-03-15_13h35.03.368,tripletExp_regina_11082022,2022.2.4,120.18682912012656,
13,6,0,2,0.111111111111111,3.10526315789474,2,0.027777777777778,1.0,2,0.027777777777778,0.298245614035088,ReadingArea_rsl2-rcl11-esl310-rsm2-rcm2-esm100-rsr2-rcr2-esr29,exr/ReadingArea_rsl2-rcl11-esl310-rsm2-rcm2-esm100-rsr2-rcr2-esr29.exr,ReadingArea_rsl2-rcl11-esl310-rsm2-rcm2-esm100-rsr2-rcr2-esr29.npz,,,,,0,47,47,309,,right,red,1.14,224.33911299705505,224.77207779884336,,,1,5,6,lightness,readingArea,realistic,75,2023-03-15_13h35.03.368,tripletExp_regina_11082022,2022.2.4,120.18682912012656,
11,1,4,2,1.0,1.0,2,0.111111111111111,0.298245614035088,2,0.694444444444444,0.298245614035088,ReadingArea_rsl2-rcl100-esl100-rsm2-rcm11-esm29-rsr2-rcr69-esr29,exr/ReadingArea_rsl2-rcl100-esl100-rsm2-rcm11-esm29-rsr2-rcr69-esr29.exr,ReadingArea_rsl2-rcl100-esl100-rsm2-rcm11-esm29-rsr2-rcr69-esr29.npz,,,,,0,48,48,110,,right,red,1.01,226.46332597732544,226.90365886688232,,,1,5,6,lightness,readingArea,realistic,75,2023-03-15_13h35.03.368,tripletExp_regina_11082022,2022.2.4,120.18682912012656,
12,10,9,2,0.027777777777778,3.10526315789474,2,0.694444444444444,1.0,2,0.444444444444444,1.0,ReadingArea_rsl2-rcl2-esl310-rsm2-rcm69-esm100-rsr2-rcr44-esr100,exr/ReadingArea_rsl2-rcl2-esl310-rsm2-rcm69-esm100-rsr2-rcr44-esr100.exr,ReadingArea_rsl2-rcl2-esl310-rsm2-rcm69-esm100-rsr2-rcr44-esr100.npz,,,,,0,49,49,126,,right,red,0.97,228.5940198898316,,,,1,5,6,lightness,readingArea,realistic,75,2023-03-15_13h35.03.368,tripletExp_regina_11082022,2022.2.4,120.18682912012656,
11,0,10,2,1.0,1.0,2,0.027777777777778,0.298245614035088,2,0.694444444444444,1.0,ReadingArea_rsl2-rcl100-esl100-rsm2-rcm2-esm29-rsr2-rcr69-esr100,exr/ReadingArea_rsl2-rcl100-esl100-rsm2-rcm2-esm29-rsr2-rcr69-esr100.exr,ReadingArea_rsl2-rcl100-esl100-rsm2-rcm2-esm29-rsr2-rcr69-esr100.npz,,,,,0,50,50,259,,right,red,1.36,230.7254958152771,231.1837718486786,,,1,5,6,lightness,readingArea,realistic,75,2023-03-15_13h35.03.368,tripletExp_regina_11082022,2022.2.4,120.18682912012656,
6,1,2,2,0.027777777777778,1.0,2,0.111111111111111,0.298245614035088,2,0.25,0.298245614035088,ReadingArea_rsl2-rcl2-esl100-rsm2-rcm11-esm29-rsr2-rcr25-esr29,exr/ReadingArea_rsl2-rcl2-esl100-rsm2-rcm11-esm29-rsr2-rcr25-esr29.exr,ReadingArea_rsl2-rcl2-esl100-rsm2-rcm11-esm29-rsr2-rcr25-esr29.npz,,,,,0,51,51,68,,right,red,1.12,232.880884885788,233.2885999679565,,,1,5,6,lightness,readingArea,realistic,75,2023-03-15_13h35.03.368,tripletExp_regina_11082022,2022.2.4,120.18682912012656,
7,3,12,2,0.111111111111111,1.0,2,0.444444444444444,0.298245614035088,2,0.027777777777778,3.10526315789474,ReadingArea_rsl2-rcl11-esl100-rsm2-rcm44-esm29-rsr2-rcr2-esr310,exr/ReadingArea_rsl2-rcl11-esl100-rsm2-rcm44-esm29-rsr2-rcr2-esr310.exr,ReadingArea_rsl2-rcl11-esl100-rsm2-rcm44-esm29-rsr2-rcr2-esr310.npz,,,,,0,52,52,443,,left,green,1.52,234.98375296592712,235.3919849395752,,,1,5,6,lightness,readingArea,realistic,75,2023-03-15_13h35.03.368,tripletExp_regina_11082022,2022.2.4,120.18682912012656,
3,2,11,2,0.444444444444444,0.298245614035088,2,0.25,0.298245614035088,2,1.0,1.0,ReadingArea_rsl2-rcl44-esl29-rsm2-rcm25-esm29-rsr2-rcr100-esr100,exr/ReadingArea_rsl2-rcl44-esl29-rsm2-rcm25-esm29-rsr2-rcr100-esr100.exr,ReadingArea_rsl2-rcl44-esl29-rsm2-rcm25-esm29-rsr2-rcr100-esr100.npz,,,,,0,53,53,257,,left,green,1.08,237.08630990982056,,,,1,5,6,lightness,readingArea,realistic,75,2023-03-15_13h35.03.368,tripletExp_regina_11082022,2022.2.4,120.18682912012656,
13,3,7,2,0.111111111111111,3.10526315789474,2,0.444444444444444,0.298245614035088,2,0.111111111111111,1.0,ReadingArea_rsl2-rcl11-esl310-rsm2-rcm44-esm29-rsr2-rcr11-esr100,exr/ReadingArea_rsl2-rcl11-esl310-rsm2-rcm44-esm29-rsr2-rcr11-esr100.exr,ReadingArea_rsl2-rcl11-esl310-rsm2-rcm44-esm29-rsr2-rcr11-esr100.npz,,,,,0,54,54,497,,left,green,3.14,241.0060329437256,241.47934699058533,,,1,5,6,lightness,readingArea,realistic,75,2023-03-15_13h35.03.368,tripletExp_regina_11082022,2022.2.4,120.18682912012656,
4,14,1,2,0.694444444444444,0.298245614035088,2,0.25,3.10526315789474,2,0.111111111111111,0.298245614035088,ReadingArea_rsl2-rcl69-esl29-rsm2-rcm25-esm310-rsr2-rcr11-esr29,exr/ReadingArea_rsl2-rcl69-esl29-rsm2-rcm25-esm310-rsr2-rcr11-esr29.exr,ReadingArea_rsl2-rcl69-esl29-rsm2-rcm25-esm310-rsr2-rcr11-esr29.npz,,,,,0,55,55,477,,left,green,1.25,243.17698884010315,243.609897851944,,,1,5,6,lightness,readingArea,realistic,75,2023-03-15_13h35.03.368,tripletExp_regina_11082022,2022.2.4,120.18682912012656,
6,5,13,2,0.027777777777778,1.0,2,1.0,0.298245614035088,2,0.111111111111111,3.10526315789474,ReadingArea_rsl2-rcl2-esl100-rsm2-rcm100-esm29-rsr2-rcr11-esr310,exr/ReadingArea_rsl2-rcl2-esl100-rsm2-rcm100-esm29-rsr2-rcr11-esr310.exr,ReadingArea_rsl2-rcl2-esl100-rsm2-rcm100-esm29-rsr2-rcr11-esr310.npz,,,,,0,56,56,450,,right,red,1.12,245.300518989563,245.78950095176697,,,1,5,6,lightness,readingArea,realistic,75,2023-03-15_13h35.03.368,tripletExp_regina_11082022,2022.2.4,120.18682912012656,
6,4,13,2,0.027777777777778,1.0,2,0.694444444444444,0.298245614035088,2,0.111111111111111,3.10526315789474,ReadingArea_rsl2-rcl2-esl100-rsm2-rcm69-esm29-rsr2-rcr11-esr310,exr/ReadingArea_rsl2-rcl2-esl100-rsm2-rcm69-esm29-rsr2-rcr11-esr310.exr,ReadingArea_rsl2-rcl2-esl100-rsm2-rcm69-esm29-rsr2-rcr11-esr310.npz,,,,,0,57,57,202,,right,red,1.51,247.51105499267567,247.97085189819336,,,1,5,6,lightness,readingArea,realistic,75,2023-03-15_13h35.03.368,tripletExp_regina_11082022,2022.2.4,120.18682912012656,
3,7,8,2,0.444444444444444,0.298245614035088,2,0.111111111111111,1.0,2,0.25,1.0,ReadingArea_rsl2-rcl44-esl29-rsm2-rcm11-esm100-rsr2-rcr25-esr100,exr/ReadingArea_rsl2-rcl44-esl29-rsm2-rcm11-esm100-rsr2-rcr25-esr100.exr,ReadingArea_rsl2-rcl44-esl29-rsm2-rcm11-esm100-rsr2-rcr25-esr100.npz,,,,,0,58,58,246,,right,red,2.74,251.44455289840693,251.88611698150635,,,1,5,6,lightness,readingArea,realistic,75,2023-03-15_13h35.03.368,tripletExp_regina_11082022,2022.2.4,120.18682912012656,
1,9,7,2,0.111111111111111,0.298245614035088,2,0.444444444444444,1.0,2,0.111111111111111,1.0,ReadingArea_rsl2-rcl11-esl29-rsm2-rcm44-esm100-rsr2-rcr11-esr100,exr/ReadingArea_rsl2-rcl11-esl29-rsm2-rcm44-esm100-rsr2-rcr11-esr100.exr,ReadingArea_rsl2-rcl11-esl29-rsm2-rcm44-esm100-rsr2-rcr11-esr100.npz,,,,,0,59,59,397,,right,red,1.3,253.59846591949463,254.04241800308228,,,1,5,6,lightness,readingArea,realistic,75,2023-03-15_13h35.03.368,tripletExp_regina_11082022,2022.2.4,120.18682912012656,
2,12,6,2,0.25,0.298245614035088,2,0.027777777777778,3.10526315789474,2,0.027777777777778,1.0,ReadingArea_rsl2-rcl25-esl29-rsm2-rcm2-esm310-rsr2-rcr2-esr100,exr/ReadingArea_rsl2-rcl25-esl29-rsm2-rcm2-esm310-rsr2-rcr2-esr100.exr,ReadingArea_rsl2-rcl25-esl29-rsm2-rcm2-esm310-rsr2-rcr2-esr100.npz,,,,,0,60,60,400,,right,red,1.11,255.7512619495392,256.2270379066468,,,1,5,6,lightness,readingArea,realistic,75,2023-03-15_13h35.03.368,tripletExp_regina_11082022,2022.2.4,120.18682912012656,
9,0,8,2,0.444444444444444,1.0,2,0.027777777777778,0.298245614035088,2,0.25,1.0,ReadingArea_rsl2-rcl44-esl100-rsm2-rcm2-esm29-rsr2-rcr25-esr100,exr/ReadingArea_rsl2-rcl44-esl100-rsm2-rcm2-esm29-rsr2-rcr25-esr100.exr,ReadingArea_rsl2-rcl44-esl100-rsm2-rcm2-esm29-rsr2-rcr25-esr100.npz,,,,,0,61,61,27,,right,red,1.32,257.94167280197144,258.38622879981995,,,1,5,6,lightness,readingArea,realistic,75,2023-03-15_13h35.03.368,tripletExp_regina_11082022,2022.2.4,120.18682912012656,
11,10,0,2,1.0,1.0,2,0.694444444444444,1.0,2,0.027777777777778,0.298245614035088,ReadingArea_rsl2-rcl100-esl100-rsm2-rcm69-esm100-rsr2-rcr2-esr29,exr/ReadingArea_rsl2-rcl100-esl100-rsm2-rcm69-esm100-rsr2-rcr2-esr29.exr,ReadingArea_rsl2-rcl100-esl100-rsm2-rcm69-esm100-rsr2-rcr2-esr29.npz,,,,,0,62,62,549,,left,green,0.94,260.1094009876251,260.53494095802307,,,1,5,6,lightness,readingArea,realistic,75,2023-03-15_13h35.03.368,tripletExp_regina_11082022,2022.2.4,120.18682912012656,
3,6,5,2,0.444444444444444,0.298245614035088,2,0.027777777777778,1.0,2,1.0,0.298245614035088,ReadingArea_rsl2-rcl44-esl29-rsm2-rcm2-esm100-rsr2-rcr100-esr29,exr/ReadingArea_rsl2-rcl44-esl29-rsm2-rcm2-esm100-rsr2-rcr100-esr29.exr,ReadingArea_rsl2-rcl44-esl29-rsm2-rcm2-esm100-rsr2-rcr100-esr29.npz,,,,,0,63,63,274,,left,green,1.1,262.2423408031464,262.70106196403503,,,1,5,6,lightness,readingArea,realistic,75,2023-03-15_13h35.03.368,tripletExp_regina_11082022,2022.2.4,120.18682912012656,
10,4,9,2,0.694444444444444,1.0,2,0.694444444444444,0.298245614035088,2,0.444444444444444,1.0,ReadingArea_rsl2-rcl69-esl100-rsm2-rcm69-esm29-rsr2-rcr44-esr100,exr/ReadingArea_rsl2-rcl69-esl100-rsm2-rcm69-esm29-rsr2-rcr44-esr100.exr,ReadingArea_rsl2-rcl69-esl100-rsm2-rcm69-esm29-rsr2-rcr44-esr100.npz,,,,,0,64,64,452,,right,red,2.5,266.1773250102997,266.67174100875854,,,1,5,6,lightness,readingArea,realistic,75,2023-03-15_13h35.03.368,tripletExp_regina_11082022,2022.2.4,120.18682912012656,
0,13,1,2,0.027777777777778,0.298245614035088,2,0.111111111111111,3.10526315789474,2,0.111111111111111,0.298245614035088,ReadingArea_rsl2-rcl2-esl29-rsm2-rcm11-esm310-rsr2-rcr11-esr29,exr/ReadingArea_rsl2-rcl2-esl29-rsm2-rcm11-esm310-rsr2-rcr11-esr29.exr,ReadingArea_rsl2-rcl2-esl29-rsm2-rcm11-esm310-rsr2-rcr11-esr29.npz,,,,,0,65,65,458,,right,red,1.04,268.36755299568176,268.82877802848816,,,1,5,6,lightness,readingArea,realistic,75,2023-03-15_13h35.03.368,tripletExp_regina_11082022,2022.2.4,120.18682912012656,
6,4,10,2,0.027777777777778,1.0,2,0.694444444444444,0.298245614035088,2,0.694444444444444,1.0,ReadingArea_rsl2-rcl2-esl100-rsm2-rcm69-esm29-rsr2-rcr69-esr100,exr/ReadingArea_rsl2-rcl2-esl100-rsm2-rcm69-esm29-rsr2-rcr69-esr100.exr,ReadingArea_rsl2-rcl2-esl100-rsm2-rcm69-esm29-rsr2-rcr69-esr100.npz,,,,,0,66,66,554,,right,red,1.26,270.53435587883,270.98038387298584,,,1,5,6,lightness,readingArea,realistic,75,2023-03-15_13h35.03.368,tripletExp_regina_11082022,2022.2.4,120.18682912012656,
6,11,7,2,0.027777777777778,1.0,2,1.0,1.0,2,0.111111111111111,1.0,ReadingArea_rsl2-rcl2-esl100-rsm2-rcm100-esm100-rsr2-rcr11-esr100,exr/ReadingArea_rsl2-rcl2-esl100-rsm2-rcm100-esm100-rsr2-rcr11-esr100.exr,ReadingArea_rsl2-rcl2-esl100-rsm2-rcm100-esm100-rsr2-rcr11-esr100.npz,,,,,0,67,67,571,,right,red,1.03,272.6890068054199,273.14119386672974,,,1,5,6,lightness,readingArea,realistic,75,2023-03-15_13h35.03.368,tripletExp_regina_11082022,2022.2.4,120.18682912012656,
2,5,14,2,0.25,0.298245614035088,2,1.0,0.298245614035088,2,0.25,3.10526315789474,ReadingArea_rsl2-rcl25-esl29-rsm2-rcm100-esm29-rsr2-rcr25-esr310,exr/ReadingArea_rsl2-rcl25-esl29-rsm2-rcm100-esm29-rsr2-rcr25-esr310.exr,ReadingArea_rsl2-rcl25-esl29-rsm2-rcm100-esm29-rsr2-rcr25-esr310.npz,,,,,0,68,68,390,,right,red,1.46,274.8691029548645,275.2972888946533,,,1,5,6,lightness,readingArea,realistic,75,2023-03-15_13h35.03.368,tripletExp_regina_11082022,2022.2.4,120.18682912012656,
13,8,14,2,0.111111111111111,3.10526315789474,2,0.25,1.0,2,0.25,3.10526315789474,ReadingArea_rsl2-rcl11-esl310-rsm2-rcm25-esm100-rsr2-rcr25-esr310,exr/ReadingArea_rsl2-rcl11-esl310-rsm2-rcm25-esm100-rsr2-rcr25-esr310.exr,ReadingArea_rsl2-rcl11-esl310-rsm2-rcm25-esm100-rsr2-rcr25-esr310.npz,,,,,0,69,69,345,,left,green,1.03,277.02220487594604,277.4353790283203,,,1,5,6,lightness,readingArea,realistic,75,2023-03-15_13h35.03.368,tripletExp_regina_11082022,2022.2.4,120.18682912012656,
7,1,9,2,0.111111111111111,1.0,2,0.111111111111111,0.298245614035088,2,0.444444444444444,1.0,ReadingArea_rsl2-rcl11-esl100-rsm2-rcm11-esm29-rsr2-rcr44-esr100,exr/ReadingArea_rsl2-rcl11-esl100-rsm2-rcm11-esm29-rsr2-rcr44-esr100.exr,ReadingArea_rsl2-rcl11-esl100-rsm2-rcm11-esm29-rsr2-rcr44-esr100.npz,,,,,0,70,70,89,,left,green,1.0,279.1267948150635,,,,1,5,6,lightness,readingArea,realistic,75,2023-03-15_13h35.03.368,tripletExp_regina_11082022,2022.2.4,120.18682912012656,
12,5,14,2,0.027777777777778,3.10526315789474,2,1.0,0.298245614035088,2,0.25,3.10526315789474,ReadingArea_rsl2-rcl2-esl310-rsm2-rcm100-esm29-rsr2-rcr25-esr310,exr/ReadingArea_rsl2-rcl2-esl310-rsm2-rcm100-esm29-rsr2-rcr25-esr310.exr,ReadingArea_rsl2-rcl2-esl310-rsm2-rcm100-esm29-rsr2-rcr25-esr310.npz,,,,,0,71,71,193,,right,red,2.35,283.0310068130493,283.45060181617737,,,1,5,6,lightness,readingArea,realistic,75,2023-03-15_13h35.03.368,tripletExp_regina_11082022,2022.2.4,120.18682912012656,
8,9,2,2,0.25,1.0,2,0.444444444444444,1.0,2,0.25,0.298245614035088,ReadingArea_rsl2-rcl25-esl100-rsm2-rcm44-esm100-rsr2-rcr25-esr29,exr/ReadingArea_rsl2-rcl25-esl100-rsm2-rcm44-esm100-rsr2-rcr25-esr29.exr,ReadingArea_rsl2-rcl25-esl100-rsm2-rcm44-esm100-rsr2-rcr25-esr29.npz,,,,,0,72,72,559,,left,green,1.04,285.16522884368896,285.6157479286194,,,1,5,6,lightness,readingArea,realistic,75,2023-03-15_13h35.03.368,tripletExp_regina_11082022,2022.2.4,120.18682912012656,
12,8,9,2,0.027777777777778,3.10526315789474,2,0.25,1.0,2,0.444444444444444,1.0,ReadingArea_rsl2-rcl2-esl310-rsm2-rcm25-esm100-rsr2-rcr44-esr100,exr/ReadingArea_rsl2-rcl2-esl310-rsm2-rcm25-esm100-rsr2-rcr44-esr100.exr,ReadingArea_rsl2-rcl2-esl310-rsm2-rcm25-esm100-rsr2-rcr44-esr100.npz,,,,,0,73,73,517,,right,red,0.99,287.33277583122253,287.7689588069916,,,1,5,6,lightness,readingArea,realistic,75,2023-03-15_13h35.03.368,tripletExp_regina_11082022,2022.2.4,120.18682912012656,
0,14,8,2,0.027777777777778,0.298245614035088,2,0.25,3.10526315789474,2,0.25,1.0,ReadingArea_rsl2-rcl2-esl29-rsm2-rcm25-esm310-rsr2-rcr25-esr100,exr/ReadingArea_rsl2-rcl2-esl29-rsm2-rcm25-esm310-rsr2-rcr25-esr100.exr,ReadingArea_rsl2-rcl2-esl29-rsm2-rcm25-esm310-rsr2-rcr25-esr100.npz,,,,,0,74,74,545,,right,red,0.8,289.4876148700714,289.69361782073975,,,1,5,6,lightness,readingArea,realistic,75,2023-03-15_13h35.03.368,tripletExp_regina_11082022,2022.2.4,120.18682912012656,
12,8,6,2,0.027777777777778,3.10526315789474,2,0.25,1.0,2,0.027777777777778,1.0,ReadingArea_rsl2-rcl2-esl310-rsm2-rcm25-esm100-rsr2-rcr2-esr100,exr/ReadingArea_rsl2-rcl2-esl310-rsm2-rcm25-esm100-rsr2-rcr2-esr100.exr,ReadingArea_rsl2-rcl2-esl310-rsm2-rcm25-esm100-rsr2-rcr2-esr100.npz,,,,,0,75,75,281,,right,red,2.83,294.3443620204925,294.8342998027801,,,2,5,6,lightness,readingArea,realistic,75,2023-03-15_13h35.03.368,tripletExp_regina_11082022,2022.2.4,120.18682912012656,
4,10,6,2,0.694444444444444,0.298245614035088,2,0.694444444444444,1.0,2,0.027777777777778,1.0,ReadingArea_rsl2-rcl69-esl29-rsm2-rcm69-esm100-rsr2-rcr2-esr100,exr/ReadingArea_rsl2-rcl69-esl29-rsm2-rcm69-esm100-rsr2-rcr2-esr100.exr,ReadingArea_rsl2-rcl69-esl29-rsm2-rcm69-esm100-rsr2-rcr2-esr100.npz,,,,,0,76,76,468,,left,green,1.02,296.5365369319916,296.9601619243622,,,2,5,6,lightness,readingArea,realistic,75,2023-03-15_13h35.03.368,tripletExp_regina_11082022,2022.2.4,120.18682912012656,
5,2,7,2,1.0,0.298245614035088,2,0.25,0.298245614035088,2,0.111111111111111,1.0,ReadingArea_rsl2-rcl100-esl29-rsm2-rcm25-esm29-rsr2-rcr11-esr100,exr/ReadingArea_rsl2-rcl100-esl29-rsm2-rcm25-esm29-rsr2-rcr11-esr100.exr,ReadingArea_rsl2-rcl100-esl29-rsm2-rcm25-esm29-rsr2-rcr11-esr100.npz,,,,,0,77,77,179,,right,red,0.83,298.6687889099121,299.1359939575196,,,2,5,6,lightness,readingArea,realistic,75,2023-03-15_13h35.03.368,tripletExp_regina_11082022,2022.2.4,120.18682912012656,
10,7,13,2,0.694444444444444,1.0,2,0.111111111111111,1.0,2,0.111111111111111,3.10526315789474,ReadingArea_rsl2-rcl69-esl100-rsm2-rcm11-esm100-rsr2-rcr11-esr310,exr/ReadingArea_rsl2-rcl69-esl100-rsm2-rcm11-esm100-rsr2-rcr11-esr310.exr,ReadingArea_rsl2-rcl69-esl100-rsm2-rcm11-esm100-rsr2-rcr11-esr310.npz,,,,,0,78,78,379,,right,red,0.8,300.8251438140869,301.26558685302734,,,2,5,6,lightness,readingArea,realistic,75,2023-03-15_13h35.03.368,tripletExp_regina_11082022,2022.2.4,120.18682912012656,
7,2,6,2,0.111111111111111,1.0,2,0.25,0.298245614035088,2,0.027777777777778,1.0,ReadingArea_rsl2-rcl11-esl100-rsm2-rcm25-esm29-rsr2-rcr2-esr100,exr/ReadingArea_rsl2-rcl11-esl100-rsm2-rcm25-esm29-rsr2-rcr2-esr100.exr,ReadingArea_rsl2-rcl11-esl100-rsm2-rcm25-esm29-rsr2-rcr2-esr100.npz,,,,,0,79,79,506,,left,green,1.27,302.9578938484192,303.3897228240967,,,2,5,6,lightness,readingArea,realistic,75,2023-03-15_13h35.03.368,tripletExp_regina_11082022,2022.2.4,120.18682912012656,
13,1,4,2,0.111111111111111,3.10526315789474,2,0.111111111111111,0.298245614035088,2,0.694444444444444,0.298245614035088,ReadingArea_rsl2-rcl11-esl310-rsm2-rcm11-esm29-rsr2-rcr69-esr29,exr/ReadingArea_rsl2-rcl11-esl310-rsm2-rcm11-esm29-rsr2-rcr69-esr29.exr,ReadingArea_rsl2-rcl11-esl310-rsm2-rcm11-esm29-rsr2-rcr69-esr29.npz,,,,,0,80,80,396,,left,green,1.11,305.0781118869781,305.57233786582947,,,2,5,6,lightness,readingArea,realistic,75,2023-03-15_13h35.03.368,tripletExp_regina_11082022,2022.2.4,120.18682912012656,
14,5,13,2,0.25,3.10526315789474,2,1.0,0.298245614035088,2,0.111111111111111,3.10526315789474,ReadingArea_rsl2-rcl25-esl310-rsm2-rcm100-esm29-rsr2-rcr11-esr310,exr/ReadingArea_rsl2-rcl25-esl310-rsm2-rcm100-esm29-rsr2-rcr11-esr310.exr,ReadingArea_rsl2-rcl25-esl310-rsm2-rcm100-esm29-rsr2-rcr11-esr310.npz,,,,,0,81,81,524,,right,red,1.24,307.2885398864746,307.6895499229431,,,2,5,6,lightness,readingArea,realistic,75,2023-03-15_13h35.03.368,tripletExp_regina_11082022,2022.2.4,120.18682912012656,
8,3,9,2,0.25,1.0,2,0.444444444444444,0.298245614035088,2,0.444444444444444,1.0,ReadingArea_rsl2-rcl25-esl100-rsm2-rcm44-esm29-rsr2-rcr44-esr100,exr/ReadingArea_rsl2-rcl25-esl100-rsm2-rcm44-esm29-rsr2-rcr44-esr100.exr,ReadingArea_rsl2-rcl25-esl100-rsm2-rcm44-esm29-rsr2-rcr44-esr100.npz,,,,,0,82,82,15,,left,green,0.93,309.41210079193115,309.86899399757385,,,2,5,6,lightness,readingArea,realistic,75,2023-03-15_13h35.03.368,tripletExp_regina_11082022,2022.2.4,120.18682912012656,
14,12,0,2,0.25,3.10526315789474,2,0.027777777777778,3.10526315789474,2,0.027777777777778,0.298245614035088,ReadingArea_rsl2-rcl25-esl310-rsm2-rcm2-esm310-rsr2-rcr2-esr29,exr/ReadingArea_rsl2-rcl25-esl310-rsm2-rcm2-esm310-rsr2-rcr2-esr29.exr,ReadingArea_rsl2-rcl25-esl310-rsm2-rcm2-esm310-rsr2-rcr2-esr29.npz,,,,,0,83,83,409,,right,red,1.13,311.5683579444885,312.01440596580505,,,2,5,6,lightness,readingArea,realistic,75,2023-03-15_13h35.03.368,tripletExp_regina_11082022,2022.2.4,120.18682912012656,
13,7,6,2,0.111111111111111,3.10526315789474,2,0.111111111111111,1.0,2,0.027777777777778,1.0,ReadingArea_rsl2-rcl11-esl310-rsm2-rcm11-esm100-rsr2-rcr2-esr100,exr/ReadingArea_rsl2-rcl11-esl310-rsm2-rcm11-esm100-rsr2-rcr2-esr100.exr,ReadingArea_rsl2-rcl11-esl310-rsm2-rcm11-esm100-rsr2-rcr2-esr100.npz,,,,,0,84,84,283,,left,green,1.08,313.73600482940674,314.1424169540405,,,2,5,6,lightness,readingArea,realistic,75,2023-03-15_13h35.03.368,tripletExp_regina_11082022,2022.2.4,120.18682912012656,
6,0,4,2,0.027777777777778,1.0,2,0.027777777777778,0.298245614035088,2,0.694444444444444,0.298245614035088,ReadingArea_rsl2-rcl2-esl100-rsm2-rcm2-esm29-rsr2-rcr69-esr29,exr/ReadingArea_rsl2-rcl2-esl100-rsm2-rcm2-esm29-rsr2-rcr69-esr29.exr,ReadingArea_rsl2-rcl2-esl100-rsm2-rcm2-esm29-rsr2-rcr69-esr29.npz,,,,,0,85,85,555,,left,green,0.94,315.8587348461151,316.3613920211792,,,2,5,6,lightness,readingArea,realistic,75,2023-03-15_13h35.03.368,tripletExp_regina_11082022,2022.2.4,120.18682912012656,
13,2,4,2,0.111111111111111,3.10526315789474,2,0.25,0.298245614035088,2,0.694444444444444,0.298245614035088,ReadingArea_rsl2-rcl11-esl310-rsm2-rcm25-esm29-rsr2-rcr69-esr29,exr/ReadingArea_rsl2-rcl11-esl310-rsm2-rcm25-esm29-rsr2-rcr69-esr29.exr,ReadingArea_rsl2-rcl11-esl310-rsm2-rcm25-esm29-rsr2-rcr69-esr29.npz,,,,,0,86,86,307,,left,green,1.27,318.0809450149536,318.55109786987305,,,2,5,6,lightness,readingArea,realistic,75,2023-03-15_13h35.03.368,tripletExp_regina_11082022,2022.2.4,120.18682912012656,
13,6,2,2,0.111111111111111,3.10526315789474,2,0.027777777777778,1.0,2,0.25,0.298245614035088,ReadingArea_rsl2-rcl11-esl310-rsm2-rcm2-esm100-rsr2-rcr25-esr29,exr/ReadingArea_rsl2-rcl11-esl310-rsm2-rcm2-esm100-rsr2-rcr25-esr29.exr,ReadingArea_rsl2-rcl11-esl310-rsm2-rcm2-esm100-rsr2-rcr25-esr29.npz,,,,,0,87,87,115,,left,green,2.96,322.0308749675751,322.4627549648285,,,2,5,6,lightness,readingArea,realistic,75,2023-03-15_13h35.03.368,tripletExp_regina_11082022,2022.2.4,120.18682912012656,
2,5,0,2,0.25,0.298245614035088,2,1.0,0.298245614035088,2,0.027777777777778,0.298245614035088,ReadingArea_rsl2-rcl25-esl29-rsm2-rcm100-esm29-rsr2-rcr2-esr29,exr/ReadingArea_rsl2-rcl25-esl29-rsm2-rcm100-esm29-rsr2-rcr2-esr29.exr,ReadingArea_rsl2-rcl25-esl29-rsm2-rcm100-esm29-rsr2-rcr2-esr29.npz,,,,,0,88,88,414,,left,green,1.75,324.1804869174957,324.5989248752594,,,2,5,6,lightness,readingArea,realistic,75,2023-03-15_13h35.03.368,tripletExp_regina_11082022,2022.2.4,120.18682912012656,
13,6,12,2,0.111111111111111,3.10526315789474,2,0.027777777777778,1.0,2,0.027777777777778,3.10526315789474,ReadingArea_rsl2-rcl11-esl310-rsm2-rcm2-esm100-rsr2-rcr2-esr310,exr/ReadingArea_rsl2-rcl11-esl310-rsm2-rcm2-esm100-rsr2-rcr2-esr310.exr,ReadingArea_rsl2-rcl11-esl310-rsm2-rcm2-esm100-rsr2-rcr2-esr310.npz,,,,,0,89,89,147,,right,red,1.35,326.2877559661865,326.71292781829834,,,2,5,6,lightness,readingArea,realistic,75,2023-03-15_13h35.03.368,tripletExp_regina_11082022,2022.2.4,120.18682912012656,
14,11,3,2,0.25,3.10526315789474,2,1.0,1.0,2,0.444444444444444,0.298245614035088,ReadingArea_rsl2-rcl25-esl310-rsm2-rcm100-esm100-rsr2-rcr44-esr29,exr/ReadingArea_rsl2-rcl25-esl310-rsm2-rcm100-esm100-rsr2-rcr44-esr29.exr,ReadingArea_rsl2-rcl25-esl310-rsm2-rcm100-esm100-rsr2-rcr44-esr29.npz,,,,,0,90,90,78,,left,green,1.4,328.40622782707214,328.85198187828064,,,2,5,6,lightness,readingArea,realistic,75,2023-03-15_13h35.03.368,tripletExp_regina_11082022,2022.2.4,120.18682912012656,
4,7,1,2,0.694444444444444,0.298245614035088,2,0.111111111111111,1.0,2,0.111111111111111,0.298245614035088,ReadingArea_rsl2-rcl69-esl29-rsm2-rcm11-esm100-rsr2-rcr11-esr29,exr/ReadingArea_rsl2-rcl69-esl29-rsm2-rcm11-esm100-rsr2-rcr11-esr29.exr,ReadingArea_rsl2-rcl69-esl29-rsm2-rcm11-esm100-rsr2-rcr11-esr29.npz,,,,,0,91,91,33,,right,red,2.07,332.33843302726746,332.7813608646393,,,2,5,6,lightness,readingArea,realistic,75,2023-03-15_13h35.03.368,tripletExp_regina_11082022,2022.2.4,120.18682912012656,
1,10,0,2,0.111111111111111,0.298245614035088,2,0.694444444444444,1.0,2,0.027777777777778,0.298245614035088,ReadingArea_rsl2-rcl11-esl29-rsm2-rcm69-esm100-rsr2-rcr2-esr29,exr/ReadingArea_rsl2-rcl11-esl29-rsm2-rcm69-esm100-rsr2-rcr2-esr29.exr,ReadingArea_rsl2-rcl11-esl29-rsm2-rcm69-esm100-rsr2-rcr2-esr29.npz,,,,,0,92,92,196,,left,green,1.25,334.4812397956848,334.92757987976074,,,2,5,6,lightness,readingArea,realistic,75,2023-03-15_13h35.03.368,tripletExp_regina_11082022,2022.2.4,120.18682912012656,
3,13,12,2,0.444444444444444,0.298245614035088,2,0.111111111111111,3.10526315789474,2,0.027777777777778,3.10526315789474,ReadingArea_rsl2-rcl44-esl29-rsm2-rcm11-esm310-rsr2-rcr2-esr310,exr/ReadingArea_rsl2-rcl44-esl29-rsm2-rcm11-esm310-rsr2-rcr2-esr310.exr,ReadingArea_rsl2-rcl44-esl29-rsm2-rcm11-esm310-rsr2-rcr2-esr310.npz,,,,,0,93,93,34,,left,green,2.98,338.39003586769104,338.82413482666016,,,2,5,6,lightness,readingArea,realistic,75,2023-03-15_13h35.03.368,tripletExp_regina_11082022,2022.2.4,120.18682912012656,
1,9,8,2,0.111111111111111,0.298245614035088,2,0.444444444444444,1.0,2,0.25,1.0,ReadingArea_rsl2-rcl11-esl29-rsm2-rcm44-esm100-rsr2-rcr25-esr100,exr/ReadingArea_rsl2-rcl11-esl29-rsm2-rcm44-esm100-rsr2-rcr25-esr100.exr,ReadingArea_rsl2-rcl11-esl29-rsm2-rcm44-esm100-rsr2-rcr25-esr100.npz,,,,,0,94,94,268,,right,red,0.91,340.5283348560333,340.93959879875183,,,2,5,6,lightness,readingArea,realistic,75,2023-03-15_13h35.03.368,tripletExp_regina_11082022,2022.2.4,120.18682912012656,
1,6,11,2,0.111111111111111,0.298245614035088,2,0.027777777777778,1.0,2,1.0,1.0,ReadingArea_rsl2-rcl11-esl29-rsm2-rcm2-esm100-rsr2-rcr100-esr100,exr/ReadingArea_rsl2-rcl11-esl29-rsm2-rcm2-esm100-rsr2-rcr100-esr100.exr,ReadingArea_rsl2-rcl11-esl29-rsm2-rcm2-esm100-rsr2-rcr100-esr100.npz,,,,,0,95,95,39,,left,green,1.19,342.64040899276733,343.08459281921387,,,2,5,6,lightness,readingArea,realistic,75,2023-03-15_13h35.03.368,tripletExp_regina_11082022,2022.2.4,120.18682912012656,
0,4,7,2,0.027777777777778,0.298245614035088,2,0.694444444444444,0.298245614035088,2,0.111111111111111,1.0,ReadingArea_rsl2-rcl2-esl29-rsm2-rcm69-esm29-rsr2-rcr11-esr100,exr/ReadingArea_rsl2-rcl2-esl29-rsm2-rcm69-esm29-rsr2-rcr11-esr100.exr,ReadingArea_rsl2-rcl2-esl29-rsm2-rcm69-esm29-rsr2-rcr11-esr100.npz,,,,,0,96,96,200,,right,red,0.88,344.78763580322266,345.24153089523315,,,2,5,6,lightness,readingArea,realistic,75,2023-03-15_13h35.03.368,tripletExp_regina_11082022,2022.2.4,120.18682912012656,
9,11,6,2,0.444444444444444,1.0,2,1.0,1.0,2,0.027777777777778,1.0,ReadingArea_rsl2-rcl44-esl100-rsm2-rcm100-esm100-rsr2-rcr2-esr100,exr/ReadingArea_rsl2-rcl44-esl100-rsm2-rcm100-esm100-rsr2-rcr2-esr100.exr,ReadingArea_rsl2-rcl44-esl100-rsm2-rcm100-esm100-rsr2-rcr2-esr100.npz,,,,,0,97,97,404,,left,green,0.89,346.9524798393249,347.42414689064026,,,2,5,6,lightness,readingArea,realistic,75,2023-03-15_13h35.03.368,tripletExp_regina_11082022,2022.2.4,120.18682912012656,
13,11,8,2,0.111111111111111,3.10526315789474,2,1.0,1.0,2,0.25,1.0,ReadingArea_rsl2-rcl11-esl310-rsm2-rcm100-esm100-rsr2-rcr25-esr100,exr/ReadingArea_rsl2-rcl11-esl310-rsm2-rcm100-esm100-rsr2-rcr25-esr100.exr,ReadingArea_rsl2-rcl11-esl310-rsm2-rcm100-esm100-rsr2-rcr25-esr100.npz,,,,,0,98,98,410,,left,green,4.47,352.6608748435974,353.1401059627533,,,2,5,6,lightness,readingArea,realistic,75,2023-03-15_13h35.03.368,tripletExp_regina_11082022,2022.2.4,120.18682912012656,
6,11,8,2,0.027777777777778,1.0,2,1.0,1.0,2,0.25,1.0,ReadingArea_rsl2-rcl2-esl100-rsm2-rcm100-esm100-rsr2-rcr25-esr100,exr/ReadingArea_rsl2-rcl2-esl100-rsm2-rcm100-esm100-rsr2-rcr25-esr100.exr,ReadingArea_rsl2-rcl2-esl100-rsm2-rcm100-esm100-rsr2-rcr25-esr100.npz,,,,,0,99,99,176,,right,red,0.98,354.83934593200684,355.2813868522644,,,2,5,6,lightness,readingArea,realistic,75,2023-03-15_13h35.03.368,tripletExp_regina_11082022,2022.2.4,120.18682912012656,
9,7,3,2,0.444444444444444,1.0,2,0.111111111111111,1.0,2,0.444444444444444,0.298245614035088,ReadingArea_rsl2-rcl44-esl100-rsm2-rcm11-esm100-rsr2-rcr44-esr29,exr/ReadingArea_rsl2-rcl44-esl100-rsm2-rcm11-esm100-rsr2-rcr44-esr29.exr,ReadingArea_rsl2-rcl44-esl100-rsm2-rcm11-esm100-rsr2-rcr44-esr29.npz,,,,,0,100,100,235,,right,red,1.01,356.99997186660767,357.4419598579407,,,2,5,6,lightness,readingArea,realistic,75,2023-03-15_13h35.03.368,tripletExp_regina_11082022,2022.2.4,120.18682912012656,
1,13,14,2,0.111111111111111,0.298245614035088,2,0.111111111111111,3.10526315789474,2,0.25,3.10526315789474,ReadingArea_rsl2-rcl11-esl29-rsm2-rcm11-esm310-rsr2-rcr25-esr310,exr/ReadingArea_rsl2-rcl11-esl29-rsm2-rcm11-esm310-rsr2-rcr25-esr310.exr,ReadingArea_rsl2-rcl11-esl29-rsm2-rcm11-esm310-rsr2-rcr25-esr310.npz,,,,,0,101,101,183,,left,green,1.17,359.1481988430023,359.59322595596313,,,2,5,6,lightness,readingArea,realistic,75,2023-03-15_13h35.03.368,tripletExp_regina_11082022,2022.2.4,120.18682912012656,
14,8,1,2,0.25,3.10526315789474,2,0.25,1.0,2,0.111111111111111,0.298245614035088,ReadingArea_rsl2-rcl25-esl310-rsm2-rcm25-esm100-rsr2-rcr11-esr29,exr/ReadingArea_rsl2-rcl25-esl310-rsm2-rcm25-esm100-rsr2-rcr11-esr29.exr,ReadingArea_rsl2-rcl25-esl310-rsm2-rcm25-esm100-rsr2-rcr11-esr29.npz,,,,,0,102,102,141,,right,red,1.29,361.29439187049866,361.7294638156891,,,2,5,6,lightness,readingArea,realistic,75,2023-03-15_13h35.03.368,tripletExp_regina_11082022,2022.2.4,120.18682912012656,
8,3,12,2,0.25,1.0,2,0.444444444444444,0.298245614035088,2,0.027777777777778,3.10526315789474,ReadingArea_rsl2-rcl25-esl100-rsm2-rcm44-esm29-rsr2-rcr2-esr310,exr/ReadingArea_rsl2-rcl25-esl100-rsm2-rcm44-esm29-rsr2-rcr2-esr310.exr,ReadingArea_rsl2-rcl25-esl100-rsm2-rcm44-esm29-rsr2-rcr2-esr310.npz,,,,,0,103,103,22,,left,green,1.02,363.4511179924011,363.89531993865967,,,2,5,6,lightness,readingArea,realistic,75,2023-03-15_13h35.03.368,tripletExp_regina_11082022,2022.2.4,120.18682912012656,
7,14,3,2,0.111111111111111,1.0,2,0.25,3.10526315789474,2,0.444444444444444,0.298245614035088,ReadingArea_rsl2-rcl11-esl100-rsm2-rcm25-esm310-rsr2-rcr44-esr29,exr/ReadingArea_rsl2-rcl11-esl100-rsm2-rcm25-esm310-rsr2-rcr44-esr29.exr,ReadingArea_rsl2-rcl11-esl100-rsm2-rcm25-esm310-rsr2-rcr44-esr29.npz,,,,,0,104,104,103,,left,green,2.25,367.36401295661926,367.8062219619751,,,2,5,6,lightness,readingArea,realistic,75,2023-03-15_13h35.03.368,tripletExp_regina_11082022,2022.2.4,120.18682912012656,
12,6,9,2,0.027777777777778,3.10526315789474,2,0.027777777777778,1.0,2,0.444444444444444,1.0,ReadingArea_rsl2-rcl2-esl310-rsm2-rcm2-esm100-rsr2-rcr44-esr100,exr/ReadingArea_rsl2-rcl2-esl310-rsm2-rcm2-esm100-rsr2-rcr44-esr100.exr,ReadingArea_rsl2-rcl2-esl310-rsm2-rcm2-esm100-rsr2-rcr44-esr100.npz,,,,,0,105,105,177,,left,green,1.01,369.515704870224,,,,2,5,6,lightness,readingArea,realistic,75,2023-03-15_13h35.03.368,tripletExp_regina_11082022,2022.2.4,120.18682912012656,
4,1,13,2,0.694444444444444,0.298245614035088,2,0.111111111111111,0.298245614035088,2,0.111111111111111,3.10526315789474,ReadingArea_rsl2-rcl69-esl29-rsm2-rcm11-esm29-rsr2-rcr11-esr310,exr/ReadingArea_rsl2-rcl69-esl29-rsm2-rcm11-esm29-rsr2-rcr11-esr310.exr,ReadingArea_rsl2-rcl69-esl29-rsm2-rcm11-esm29-rsr2-rcr11-esr310.npz,,,,,0,106,106,565,,right,red,1.57,371.66785883903503,372.1449859142304,,,2,5,6,lightness,readingArea,realistic,75,2023-03-15_13h35.03.368,tripletExp_regina_11082022,2022.2.4,120.18682912012656,
7,14,10,2,0.111111111111111,1.0,2,0.25,3.10526315789474,2,0.694444444444444,1.0,ReadingArea_rsl2-rcl11-esl100-rsm2-rcm25-esm310-rsr2-rcr69-esr100,exr/ReadingArea_rsl2-rcl11-esl100-rsm2-rcm25-esm310-rsr2-rcr69-esr100.exr,ReadingArea_rsl2-rcl11-esl100-rsm2-rcm25-esm310-rsr2-rcr69-esr100.npz,,,,,0,107,107,472,,left,green,1.33,373.838173866272,374.2844109535217,,,2,5,6,lightness,readingArea,realistic,75,2023-03-15_13h35.03.368,tripletExp_regina_11082022,2022.2.4,120.18682912012656,
10,12,11,2,0.694444444444444,1.0,2,0.027777777777778,3.10526315789474,2,1.0,1.0,ReadingArea_rsl2-rcl69-esl100-rsm2-rcm2-esm310-rsr2-rcr100-esr100,exr/ReadingArea_rsl2-rcl69-esl100-rsm2-rcm2-esm310-rsr2-rcr100-esr100.exr,ReadingArea_rsl2-rcl69-esl100-rsm2-rcm2-esm310-rsr2-rcr100-esr100.npz,,,,,0,108,108,317,,left,green,1.3,376.0049979686737,376.4685418605805,,,2,5,6,lightness,readingArea,realistic,75,2023-03-15_13h35.03.368,tripletExp_regina_11082022,2022.2.4,120.18682912012656,
4,11,12,2,0.694444444444444,0.298245614035088,2,1.0,1.0,2,0.027777777777778,3.10526315789474,ReadingArea_rsl2-rcl69-esl29-rsm2-rcm100-esm100-rsr2-rcr2-esr310,exr/ReadingArea_rsl2-rcl69-esl29-rsm2-rcm100-esm100-rsr2-rcr2-esr310.exr,ReadingArea_rsl2-rcl69-esl29-rsm2-rcm100-esm100-rsr2-rcr2-esr310.npz,,,,,0,109,109,109,,right,red,1.28,378.16446685791016,378.58285188674927,,,2,5,6,lightness,readingArea,realistic,75,2023-03-15_13h35.03.368,tripletExp_regina_11082022,2022.2.4,120.18682912012656,
5,9,12,2,1.0,0.298245614035088,2,0.444444444444444,1.0,2,0.027777777777778,3.10526315789474,ReadingArea_rsl2-rcl100-esl29-rsm2-rcm44-esm100-rsr2-rcr2-esr310,exr/ReadingArea_rsl2-rcl100-esl29-rsm2-rcm44-esm100-rsr2-rcr2-esr310.exr,ReadingArea_rsl2-rcl100-esl29-rsm2-rcm44-esm100-rsr2-rcr2-esr310.npz,,,,,0,110,110,539,,left,green,2.63,382.05377984046936,382.5247359275818,,,2,5,6,lightness,readingArea,realistic,75,2023-03-15_13h35.03.368,tripletExp_regina_11082022,2022.2.4,120.18682912012656,
14,2,0,2,0.25,3.10526315789474,2,0.25,0.298245614035088,2,0.027777777777778,0.298245614035088,ReadingArea_rsl2-rcl25-esl310-rsm2-rcm25-esm29-rsr2-rcr2-esr29,exr/ReadingArea_rsl2-rcl25-esl310-rsm2-rcm25-esm29-rsr2-rcr2-esr29.exr,ReadingArea_rsl2-rcl25-esl310-rsm2-rcm25-esm29-rsr2-rcr2-esr29.npz,,,,,0,111,111,460,,left,green,1.44,384.2479968070984,384.6569848060608,,,2,5,6,lightness,readingArea,realistic,75,2023-03-15_13h35.03.368,tripletExp_regina_11082022,2022.2.4,120.18682912012656,
4,5,1,2,0.694444444444444,0.298245614035088,2,1.0,0.298245614035088,2,0.111111111111111,0.298245614035088,ReadingArea_rsl2-rcl69-esl29-rsm2-rcm100-esm29-rsr2-rcr11-esr29,exr/ReadingArea_rsl2-rcl69-esl29-rsm2-rcm100-esm29-rsr2-rcr11-esr29.exr,ReadingArea_rsl2-rcl69-esl29-rsm2-rcm100-esm29-rsr2-rcr11-esr29.npz,,,,,0,112,112,240,,left,green,0.89,386.3624548912048,386.8083348274231,,,2,5,6,lightness,readingArea,realistic,75,2023-03-15_13h35.03.368,tripletExp_regina_11082022,2022.2.4,120.18682912012656,
1,11,12,2,0.111111111111111,0.298245614035088,2,1.0,1.0,2,0.027777777777778,3.10526315789474,ReadingArea_rsl2-rcl11-esl29-rsm2-rcm100-esm100-rsr2-rcr2-esr310,exr/ReadingArea_rsl2-rcl11-esl29-rsm2-rcm100-esm100-rsr2-rcr2-esr310.exr,ReadingArea_rsl2-rcl11-esl29-rsm2-rcm100-esm100-rsr2-rcr2-esr310.npz,,,,,0,113,113,288,,left,green,1.25,388.5087969303131,388.9604578018189,,,2,5,6,lightness,readingArea,realistic,75,2023-03-15_13h35.03.368,tripletExp_regina_11082022,2022.2.4,120.18682912012656,
11,1,12,2,1.0,1.0,2,0.111111111111111,0.298245614035088,2,0.027777777777778,3.10526315789474,ReadingArea_rsl2-rcl100-esl100-rsm2-rcm11-esm29-rsr2-rcr2-esr310,exr/ReadingArea_rsl2-rcl100-esl100-rsm2-rcm11-esm29-rsr2-rcr2-esr310.exr,ReadingArea_rsl2-rcl100-esl100-rsm2-rcm11-esm29-rsr2-rcr2-esr310.npz,,,,,0,114,114,339,,right,red,0.78,390.64942693710327,391.0932610034943,,,2,5,6,lightness,readingArea,realistic,75,2023-03-15_13h35.03.368,tripletExp_regina_11082022,2022.2.4,120.18682912012656,
11,7,13,2,1.0,1.0,2,0.111111111111111,1.0,2,0.111111111111111,3.10526315789474,ReadingArea_rsl2-rcl100-esl100-rsm2-rcm11-esm100-rsr2-rcr11-esr310,exr/ReadingArea_rsl2-rcl100-esl100-rsm2-rcm11-esm100-rsr2-rcr11-esr310.exr,ReadingArea_rsl2-rcl100-esl100-rsm2-rcm11-esm100-rsr2-rcr11-esr310.npz,,,,,0,115,115,431,,right,red,0.96,392.8171110153198,393.2619619369507,,,2,5,6,lightness,readingArea,realistic,75,2023-03-15_13h35.03.368,tripletExp_regina_11082022,2022.2.4,120.18682912012656,
8,10,7,2,0.25,1.0,2,0.694444444444444,1.0,2,0.111111111111111,1.0,ReadingArea_rsl2-rcl25-esl100-rsm2-rcm69-esm100-rsr2-rcr11-esr100,exr/ReadingArea_rsl2-rcl25-esl100-rsm2-rcm69-esm100-rsr2-rcr11-esr100.exr,ReadingArea_rsl2-rcl25-esl100-rsm2-rcm69-esm100-rsr2-rcr11-esr100.npz,,,,,0,116,116,424,,left,green,1.28,394.9507548809052,395.3705599308014,,,2,5,6,lightness,readingArea,realistic,75,2023-03-15_13h35.03.368,tripletExp_regina_11082022,2022.2.4,120.18682912012656,
0,1,8,2,0.027777777777778,0.298245614035088,2,0.111111111111111,0.298245614035088,2,0.25,1.0,ReadingArea_rsl2-rcl2-esl29-rsm2-rcm11-esm29-rsr2-rcr25-esr100,exr/ReadingArea_rsl2-rcl2-esl29-rsm2-rcm11-esm29-rsr2-rcr25-esr100.exr,ReadingArea_rsl2-rcl2-esl29-rsm2-rcm11-esm29-rsr2-rcr25-esr100.npz,,,,,0,117,117,107,,left,green,0.97,397.0897269248962,397.5365438461304,,,2,5,6,lightness,readingArea,realistic,75,2023-03-15_13h35.03.368,tripletExp_regina_11082022,2022.2.4,120.18682912012656,
7,5,11,2,0.111111111111111,1.0,2,1.0,0.298245614035088,2,1.0,1.0,ReadingArea_rsl2-rcl11-esl100-rsm2-rcm100-esm29-rsr2-rcr100-esr100,exr/ReadingArea_rsl2-rcl11-esl100-rsm2-rcm100-esm29-rsr2-rcr100-esr100.exr,ReadingArea_rsl2-rcl11-esl100-rsm2-rcm100-esm29-rsr2-rcr100-esr100.npz,,,,,0,118,118,10,,right,red,0.95,399.260057926178,399.6892039775848,,,2,5,6,lightness,readingArea,realistic,75,2023-03-15_13h35.03.368,tripletExp_regina_11082022,2022.2.4,120.18682912012656,
10,1,13,2,0.694444444444444,1.0,2,0.111111111111111,0.298245614035088,2,0.111111111111111,3.10526315789474,ReadingArea_rsl2-rcl69-esl100-rsm2-rcm11-esm29-rsr2-rcr11-esr310,exr/ReadingArea_rsl2-rcl69-esl100-rsm2-rcm11-esm29-rsr2-rcr11-esr310.exr,ReadingArea_rsl2-rcl69-esl100-rsm2-rcm11-esm29-rsr2-rcr11-esr310.npz,,,,,0,119,119,45,,right,red,0.77,401.4049119949341,401.83995389938354,,,2,5,6,lightness,readingArea,realistic,75,2023-03-15_13h35.03.368,tripletExp_regina_11082022,2022.2.4,120.18682912012656,
10,11,9,2,0.694444444444444,1.0,2,1.0,1.0,2,0.444444444444444,1.0,ReadingArea_rsl2-rcl69-esl100-rsm2-rcm100-esm100-rsr2-rcr44-esr100,exr/ReadingArea_rsl2-rcl69-esl100-rsm2-rcm100-esm100-rsr2-rcr44-esr100.exr,ReadingArea_rsl2-rcl69-esl100-rsm2-rcm100-esm100-rsr2-rcr44-esr100.npz,,,,,0,120,120,492,,left,green,1.11,403.56038188934326,404.0150859355927,,,2,5,6,lightness,readingArea,realistic,75,2023-03-15_13h35.03.368,tripletExp_regina_11082022,2022.2.4,120.18682912012656,
8,1,10,2,0.25,1.0,2,0.111111111111111,0.298245614035088,2,0.694444444444444,1.0,ReadingArea_rsl2-rcl25-esl100-rsm2-rcm11-esm29-rsr2-rcr69-esr100,exr/ReadingArea_rsl2-rcl25-esl100-rsm2-rcm11-esm29-rsr2-rcr69-esr100.exr,ReadingArea_rsl2-rcl25-esl100-rsm2-rcm11-esm29-rsr2-rcr69-esr100.npz,,,,,0,121,121,442,,left,green,0.84,405.7079768180847,406.1172578334808,,,2,5,6,lightness,readingArea,realistic,75,2023-03-15_13h35.03.368,tripletExp_regina_11082022,2022.2.4,120.18682912012656,
10,0,14,2,0.694444444444444,1.0,2,0.027777777777778,0.298245614035088,2,0.25,3.10526315789474,ReadingArea_rsl2-rcl69-esl100-rsm2-rcm2-esm29-rsr2-rcr25-esr310,exr/ReadingArea_rsl2-rcl69-esl100-rsm2-rcm2-esm29-rsr2-rcr25-esr310.exr,ReadingArea_rsl2-rcl69-esl100-rsm2-rcm2-esm29-rsr2-rcr25-esr310.npz,,,,,0,122,122,95,,right,red,0.91,407.8268599510193,408.241504907608,,,2,5,6,lightness,readingArea,realistic,75,2023-03-15_13h35.03.368,tripletExp_regina_11082022,2022.2.4,120.18682912012656,
8,10,6,2,0.25,1.0,2,0.694444444444444,1.0,2,0.027777777777778,1.0,ReadingArea_rsl2-rcl25-esl100-rsm2-rcm69-esm100-rsr2-rcr2-esr100,exr/ReadingArea_rsl2-rcl25-esl100-rsm2-rcm69-esm100-rsr2-rcr2-esr100.exr,ReadingArea_rsl2-rcl25-esl100-rsm2-rcm69-esm100-rsr2-rcr2-esr100.npz,,,,,0,123,123,129,,left,green,0.88,409.95336294174194,410.3848547935486,,,2,5,6,lightness,readingArea,realistic,75,2023-03-15_13h35.03.368,tripletExp_regina_11082022,2022.2.4,120.18682912012656,
9,2,12,2,0.444444444444444,1.0,2,0.25,0.298245614035088,2,0.027777777777778,3.10526315789474,ReadingArea_rsl2-rcl44-esl100-rsm2-rcm25-esm29-rsr2-rcr2-esr310,exr/ReadingArea_rsl2-rcl44-esl100-rsm2-rcm25-esm29-rsr2-rcr2-esr310.exr,ReadingArea_rsl2-rcl44-esl100-rsm2-rcm25-esm29-rsr2-rcr2-esr310.npz,,,,,0,124,124,391,,right,red,0.75,412.0974309444428,,,,2,5,6,lightness,readingArea,realistic,75,2023-03-15_13h35.03.368,tripletExp_regina_11082022,2022.2.4,120.18682912012656,
13,3,5,2,0.111111111111111,3.10526315789474,2,0.444444444444444,0.298245614035088,2,1.0,0.298245614035088,ReadingArea_rsl2-rcl11-esl310-rsm2-rcm44-esm29-rsr2-rcr100-esr29,exr/ReadingArea_rsl2-rcl11-esl310-rsm2-rcm44-esm29-rsr2-rcr100-esr29.exr,ReadingArea_rsl2-rcl11-esl310-rsm2-rcm44-esm29-rsr2-rcr100-esr29.npz,,,,,0,125,125,398,,left,green,1.08,414.2645258903504,,,,2,5,6,lightness,readingArea,realistic,75,2023-03-15_13h35.03.368,tripletExp_regina_11082022,2022.2.4,120.18682912012656,
5,0,10,2,1.0,0.298245614035088,2,0.027777777777778,0.298245614035088,2,0.694444444444444,1.0,ReadingArea_rsl2-rcl100-esl29-rsm2-rcm2-esm29-rsr2-rcr69-esr100,exr/ReadingArea_rsl2-rcl100-esl29-rsm2-rcm2-esm29-rsr2-rcr69-esr100.exr,ReadingArea_rsl2-rcl100-esl29-rsm2-rcm2-esm29-rsr2-rcr69-esr100.npz,,,,,0,126,126,361,,left,green,1.01,416.3900978565216,,,,2,5,6,lightness,readingArea,realistic,75,2023-03-15_13h35.03.368,tripletExp_regina_11082022,2022.2.4,120.18682912012656,
13,1,3,2,0.111111111111111,3.10526315789474,2,0.111111111111111,0.298245614035088,2,0.444444444444444,0.298245614035088,ReadingArea_rsl2-rcl11-esl310-rsm2-rcm11-esm29-rsr2-rcr44-esr29,exr/ReadingArea_rsl2-rcl11-esl310-rsm2-rcm11-esm29-rsr2-rcr44-esr29.exr,ReadingArea_rsl2-rcl11-esl310-rsm2-rcm11-esm29-rsr2-rcr44-esr29.npz,,,,,0,127,127,588,,left,green,1.4,418.55294489860535,418.9894418716431,,,2,5,6,lightness,readingArea,realistic,75,2023-03-15_13h35.03.368,tripletExp_regina_11082022,2022.2.4,120.18682912012656,
12,14,8,2,0.027777777777778,3.10526315789474,2,0.25,3.10526315789474,2,0.25,1.0,ReadingArea_rsl2-rcl2-esl310-rsm2-rcm25-esm310-rsr2-rcr25-esr100,exr/ReadingArea_rsl2-rcl2-esl310-rsm2-rcm25-esm310-rsr2-rcr25-esr100.exr,ReadingArea_rsl2-rcl2-esl310-rsm2-rcm25-esm310-rsr2-rcr25-esr100.npz,,,,,0,128,128,466,,right,red,1.21,420.7137739658356,421.1692550182343,,,2,5,6,lightness,readingArea,realistic,75,2023-03-15_13h35.03.368,tripletExp_regina_11082022,2022.2.4,120.18682912012656,
9,6,11,2,0.444444444444444,1.0,2,0.027777777777778,1.0,2,1.0,1.0,ReadingArea_rsl2-rcl44-esl100-rsm2-rcm2-esm100-rsr2-rcr100-esr100,exr/ReadingArea_rsl2-rcl44-esl100-rsm2-rcm2-esm100-rsr2-rcr100-esr100.exr,ReadingArea_rsl2-rcl44-esl100-rsm2-rcm2-esm100-rsr2-rcr100-esr100.npz,,,,,0,129,129,572,,left,green,1.14,422.8866698741913,423.3223919868469,,,2,5,6,lightness,readingArea,realistic,75,2023-03-15_13h35.03.368,tripletExp_regina_11082022,2022.2.4,120.18682912012656,
6,13,8,2,0.027777777777778,1.0,2,0.111111111111111,3.10526315789474,2,0.25,1.0,ReadingArea_rsl2-rcl2-esl100-rsm2-rcm11-esm310-rsr2-rcr25-esr100,exr/ReadingArea_rsl2-rcl2-esl100-rsm2-rcm11-esm310-rsr2-rcr25-esr100.exr,ReadingArea_rsl2-rcl2-esl100-rsm2-rcm11-esm310-rsr2-rcr25-esr100.npz,,,,,0,130,130,535,,right,red,0.97,425.0083429813385,425.4498438835144,,,2,5,6,lightness,readingArea,realistic,75,2023-03-15_13h35.03.368,tripletExp_regina_11082022,2022.2.4,120.18682912012656,
4,7,10,2,0.694444444444444,0.298245614035088,2,0.111111111111111,1.0,2,0.694444444444444,1.0,ReadingArea_rsl2-rcl69-esl29-rsm2-rcm11-esm100-rsr2-rcr69-esr100,exr/ReadingArea_rsl2-rcl69-esl29-rsm2-rcm11-esm100-rsr2-rcr69-esr100.exr,ReadingArea_rsl2-rcl69-esl29-rsm2-rcm11-esm100-rsr2-rcr69-esr100.npz,,,,,0,131,131,8,,left,green,1.35,427.1439518928528,427.6010048389435,,,2,5,6,lightness,readingArea,realistic,75,2023-03-15_13h35.03.368,tripletExp_regina_11082022,2022.2.4,120.18682912012656,
10,3,1,2,0.694444444444444,1.0,2,0.444444444444444,0.298245614035088,2,0.111111111111111,0.298245614035088,ReadingArea_rsl2-rcl69-esl100-rsm2-rcm44-esm29-rsr2-rcr11-esr29,exr/ReadingArea_rsl2-rcl69-esl100-rsm2-rcm44-esm29-rsr2-rcr11-esr29.exr,ReadingArea_rsl2-rcl69-esl100-rsm2-rcm44-esm29-rsr2-rcr11-esr29.npz,,,,,0,132,132,420,,right,red,0.8,429.3184208869934,429.76307582855225,,,2,5,6,lightness,readingArea,realistic,75,2023-03-15_13h35.03.368,tripletExp_regina_11082022,2022.2.4,120.18682912012656,
10,8,11,2,0.694444444444444,1.0,2,0.25,1.0,2,1.0,1.0,ReadingArea_rsl2-rcl69-esl100-rsm2-rcm25-esm100-rsr2-rcr100-esr100,exr/ReadingArea_rsl2-rcl69-esl100-rsm2-rcm25-esm100-rsr2-rcr100-esr100.exr,ReadingArea_rsl2-rcl69-esl100-rsm2-rcm25-esm100-rsr2-rcr100-esr100.npz,,,,,0,133,133,578,,left,green,1.11,431.4750168323517,431.89542388916016,,,2,5,6,lightness,readingArea,realistic,75,2023-03-15_13h35.03.368,tripletExp_regina_11082022,2022.2.4,120.18682912012656,
8,9,13,2,0.25,1.0,2,0.444444444444444,1.0,2,0.111111111111111,3.10526315789474,ReadingArea_rsl2-rcl25-esl100-rsm2-rcm44-esm100-rsr2-rcr11-esr310,exr/ReadingArea_rsl2-rcl25-esl100-rsm2-rcm44-esm100-rsr2-rcr11-esr310.exr,ReadingArea_rsl2-rcl25-esl100-rsm2-rcm44-esm100-rsr2-rcr11-esr310.npz,,,,,0,134,134,519,,left,green,1.52,433.6206328868866,434.074208021164,,,2,5,6,lightness,readingArea,realistic,75,2023-03-15_13h35.03.368,tripletExp_regina_11082022,2022.2.4,120.18682912012656,
7,0,3,2,0.111111111111111,1.0,2,0.027777777777778,0.298245614035088,2,0.444444444444444,0.298245614035088,ReadingArea_rsl2-rcl11-esl100-rsm2-rcm2-esm29-rsr2-rcr44-esr29,exr/ReadingArea_rsl2-rcl11-esl100-rsm2-rcm2-esm29-rsr2-rcr44-esr29.exr,ReadingArea_rsl2-rcl11-esl100-rsm2-rcm2-esm29-rsr2-rcr44-esr29.npz,,,,,0,135,135,237,,left,green,1.21,435.7781028747559,436.2182049751282,,,2,5,6,lightness,readingArea,realistic,75,2023-03-15_13h35.03.368,tripletExp_regina_11082022,2022.2.4,120.18682912012656,
10,11,13,2,0.694444444444444,1.0,2,1.0,1.0,2,0.111111111111111,3.10526315789474,ReadingArea_rsl2-rcl69-esl100-rsm2-rcm100-esm100-rsr2-rcr11-esr310,exr/ReadingArea_rsl2-rcl69-esl100-rsm2-rcm100-esm100-rsr2-rcr11-esr310.exr,ReadingArea_rsl2-rcl69-esl100-rsm2-rcm100-esm100-rsr2-rcr11-esr310.npz,,,,,0,136,136,79,,left,green,0.9,437.9307119846344,438.3754498958588,,,2,5,6,lightness,readingArea,realistic,75,2023-03-15_13h35.03.368,tripletExp_regina_11082022,2022.2.4,120.18682912012656,
9,6,8,2,0.444444444444444,1.0,2,0.027777777777778,1.0,2,0.25,1.0,ReadingArea_rsl2-rcl44-esl100-rsm2-rcm2-esm100-rsr2-rcr25-esr100,exr/ReadingArea_rsl2-rcl44-esl100-rsm2-rcm2-esm100-rsr2-rcr25-esr100.exr,ReadingArea_rsl2-rcl44-esl100-rsm2-rcm2-esm100-rsr2-rcr25-esr100.npz,,,,,0,137,137,312,,right,red,1.01,440.07080602645874,440.5983669757843,,,2,5,6,lightness,readingArea,realistic,75,2023-03-15_13h35.03.368,tripletExp_regina_11082022,2022.2.4,120.18682912012656,
13,9,4,2,0.111111111111111,3.10526315789474,2,0.444444444444444,1.0,2,0.694444444444444,0.298245614035088,ReadingArea_rsl2-rcl11-esl310-rsm2-rcm44-esm100-rsr2-rcr69-esr29,exr/ReadingArea_rsl2-rcl11-esl310-rsm2-rcm44-esm100-rsr2-rcr69-esr29.exr,ReadingArea_rsl2-rcl11-esl310-rsm2-rcm44-esm100-rsr2-rcr69-esr29.npz,,,,,0,138,138,444,,right,red,1.54,442.2860360145569,,,,2,5,6,lightness,readingArea,realistic,75,2023-03-15_13h35.03.368,tripletExp_regina_11082022,2022.2.4,120.18682912012656,
7,8,11,2,0.111111111111111,1.0,2,0.25,1.0,2,1.0,1.0,ReadingArea_rsl2-rcl11-esl100-rsm2-rcm25-esm100-rsr2-rcr100-esr100,exr/ReadingArea_rsl2-rcl11-esl100-rsm2-rcm25-esm100-rsr2-rcr100-esr100.exr,ReadingArea_rsl2-rcl11-esl100-rsm2-rcm25-esm100-rsr2-rcr100-esr100.npz,,,,,0,139,139,363,,left,green,0.71,444.43862199783325,444.8553738594055,,,2,5,6,lightness,readingArea,realistic,75,2023-03-15_13h35.03.368,tripletExp_regina_11082022,2022.2.4,120.18682912012656,
0,8,12,2,0.027777777777778,0.298245614035088,2,0.25,1.0,2,0.027777777777778,3.10526315789474,ReadingArea_rsl2-rcl2-esl29-rsm2-rcm25-esm100-rsr2-rcr2-esr310,exr/ReadingArea_rsl2-rcl2-esl29-rsm2-rcm25-esm100-rsr2-rcr2-esr310.exr,ReadingArea_rsl2-rcl2-esl29-rsm2-rcm25-esm100-rsr2-rcr2-esr310.npz,,,,,0,140,140,314,,right,red,0.74,446.5499799251557,447.0360569953919,,,2,5,6,lightness,readingArea,realistic,75,2023-03-15_13h35.03.368,tripletExp_regina_11082022,2022.2.4,120.18682912012656,
1,14,0,2,0.111111111111111,0.298245614035088,2,0.25,3.10526315789474,2,0.027777777777778,0.298245614035088,ReadingArea_rsl2-rcl11-esl29-rsm2-rcm25-esm310-rsr2-rcr2-esr29,exr/ReadingArea_rsl2-rcl11-esl29-rsm2-rcm25-esm310-rsr2-rcr2-esr29.exr,ReadingArea_rsl2-rcl11-esl29-rsm2-rcm25-esm310-rsr2-rcr2-esr29.npz,,,,,0,141,141,394,,left,green,1.29,448.7549679279328,449.1957049369812,,,2,5,6,lightness,readingArea,realistic,75,2023-03-15_13h35.03.368,tripletExp_regina_11082022,2022.2.4,120.18682912012656,
9,7,2,2,0.444444444444444,1.0,2,0.111111111111111,1.0,2,0.25,0.298245614035088,ReadingArea_rsl2-rcl44-esl100-rsm2-rcm11-esm100-rsr2-rcr25-esr29,exr/ReadingArea_rsl2-rcl44-esl100-rsm2-rcm11-esm100-rsr2-rcr25-esr29.exr,ReadingArea_rsl2-rcl44-esl100-rsm2-rcm11-esm100-rsr2-rcr25-esr29.npz,,,,,0,142,142,428,,right,red,1.04,450.9066298007965,451.3278658390045,,,2,5,6,lightness,readingArea,realistic,75,2023-03-15_13h35.03.368,tripletExp_regina_11082022,2022.2.4,120.18682912012656,
3,1,0,2,0.444444444444444,0.298245614035088,2,0.111111111111111,0.298245614035088,2,0.027777777777778,0.298245614035088,ReadingArea_rsl2-rcl44-esl29-rsm2-rcm11-esm29-rsr2-rcr2-esr29,exr/ReadingArea_rsl2-rcl44-esl29-rsm2-rcm11-esm29-rsr2-rcr2-esr29.exr,ReadingArea_rsl2-rcl44-esl29-rsm2-rcm11-esm29-rsr2-rcr2-esr29.npz,,,,,0,143,143,343,,left,green,1.16,453.0223038196564,453.4762539863586,,,2,5,6,lightness,readingArea,realistic,75,2023-03-15_13h35.03.368,tripletExp_regina_11082022,2022.2.4,120.18682912012656,
4,1,9,2,0.694444444444444,0.298245614035088,2,0.111111111111111,0.298245614035088,2,0.444444444444444,1.0,ReadingArea_rsl2-rcl69-esl29-rsm2-rcm11-esm29-rsr2-rcr44-esr100,exr/ReadingArea_rsl2-rcl69-esl29-rsm2-rcm11-esm29-rsr2-rcr44-esr100.exr,ReadingArea_rsl2-rcl69-esl29-rsm2-rcm11-esm29-rsr2-rcr44-esr100.npz,,,,,0,144,144,7,,right,red,1.17,455.172171831131,455.6009168624878,,,2,5,6,lightness,readingArea,realistic,75,2023-03-15_13h35.03.368,tripletExp_regina_11082022,2022.2.4,120.18682912012656,
13,1,7,2,0.111111111111111,3.10526315789474,2,0.111111111111111,0.298245614035088,2,0.111111111111111,1.0,ReadingArea_rsl2-rcl11-esl310-rsm2-rcm11-esm29-rsr2-rcr11-esr100,exr/ReadingArea_rsl2-rcl11-esl310-rsm2-rcm11-esm29-rsr2-rcr11-esr100.exr,ReadingArea_rsl2-rcl11-esl310-rsm2-rcm11-esm29-rsr2-rcr11-esr100.npz,,,,,0,145,145,206,,right,red,1.36,457.2971208095551,457.7552988529205,,,2,5,6,lightness,readingArea,realistic,75,2023-03-15_13h35.03.368,tripletExp_regina_11082022,2022.2.4,120.18682912012656,
8,4,1,2,0.25,1.0,2,0.694444444444444,0.298245614035088,2,0.111111111111111,0.298245614035088,ReadingArea_rsl2-rcl25-esl100-rsm2-rcm69-esm29-rsr2-rcr11-esr29,exr/ReadingArea_rsl2-rcl25-esl100-rsm2-rcm69-esm29-rsr2-rcr11-esr29.exr,ReadingArea_rsl2-rcl25-esl100-rsm2-rcm69-esm29-rsr2-rcr11-esr29.npz,,,,,0,146,146,286,,left,green,0.81,459.4751989841461,459.92175698280334,,,2,5,6,lightness,readingArea,realistic,75,2023-03-15_13h35.03.368,tripletExp_regina_11082022,2022.2.4,120.18682912012656,
11,4,2,2,1.0,1.0,2,0.694444444444444,0.298245614035088,2,0.25,0.298245614035088,ReadingArea_rsl2-rcl100-esl100-rsm2-rcm69-esm29-rsr2-rcr25-esr29,exr/ReadingArea_rsl2-rcl100-esl100-rsm2-rcm69-esm29-rsr2-rcr25-esr29.exr,ReadingArea_rsl2-rcl100-esl100-rsm2-rcm69-esm29-rsr2-rcr25-esr29.npz,,,,,0,147,147,280,,right,red,0.89,461.6434028148651,462.1053738594055,,,2,5,6,lightness,readingArea,realistic,75,2023-03-15_13h35.03.368,tripletExp_regina_11082022,2022.2.4,120.18682912012656,
2,11,5,2,0.25,0.298245614035088,2,1.0,1.0,2,1.0,0.298245614035088,ReadingArea_rsl2-rcl25-esl29-rsm2-rcm100-esm100-rsr2-rcr100-esr29,exr/ReadingArea_rsl2-rcl25-esl29-rsm2-rcm100-esm100-rsr2-rcr100-esr29.exr,ReadingArea_rsl2-rcl25-esl29-rsm2-rcm100-esm100-rsr2-rcr100-esr29.npz,,,,,0,148,148,491,,right,red,0.71,463.8299989700317,464.2476189136505,,,2,5,6,lightness,readingArea,realistic,75,2023-03-15_13h35.03.368,tripletExp_regina_11082022,2022.2.4,120.18682912012656,
9,0,6,2,0.444444444444444,1.0,2,0.027777777777778,0.298245614035088,2,0.027777777777778,1.0,ReadingArea_rsl2-rcl44-esl100-rsm2-rcm2-esm29-rsr2-rcr2-esr100,exr/ReadingArea_rsl2-rcl44-esl100-rsm2-rcm2-esm29-rsr2-rcr2-esr100.exr,ReadingArea_rsl2-rcl44-esl100-rsm2-rcm2-esm29-rsr2-rcr2-esr100.npz,,,,,0,149,149,362,,right,red,0.91,465.9423758983612,466.1463978290558,,,2,5,6,lightness,readingArea,realistic,75,2023-03-15_13h35.03.368,tripletExp_regina_11082022,2022.2.4,120.18682912012656,
3,0,8,2,0.444444444444444,0.298245614035088,2,0.027777777777778,0.298245614035088,2,0.25,1.0,ReadingArea_rsl2-rcl44-esl29-rsm2-rcm2-esm29-rsr2-rcr25-esr100,exr/ReadingArea_rsl2-rcl44-esl29-rsm2-rcm2-esm29-rsr2-rcr25-esr100.exr,ReadingArea_rsl2-rcl44-esl29-rsm2-rcm2-esm29-rsr2-rcr25-esr100.npz,,,,,0,150,150,510,,left,green,1.5,469.0305600166321,469.50505685806274,,,3,5,6,lightness,readingArea,realistic,75,2023-03-15_13h35.03.368,tripletExp_regina_11082022,2022.2.4,120.18682912012656,
11,14,2,2,1.0,1.0,2,0.25,3.10526315789474,2,0.25,0.298245614035088,ReadingArea_rsl2-rcl100-esl100-rsm2-rcm25-esm310-rsr2-rcr25-esr29,exr/ReadingArea_rsl2-rcl100-esl100-rsm2-rcm25-esm310-rsr2-rcr25-esr29.exr,ReadingArea_rsl2-rcl100-esl100-rsm2-rcm25-esm310-rsr2-rcr25-esr29.npz,,,,,0,151,151,419,,right,red,1.43,471.194198846817,471.6657118797302,,,3,5,6,lightness,readingArea,realistic,75,2023-03-15_13h35.03.368,tripletExp_regina_11082022,2022.2.4,120.18682912012656,
5,11,14,2,1.0,0.298245614035088,2,1.0,1.0,2,0.25,3.10526315789474,ReadingArea_rsl2-rcl100-esl29-rsm2-rcm100-esm100-rsr2-rcr25-esr310,exr/ReadingArea_rsl2-rcl100-esl29-rsm2-rcm100-esm100-rsr2-rcr25-esr310.exr,ReadingArea_rsl2-rcl100-esl29-rsm2-rcm100-esm100-rsr2-rcr25-esr310.npz,,,,,0,152,152,258,,right,red,1.29,473.3827459812164,473.8256769180298,,,3,5,6,lightness,readingArea,realistic,75,2023-03-15_13h35.03.368,tripletExp_regina_11082022,2022.2.4,120.18682912012656,
14,6,13,2,0.25,3.10526315789474,2,0.027777777777778,1.0,2,0.111111111111111,3.10526315789474,ReadingArea_rsl2-rcl25-esl310-rsm2-rcm2-esm100-rsr2-rcr11-esr310,exr/ReadingArea_rsl2-rcl25-esl310-rsm2-rcm2-esm100-rsr2-rcr11-esr310.exr,ReadingArea_rsl2-rcl25-esl310-rsm2-rcm2-esm100-rsr2-rcr11-esr310.npz,,,,,0,153,153,91,,right,red,1.04,475.5203528404236,475.9255158901215,,,3,5,6,lightness,readingArea,realistic,75,2023-03-15_13h35.03.368,tripletExp_regina_11082022,2022.2.4,120.18682912012656,
9,3,0,2,0.444444444444444,1.0,2,0.444444444444444,0.298245614035088,2,0.027777777777778,0.298245614035088,ReadingArea_rsl2-rcl44-esl100-rsm2-rcm44-esm29-rsr2-rcr2-esr29,exr/ReadingArea_rsl2-rcl44-esl100-rsm2-rcm44-esm29-rsr2-rcr2-esr29.exr,ReadingArea_rsl2-rcl44-esl100-rsm2-rcm44-esm29-rsr2-rcr2-esr29.npz,,,,,0,154,154,120,,left,green,0.77,477.6460928916931,478.07965183258057,,,3,5,6,lightness,readingArea,realistic,75,2023-03-15_13h35.03.368,tripletExp_regina_11082022,2022.2.4,120.18682912012656,
4,3,9,2,0.694444444444444,0.298245614035088,2,0.444444444444444,0.298245614035088,2,0.444444444444444,1.0,ReadingArea_rsl2-rcl69-esl29-rsm2-rcm44-esm29-rsr2-rcr44-esr100,exr/ReadingArea_rsl2-rcl69-esl29-rsm2-rcm44-esm29-rsr2-rcr44-esr100.exr,ReadingArea_rsl2-rcl69-esl29-rsm2-rcm44-esm29-rsr2-rcr44-esr100.npz,,,,,0,155,155,451,,left,green,0.99,479.8010518550873,480.2752048969269,,,3,5,6,lightness,readingArea,realistic,75,2023-03-15_13h35.03.368,tripletExp_regina_11082022,2022.2.4,120.18682912012656,
6,5,11,2,0.027777777777778,1.0,2,1.0,0.298245614035088,2,1.0,1.0,ReadingArea_rsl2-rcl2-esl100-rsm2-rcm100-esm29-rsr2-rcr100-esr100,exr/ReadingArea_rsl2-rcl2-esl100-rsm2-rcm100-esm29-rsr2-rcr100-esr100.exr,ReadingArea_rsl2-rcl2-esl100-rsm2-rcm100-esm29-rsr2-rcr100-esr100.npz,,,,,0,156,156,289,,right,red,0.98,481.99652886390686,482.4292459487915,,,3,5,6,lightness,readingArea,realistic,75,2023-03-15_13h35.03.368,tripletExp_regina_11082022,2022.2.4,120.18682912012656,
14,8,9,2,0.25,3.10526315789474,2,0.25,1.0,2,0.444444444444444,1.0,ReadingArea_rsl2-rcl25-esl310-rsm2-rcm25-esm100-rsr2-rcr44-esr100,exr/ReadingArea_rsl2-rcl25-esl310-rsm2-rcm25-esm100-rsr2-rcr44-esr100.exr,ReadingArea_rsl2-rcl25-esl310-rsm2-rcm25-esm100-rsr2-rcr44-esr100.npz,,,,,0,157,157,518,,right,red,1.03,484.1485998630524,484.58981680870056,,,3,5,6,lightness,readingArea,realistic,75,2023-03-15_13h35.03.368,tripletExp_regina_11082022,2022.2.4,120.18682912012656,
7,12,3,2,0.111111111111111,1.0,2,0.027777777777778,3.10526315789474,2,0.444444444444444,0.298245614035088,ReadingArea_rsl2-rcl11-esl100-rsm2-rcm2-esm310-rsr2-rcr44-esr29,exr/ReadingArea_rsl2-rcl11-esl100-rsm2-rcm2-esm310-rsr2-rcr44-esr29.exr,ReadingArea_rsl2-rcl11-esl100-rsm2-rcm2-esm310-rsr2-rcr44-esr29.npz,,,,,0,158,158,584,,left,green,1.19,486.3123438358307,486.7908668518066,,,3,5,6,lightness,readingArea,realistic,75,2023-03-15_13h35.03.368,tripletExp_regina_11082022,2022.2.4,120.18682912012656,
12,3,11,2,0.027777777777778,3.10526315789474,2,0.444444444444444,0.298245614035088,2,1.0,1.0,ReadingArea_rsl2-rcl2-esl310-rsm2-rcm44-esm29-rsr2-rcr100-esr100,exr/ReadingArea_rsl2-rcl2-esl310-rsm2-rcm44-esm29-rsr2-rcr100-esr100.exr,ReadingArea_rsl2-rcl2-esl310-rsm2-rcm44-esm29-rsr2-rcr100-esr100.npz,,,,,0,159,159,83,,left,green,1.21,488.4894549846649,488.9347050189972,,,3,5,6,lightness,readingArea,realistic,75,2023-03-15_13h35.03.368,tripletExp_regina_11082022,2022.2.4,120.18682912012656,
14,7,1,2,0.25,3.10526315789474,2,0.111111111111111,1.0,2,0.111111111111111,0.298245614035088,ReadingArea_rsl2-rcl25-esl310-rsm2-rcm11-esm100-rsr2-rcr11-esr29,exr/ReadingArea_rsl2-rcl25-esl310-rsm2-rcm11-esm100-rsr2-rcr11-esr29.exr,ReadingArea_rsl2-rcl25-esl310-rsm2-rcm11-esm100-rsr2-rcr11-esr29.npz,,,,,0,160,160,298,,right,red,0.96,490.6256659030914,491.0342218875885,,,3,5,6,lightness,readingArea,realistic,75,2023-03-15_13h35.03.368,tripletExp_regina_11082022,2022.2.4,120.18682912012656,
10,14,4,2,0.694444444444444,1.0,2,0.25,3.10526315789474,2,0.694444444444444,0.298245614035088,ReadingArea_rsl2-rcl69-esl100-rsm2-rcm25-esm310-rsr2-rcr69-esr29,exr/ReadingArea_rsl2-rcl69-esl100-rsm2-rcm25-esm310-rsr2-rcr69-esr29.exr,ReadingArea_rsl2-rcl69-esl100-rsm2-rcm25-esm310-rsr2-rcr69-esr29.npz,,,,,0,161,161,267,,right,red,1.48,492.7256259918213,493.19217896461487,,,3,5,6,lightness,readingArea,realistic,75,2023-03-15_13h35.03.368,tripletExp_regina_11082022,2022.2.4,120.18682912012656,
13,3,12,2,0.111111111111111,3.10526315789474,2,0.444444444444444,0.298245614035088,2,0.027777777777778,3.10526315789474,ReadingArea_rsl2-rcl11-esl310-rsm2-rcm44-esm29-rsr2-rcr2-esr310,exr/ReadingArea_rsl2-rcl11-esl310-rsm2-rcm44-esm29-rsr2-rcr2-esr310.exr,ReadingArea_rsl2-rcl11-esl310-rsm2-rcm44-esm29-rsr2-rcr2-esr310.npz,,,,,0,162,162,80,,left,green,1.15,494.8808779716492,495.3327739238739,,,3,5,6,lightness,readingArea,realistic,75,2023-03-15_13h35.03.368,tripletExp_regina_11082022,2022.2.4,120.18682912012656,
9,8,0,2,0.444444444444444,1.0,2,0.25,1.0,2,0.027777777777778,0.298245614035088,ReadingArea_rsl2-rcl44-esl100-rsm2-rcm25-esm100-rsr2-rcr2-esr29,exr/ReadingArea_rsl2-rcl44-esl100-rsm2-rcm25-esm100-rsr2-rcr2-esr29.exr,ReadingArea_rsl2-rcl44-esl100-rsm2-rcm25-esm100-rsr2-rcr2-esr29.npz,,,,,0,163,163,66,,left,green,0.88,497.0559628009796,497.4934458732605,,,3,5,6,lightness,readingArea,realistic,75,2023-03-15_13h35.03.368,tripletExp_regina_11082022,2022.2.4,120.18682912012656,
13,10,9,2,0.111111111111111,3.10526315789474,2,0.694444444444444,1.0,2,0.444444444444444,1.0,ReadingArea_rsl2-rcl11-esl310-rsm2-rcm69-esm100-rsr2-rcr44-esr100,exr/ReadingArea_rsl2-rcl11-esl310-rsm2-rcm69-esm100-rsr2-rcr44-esr100.exr,ReadingArea_rsl2-rcl11-esl310-rsm2-rcm69-esm100-rsr2-rcr44-esr100.npz,,,,,0,164,164,330,,right,red,1.02,499.1815659999848,499.6199488639832,,,3,5,6,lightness,readingArea,realistic,75,2023-03-15_13h35.03.368,tripletExp_regina_11082022,2022.2.4,120.18682912012656,
6,10,11,2,0.027777777777778,1.0,2,0.694444444444444,1.0,2,1.0,1.0,ReadingArea_rsl2-rcl2-esl100-rsm2-rcm69-esm100-rsr2-rcr100-esr100,exr/ReadingArea_rsl2-rcl2-esl100-rsm2-rcm69-esm100-rsr2-rcr100-esr100.exr,ReadingArea_rsl2-rcl2-esl100-rsm2-rcm69-esm100-rsr2-rcr100-esr100.npz,,,,,0,165,165,116,,right,red,0.67,501.3377878665924,501.7751498222351,,,3,5,6,lightness,readingArea,realistic,75,2023-03-15_13h35.03.368,tripletExp_regina_11082022,2022.2.4,120.18682912012656,
13,14,7,2,0.111111111111111,3.10526315789474,2,0.25,3.10526315789474,2,0.111111111111111,1.0,ReadingArea_rsl2-rcl11-esl310-rsm2-rcm25-esm310-rsr2-rcr11-esr100,exr/ReadingArea_rsl2-rcl11-esl310-rsm2-rcm25-esm310-rsr2-rcr11-esr100.exr,ReadingArea_rsl2-rcl11-esl310-rsm2-rcm25-esm310-rsr2-rcr11-esr100.npz,,,,,0,166,166,324,,left,green,1.16,503.461886882782,,,,3,5,6,lightness,readingArea,realistic,75,2023-03-15_13h35.03.368,tripletExp_regina_11082022,2022.2.4,120.18682912012656,
9,12,11,2,0.444444444444444,1.0,2,0.027777777777778,3.10526315789474,2,1.0,1.0,ReadingArea_rsl2-rcl44-esl100-rsm2-rcm2-esm310-rsr2-rcr100-esr100,exr/ReadingArea_rsl2-rcl44-esl100-rsm2-rcm2-esm310-rsr2-rcr100-esr100.exr,ReadingArea_rsl2-rcl44-esl100-rsm2-rcm2-esm310-rsr2-rcr100-esr100.npz,,,,,0,167,167,144,,left,green,1.19,505.6171128749848,506.0756080150604,,,3,5,6,lightness,readingArea,realistic,75,2023-03-15_13h35.03.368,tripletExp_regina_11082022,2022.2.4,120.18682912012656,
13,8,0,2,0.111111111111111,3.10526315789474,2,0.25,1.0,2,0.027777777777778,0.298245614035088,ReadingArea_rsl2-rcl11-esl310-rsm2-rcm25-esm100-rsr2-rcr2-esr29,exr/ReadingArea_rsl2-rcl11-esl310-rsm2-rcm25-esm100-rsr2-rcr2-esr29.exr,ReadingArea_rsl2-rcl11-esl310-rsm2-rcm25-esm100-rsr2-rcr2-esr29.npz,,,,,0,168,168,429,,left,green,0.76,507.7675738334656,508.1959438323975,,,3,5,6,lightness,readingArea,realistic,75,2023-03-15_13h35.03.368,tripletExp_regina_11082022,2022.2.4,120.18682912012656,
11,14,9,2,1.0,1.0,2,0.25,3.10526315789474,2,0.444444444444444,1.0,ReadingArea_rsl2-rcl100-esl100-rsm2-rcm25-esm310-rsr2-rcr44-esr100,exr/ReadingArea_rsl2-rcl100-esl100-rsm2-rcm25-esm310-rsr2-rcr44-esr100.exr,ReadingArea_rsl2-rcl100-esl100-rsm2-rcm25-esm310-rsr2-rcr44-esr100.npz,,,,,0,169,169,43,,right,red,1.07,509.9187579154968,510.377779006958,,,3,5,6,lightness,readingArea,realistic,75,2023-03-15_13h35.03.368,tripletExp_regina_11082022,2022.2.4,120.18682912012656,
14,13,2,2,0.25,3.10526315789474,2,0.111111111111111,3.10526315789474,2,0.25,0.298245614035088,ReadingArea_rsl2-rcl25-esl310-rsm2-rcm11-esm310-rsr2-rcr25-esr29,exr/ReadingArea_rsl2-rcl25-esl310-rsm2-rcm11-esm310-rsr2-rcr25-esr29.exr,ReadingArea_rsl2-rcl25-esl310-rsm2-rcm11-esm310-rsr2-rcr25-esr29.npz,,,,,0,170,170,377,,right,red,0.79,512.095734834671,512.5136790275574,,,3,5,6,lightness,readingArea,realistic,75,2023-03-15_13h35.03.368,tripletExp_regina_11082022,2022.2.4,120.18682912012656,
12,9,13,2,0.027777777777778,3.10526315789474,2,0.444444444444444,1.0,2,0.111111111111111,3.10526315789474,ReadingArea_rsl2-rcl2-esl310-rsm2-rcm44-esm100-rsr2-rcr11-esr310,exr/ReadingArea_rsl2-rcl2-esl310-rsm2-rcm44-esm100-rsr2-rcr11-esr310.exr,ReadingArea_rsl2-rcl2-esl310-rsm2-rcm44-esm100-rsr2-rcr11-esr310.npz,,,,,0,171,171,529,,right,red,0.75,514.2124388217926,514.6835379600525,,,3,5,6,lightness,readingArea,realistic,75,2023-03-15_13h35.03.368,tripletExp_regina_11082022,2022.2.4,120.18682912012656,
1,13,7,2,0.111111111111111,0.298245614035088,2,0.111111111111111,3.10526315789474,2,0.111111111111111,1.0,ReadingArea_rsl2-rcl11-esl29-rsm2-rcm11-esm310-rsr2-rcr11-esr100,exr/ReadingArea_rsl2-rcl11-esl29-rsm2-rcm11-esm310-rsr2-rcr11-esr100.exr,ReadingArea_rsl2-rcl11-esl29-rsm2-rcm11-esm310-rsr2-rcr11-esr100.npz,,,,,0,172,172,158,,right,red,1.21,516.3787310123444,516.8498899936676,,,3,5,6,lightness,readingArea,realistic,75,2023-03-15_13h35.03.368,tripletExp_regina_11082022,2022.2.4,120.18682912012656,
2,4,6,2,0.25,0.298245614035088,2,0.694444444444444,0.298245614035088,2,0.027777777777778,1.0,ReadingArea_rsl2-rcl25-esl29-rsm2-rcm69-esm29-rsr2-rcr2-esr100,exr/ReadingArea_rsl2-rcl25-esl29-rsm2-rcm69-esm29-rsr2-rcr2-esr100.exr,ReadingArea_rsl2-rcl25-esl29-rsm2-rcm69-esm29-rsr2-rcr2-esr100.npz,,,,,0,173,173,563,,left,green,0.81,518.5404620170593,518.996917963028,,,3,5,6,lightness,readingArea,realistic,75,2023-03-15_13h35.03.368,tripletExp_regina_11082022,2022.2.4,120.18682912012656,
3,9,0,2,0.444444444444444,0.298245614035088,2,0.444444444444444,1.0,2,0.027777777777778,0.298245614035088,ReadingArea_rsl2-rcl44-esl29-rsm2-rcm44-esm100-rsr2-rcr2-esr29,exr/ReadingArea_rsl2-rcl44-esl29-rsm2-rcm44-esm100-rsr2-rcr2-esr29.exr,ReadingArea_rsl2-rcl44-esl29-rsm2-rcm44-esm100-rsr2-rcr2-esr29.npz,,,,,0,174,174,551,,left,green,0.73,520.7204458713531,521.1599550247192,,,3,5,6,lightness,readingArea,realistic,75,2023-03-15_13h35.03.368,tripletExp_regina_11082022,2022.2.4,120.18682912012656,
0,1,6,2,0.027777777777778,0.298245614035088,2,0.111111111111111,0.298245614035088,2,0.027777777777778,1.0,ReadingArea_rsl2-rcl2-esl29-rsm2-rcm11-esm29-rsr2-rcr2-esr100,exr/ReadingArea_rsl2-rcl2-esl29-rsm2-rcm11-esm29-rsr2-rcr2-esr100.exr,ReadingArea_rsl2-rcl2-esl29-rsm2-rcm11-esm29-rsr2-rcr2-esr100.npz,,,,,0,175,175,375,,right,red,1.49,522.8499248027802,523.326504945755,,,3,5,6,lightness,readingArea,realistic,75,2023-03-15_13h35.03.368,tripletExp_regina_11082022,2022.2.4,120.18682912012656,
2,1,12,2,0.25,0.298245614035088,2,0.111111111111111,0.298245614035088,2,0.027777777777778,3.10526315789474,ReadingArea_rsl2-rcl25-esl29-rsm2-rcm11-esm29-rsr2-rcr2-esr310,exr/ReadingArea_rsl2-rcl25-esl29-rsm2-rcm11-esm29-rsr2-rcr2-esr310.exr,ReadingArea_rsl2-rcl25-esl29-rsm2-rcm11-esm29-rsr2-rcr2-esr310.npz,,,,,0,176,176,12,,right,red,0.97,525.0493729114532,525.5296700000763,,,3,5,6,lightness,readingArea,realistic,75,2023-03-15_13h35.03.368,tripletExp_regina_11082022,2022.2.4,120.18682912012656,
0,9,10,2,0.027777777777778,0.298245614035088,2,0.444444444444444,1.0,2,0.694444444444444,1.0,ReadingArea_rsl2-rcl2-esl29-rsm2-rcm44-esm100-rsr2-rcr69-esr100,exr/ReadingArea_rsl2-rcl2-esl29-rsm2-rcm44-esm100-rsr2-rcr69-esr100.exr,ReadingArea_rsl2-rcl2-esl29-rsm2-rcm44-esm100-rsr2-rcr69-esr100.npz,,,,,0,177,177,434,,right,red,0.7,527.2184829711914,527.6683828830719,,,3,5,6,lightness,readingArea,realistic,75,2023-03-15_13h35.03.368,tripletExp_regina_11082022,2022.2.4,120.18682912012656,
12,6,3,2,0.027777777777778,3.10526315789474,2,0.027777777777778,1.0,2,0.444444444444444,0.298245614035088,ReadingArea_rsl2-rcl2-esl310-rsm2-rcm2-esm100-rsr2-rcr44-esr29,exr/ReadingArea_rsl2-rcl2-esl310-rsm2-rcm2-esm100-rsr2-rcr44-esr29.exr,ReadingArea_rsl2-rcl2-esl310-rsm2-rcm2-esm100-rsr2-rcr44-esr29.npz,,,,,0,178,178,139,,left,green,1.05,529.3842217922211,529.8354299068451,,,3,5,6,lightness,readingArea,realistic,75,2023-03-15_13h35.03.368,tripletExp_regina_11082022,2022.2.4,120.18682912012656,
0,9,6,2,0.027777777777778,0.298245614035088,2,0.444444444444444,1.0,2,0.027777777777778,1.0,ReadingArea_rsl2-rcl2-esl29-rsm2-rcm44-esm100-rsr2-rcr2-esr100,exr/ReadingArea_rsl2-rcl2-esl29-rsm2-rcm44-esm100-rsr2-rcr2-esr100.exr,ReadingArea_rsl2-rcl2-esl29-rsm2-rcm44-esm100-rsr2-rcr2-esr100.npz,,,,,0,179,179,365,,right,red,1.3,531.5421059131622,531.9868369102478,,,3,5,6,lightness,readingArea,realistic,75,2023-03-15_13h35.03.368,tripletExp_regina_11082022,2022.2.4,120.18682912012656,
2,4,13,2,0.25,0.298245614035088,2,0.694444444444444,0.298245614035088,2,0.111111111111111,3.10526315789474,ReadingArea_rsl2-rcl25-esl29-rsm2-rcm69-esm29-rsr2-rcr11-esr310,exr/ReadingArea_rsl2-rcl25-esl29-rsm2-rcm69-esm29-rsr2-rcr11-esr310.exr,ReadingArea_rsl2-rcl25-esl29-rsm2-rcm69-esm29-rsr2-rcr11-esr310.npz,,,,,0,180,180,325,,left,green,1.24,533.6790788173676,534.1498739719391,,,3,5,6,lightness,readingArea,realistic,75,2023-03-15_13h35.03.368,tripletExp_regina_11082022,2022.2.4,120.18682912012656,
1,14,8,2,0.111111111111111,0.298245614035088,2,0.25,3.10526315789474,2,0.25,1.0,ReadingArea_rsl2-rcl11-esl29-rsm2-rcm25-esm310-rsr2-rcr25-esr100,exr/ReadingArea_rsl2-rcl11-esl29-rsm2-rcm25-esm310-rsr2-rcr25-esr100.exr,ReadingArea_rsl2-rcl11-esl29-rsm2-rcm25-esm310-rsr2-rcr25-esr100.npz,,,,,0,181,181,108,,right,red,1.13,535.8530008792877,536.276566028595,,,3,5,6,lightness,readingArea,realistic,75,2023-03-15_13h35.03.368,tripletExp_regina_11082022,2022.2.4,120.18682912012656,
2,1,6,2,0.25,0.298245614035088,2,0.111111111111111,0.298245614035088,2,0.027777777777778,1.0,ReadingArea_rsl2-rcl25-esl29-rsm2-rcm11-esm29-rsr2-rcr2-esr100,exr/ReadingArea_rsl2-rcl25-esl29-rsm2-rcm11-esm29-rsr2-rcr2-esr100.exr,ReadingArea_rsl2-rcl25-esl29-rsm2-rcm11-esm29-rsr2-rcr2-esr100.npz,,,,,0,182,182,171,,left,green,0.97,537.986888885498,538.4150829315186,,,3,5,6,lightness,readingArea,realistic,75,2023-03-15_13h35.03.368,tripletExp_regina_11082022,2022.2.4,120.18682912012656,
2,14,9,2,0.25,0.298245614035088,2,0.25,3.10526315789474,2,0.444444444444444,1.0,ReadingArea_rsl2-rcl25-esl29-rsm2-rcm25-esm310-rsr2-rcr44-esr100,exr/ReadingArea_rsl2-rcl25-esl29-rsm2-rcm25-esm310-rsr2-rcr44-esr100.exr,ReadingArea_rsl2-rcl25-esl29-rsm2-rcm25-esm310-rsr2-rcr44-esr100.npz,,,,,0,183,183,51,,right,red,1.15,540.1174449920654,,,,3,5,6,lightness,readingArea,realistic,75,2023-03-15_13h35.03.368,tripletExp_regina_11082022,2022.2.4,120.18682912012656,
10,9,6,2,0.694444444444444,1.0,2,0.444444444444444,1.0,2,0.027777777777778,1.0,ReadingArea_rsl2-rcl69-esl100-rsm2-rcm44-esm100-rsr2-rcr2-esr100,exr/ReadingArea_rsl2-rcl69-esl100-rsm2-rcm44-esm100-rsr2-rcr2-esr100.exr,ReadingArea_rsl2-rcl69-esl100-rsm2-rcm44-esm100-rsr2-rcr2-esr100.npz,,,,,0,184,184,35,,left,green,0.76,542.2852468490601,542.7215688228607,,,3,5,6,lightness,readingArea,realistic,75,2023-03-15_13h35.03.368,tripletExp_regina_11082022,2022.2.4,120.18682912012656,
13,0,10,2,0.111111111111111,3.10526315789474,2,0.027777777777778,0.298245614035088,2,0.694444444444444,1.0,ReadingArea_rsl2-rcl11-esl310-rsm2-rcm2-esm29-rsr2-rcr69-esr100,exr/ReadingArea_rsl2-rcl11-esl310-rsm2-rcm2-esm29-rsr2-rcr69-esr100.exr,ReadingArea_rsl2-rcl11-esl310-rsm2-rcm2-esm29-rsr2-rcr69-esr100.npz,,,,,0,185,185,505,,left,green,1.13,544.4268269538879,,,,3,5,6,lightness,readingArea,realistic,75,2023-03-15_13h35.03.368,tripletExp_regina_11082022,2022.2.4,120.18682912012656,
4,1,3,2,0.694444444444444,0.298245614035088,2,0.111111111111111,0.298245614035088,2,0.444444444444444,0.298245614035088,ReadingArea_rsl2-rcl69-esl29-rsm2-rcm11-esm29-rsr2-rcr44-esr29,exr/ReadingArea_rsl2-rcl69-esl29-rsm2-rcm11-esm29-rsr2-rcr44-esr29.exr,ReadingArea_rsl2-rcl69-esl29-rsm2-rcm11-esm29-rsr2-rcr44-esr29.npz,,,,,0,186,186,70,,right,red,1.31,546.6237008571625,547.1064929962158,,,3,5,6,lightness,readingArea,realistic,75,2023-03-15_13h35.03.368,tripletExp_regina_11082022,2022.2.4,120.18682912012656,
2,3,9,2,0.25,0.298245614035088,2,0.444444444444444,0.298245614035088,2,0.444444444444444,1.0,ReadingArea_rsl2-rcl25-esl29-rsm2-rcm44-esm29-rsr2-rcr44-esr100,exr/ReadingArea_rsl2-rcl25-esl29-rsm2-rcm44-esm29-rsr2-rcr44-esr100.exr,ReadingArea_rsl2-rcl25-esl29-rsm2-rcm44-esm29-rsr2-rcr44-esr100.npz,,,,,0,187,187,190,,left,green,1.02,548.825553894043,549.2112758159637,,,3,5,6,lightness,readingArea,realistic,75,2023-03-15_13h35.03.368,tripletExp_regina_11082022,2022.2.4,120.18682912012656,
10,5,2,2,0.694444444444444,1.0,2,1.0,0.298245614035088,2,0.25,0.298245614035088,ReadingArea_rsl2-rcl69-esl100-rsm2-rcm100-esm29-rsr2-rcr25-esr29,exr/ReadingArea_rsl2-rcl69-esl100-rsm2-rcm100-esm29-rsr2-rcr25-esr29.exr,ReadingArea_rsl2-rcl69-esl100-rsm2-rcm100-esm29-rsr2-rcr25-esr29.npz,,,,,0,188,188,299,,left,green,0.74,550.9321858882904,551.3788177967072,,,3,5,6,lightness,readingArea,realistic,75,2023-03-15_13h35.03.368,tripletExp_regina_11082022,2022.2.4,120.18682912012656,
8,1,9,2,0.25,1.0,2,0.111111111111111,0.298245614035088,2,0.444444444444444,1.0,ReadingArea_rsl2-rcl25-esl100-rsm2-rcm11-esm29-rsr2-rcr44-esr100,exr/ReadingArea_rsl2-rcl25-esl100-rsm2-rcm11-esm29-rsr2-rcr44-esr100.exr,ReadingArea_rsl2-rcl25-esl100-rsm2-rcm11-esm29-rsr2-rcr44-esr100.npz,,,,,0,189,189,432,,left,green,0.89,553.0971348285675,553.5533759593964,,,3,5,6,lightness,readingArea,realistic,75,2023-03-15_13h35.03.368,tripletExp_regina_11082022,2022.2.4,120.18682912012656,
7,9,5,2,0.111111111111111,1.0,2,0.444444444444444,1.0,2,1.0,0.298245614035088,ReadingArea_rsl2-rcl11-esl100-rsm2-rcm44-esm100-rsr2-rcr100-esr29,exr/ReadingArea_rsl2-rcl11-esl100-rsm2-rcm44-esm100-rsr2-rcr100-esr29.exr,ReadingArea_rsl2-rcl11-esl100-rsm2-rcm44-esm100-rsr2-rcr100-esr29.npz,,,,,0,190,190,291,,left,green,1.24,555.2447409629822,,,,3,5,6,lightness,readingArea,realistic,75,2023-03-15_13h35.03.368,tripletExp_regina_11082022,2022.2.4,120.18682912012656,
9,0,14,2,0.444444444444444,1.0,2,0.027777777777778,0.298245614035088,2,0.25,3.10526315789474,ReadingArea_rsl2-rcl44-esl100-rsm2-rcm2-esm29-rsr2-rcr25-esr310,exr/ReadingArea_rsl2-rcl44-esl100-rsm2-rcm2-esm29-rsr2-rcr25-esr310.exr,ReadingArea_rsl2-rcl44-esl100-rsm2-rcm2-esm29-rsr2-rcr25-esr310.npz,,,,,0,191,191,550,,left,green,1.14,557.3933279514313,557.8518579006195,,,3,5,6,lightness,readingArea,realistic,75,2023-03-15_13h35.03.368,tripletExp_regina_11082022,2022.2.4,120.18682912012656,
14,6,2,2,0.25,3.10526315789474,2,0.027777777777778,1.0,2,0.25,0.298245614035088,ReadingArea_rsl2-rcl25-esl310-rsm2-rcm2-esm100-rsr2-rcr25-esr29,exr/ReadingArea_rsl2-rcl25-esl310-rsm2-rcm2-esm100-rsr2-rcr25-esr29.exr,ReadingArea_rsl2-rcl25-esl310-rsm2-rcm2-esm100-rsr2-rcr25-esr29.npz,,,,,0,192,192,272,,right,red,0.94,559.5766408443451,560.040796995163,,,3,5,6,lightness,readingArea,realistic,75,2023-03-15_13h35.03.368,tripletExp_regina_11082022,2022.2.4,120.18682912012656,
4,8,7,2,0.694444444444444,0.298245614035088,2,0.25,1.0,2,0.111111111111111,1.0,ReadingArea_rsl2-rcl69-esl29-rsm2-rcm25-esm100-rsr2-rcr11-esr100,exr/ReadingArea_rsl2-rcl69-esl29-rsm2-rcm25-esm100-rsr2-rcr11-esr100.exr,ReadingArea_rsl2-rcl69-esl29-rsm2-rcm25-esm100-rsr2-rcr11-esr100.npz,,,,,0,193,193,461,,right,red,1.17,561.7294359207153,,,,3,5,6,lightness,readingArea,realistic,75,2023-03-15_13h35.03.368,tripletExp_regina_11082022,2022.2.4,120.18682912012656,
9,4,14,2,0.444444444444444,1.0,2,0.694444444444444,0.298245614035088,2,0.25,3.10526315789474,ReadingArea_rsl2-rcl44-esl100-rsm2-rcm69-esm29-rsr2-rcr25-esr310,exr/ReadingArea_rsl2-rcl44-esl100-rsm2-rcm69-esm29-rsr2-rcr25-esr310.exr,ReadingArea_rsl2-rcl44-esl100-rsm2-rcm69-esm29-rsr2-rcr25-esr310.npz,,,,,0,194,194,104,,left,green,1.15,563.9018738269806,564.3423159122467,,,3,5,6,lightness,readingArea,realistic,75,2023-03-15_13h35.03.368,tripletExp_regina_11082022,2022.2.4,120.18682912012656,
0,2,1,2,0.027777777777778,0.298245614035088,2,0.25,0.298245614035088,2,0.111111111111111,0.298245614035088,ReadingArea_rsl2-rcl2-esl29-rsm2-rcm25-esm29-rsr2-rcr11-esr29,exr/ReadingArea_rsl2-rcl2-esl29-rsm2-rcm25-esm29-rsr2-rcr11-esr29.exr,ReadingArea_rsl2-rcl2-esl29-rsm2-rcm25-esm29-rsr2-rcr11-esr29.npz,,,,,0,195,195,527,,right,red,0.8,566.0348978042603,566.4941608905792,,,3,5,6,lightness,readingArea,realistic,75,2023-03-15_13h35.03.368,tripletExp_regina_11082022,2022.2.4,120.18682912012656,
6,4,0,2,0.027777777777778,1.0,2,0.694444444444444,0.298245614035088,2,0.027777777777778,0.298245614035088,ReadingArea_rsl2-rcl2-esl100-rsm2-rcm69-esm29-rsr2-rcr2-esr29,exr/ReadingArea_rsl2-rcl2-esl100-rsm2-rcm69-esm29-rsr2-rcr2-esr29.exr,ReadingArea_rsl2-rcl2-esl100-rsm2-rcm69-esm29-rsr2-rcr2-esr29.npz,,,,,0,196,196,360,,left,green,0.98,568.1976737976074,568.6186149120331,,,3,5,6,lightness,readingArea,realistic,75,2023-03-15_13h35.03.368,tripletExp_regina_11082022,2022.2.4,120.18682912012656,
7,12,0,2,0.111111111111111,1.0,2,0.027777777777778,3.10526315789474,2,0.027777777777778,0.298245614035088,ReadingArea_rsl2-rcl11-esl100-rsm2-rcm2-esm310-rsr2-rcr2-esr29,exr/ReadingArea_rsl2-rcl11-esl100-rsm2-rcm2-esm310-rsr2-rcr2-esr29.exr,ReadingArea_rsl2-rcl11-esl100-rsm2-rcm2-esm310-rsr2-rcr2-esr29.npz,,,,,0,197,197,425,,right,red,1.48,570.3419368267059,570.8219728469849,,,3,5,6,lightness,readingArea,realistic,75,2023-03-15_13h35.03.368,tripletExp_regina_11082022,2022.2.4,120.18682912012656,
5,13,12,2,1.0,0.298245614035088,2,0.111111111111111,3.10526315789474,2,0.027777777777778,3.10526315789474,ReadingArea_rsl2-rcl100-esl29-rsm2-rcm11-esm310-rsr2-rcr2-esr310,exr/ReadingArea_rsl2-rcl100-esl29-rsm2-rcm11-esm310-rsr2-rcr2-esr310.exr,ReadingArea_rsl2-rcl100-esl29-rsm2-rcm11-esm310-rsr2-rcr2-esr310.npz,,,,,0,198,198,389,,right,red,1.33,572.5251469612122,572.9649088382721,,,3,5,6,lightness,readingArea,realistic,75,2023-03-15_13h35.03.368,tripletExp_regina_11082022,2022.2.4,120.18682912012656,
0,14,6,2,0.027777777777778,0.298245614035088,2,0.25,3.10526315789474,2,0.027777777777778,1.0,ReadingArea_rsl2-rcl2-esl29-rsm2-rcm25-esm310-rsr2-rcr2-esr100,exr/ReadingArea_rsl2-rcl2-esl29-rsm2-rcm25-esm310-rsr2-rcr2-esr100.exr,ReadingArea_rsl2-rcl2-esl29-rsm2-rcm25-esm310-rsr2-rcr2-esr100.npz,,,,,0,199,199,499,,right,red,1.28,574.6742408275604,575.1064829826355,,,3,5,6,lightness,readingArea,realistic,75,2023-03-15_13h35.03.368,tripletExp_regina_11082022,2022.2.4,120.18682912012656,
2,14,7,2,0.25,0.298245614035088,2,0.25,3.10526315789474,2,0.111111111111111,1.0,ReadingArea_rsl2-rcl25-esl29-rsm2-rcm25-esm310-rsr2-rcr11-esr100,exr/ReadingArea_rsl2-rcl25-esl29-rsm2-rcm25-esm310-rsr2-rcr11-esr100.exr,ReadingArea_rsl2-rcl25-esl29-rsm2-rcm25-esm310-rsr2-rcr11-esr100.npz,,,,,0,200,200,310,,left,green,1.37,576.8170869350433,577.2841098308563,,,3,5,6,lightness,readingArea,realistic,75,2023-03-15_13h35.03.368,tripletExp_regina_11082022,2022.2.4,120.18682912012656,
14,9,12,2,0.25,3.10526315789474,2,0.444444444444444,1.0,2,0.027777777777778,3.10526315789474,ReadingArea_rsl2-rcl25-esl310-rsm2-rcm44-esm100-rsr2-rcr2-esr310,exr/ReadingArea_rsl2-rcl25-esl310-rsm2-rcm44-esm100-rsr2-rcr2-esr310.exr,ReadingArea_rsl2-rcl25-esl310-rsm2-rcm44-esm100-rsr2-rcr2-esr310.npz,,,,,0,201,201,378,,left,green,1.21,578.9799728393555,579.415638923645,,,3,5,6,lightness,readingArea,realistic,75,2023-03-15_13h35.03.368,tripletExp_regina_11082022,2022.2.4,120.18682912012656,
10,12,9,2,0.694444444444444,1.0,2,0.027777777777778,3.10526315789474,2,0.444444444444444,1.0,ReadingArea_rsl2-rcl69-esl100-rsm2-rcm2-esm310-rsr2-rcr44-esr100,exr/ReadingArea_rsl2-rcl69-esl100-rsm2-rcm2-esm310-rsr2-rcr44-esr100.exr,ReadingArea_rsl2-rcl69-esl100-rsm2-rcm2-esm310-rsr2-rcr44-esr100.npz,,,,,0,202,202,405,,right,red,1.17,581.106752872467,581.5497689247131,,,3,5,6,lightness,readingArea,realistic,75,2023-03-15_13h35.03.368,tripletExp_regina_11082022,2022.2.4,120.18682912012656,
