index_left,index_middle,index_right,reflectance_surround_left,reflectance_center_left,emission_spot_left,reflectance_surround_middle,reflectance_center_middle,emission_spot_middle,reflectance_surround_right,reflectance_center_right,emission_spot_right,ImageName,ImageExr,ImageNpy,trials_2.thisRepN,trials_2.thisTrialN,trials_2.thisN,trials_2.thisIndex,trials.thisRepN,trials.thisTrialN,trials.thisN,trials.thisIndex,sound_1.started,BB_Trial.resp,BB_Trial.color,BB_Trial.rt,text.started,text.stopped,sound_2.started,sound_1.stopped,block,sound_4.started,participant,session,L/B,scene,condition,nTrialsPerBlock,date,expName,psychopyVersion,frameRate,Unnamed: 43
6,2,5,0,0.027777777777778,1.0,0,0.25,0.298245614035088,0,1.0,0.298245614035088,ReadingArea_rsl0-rcl2-esl100-rsm0-rcm25-esm29-rsr0-rcr100-esr29,exr/ReadingArea_rsl0-rcl2-esl100-rsm0-rcm25-esm29-rsr0-rcr100-esr29.exr,ReadingArea_rsl0-rcl2-esl100-rsm0-rcm25-esm29-rsr0-rcr100-esr29.npz,,,,,0,0,0,504,303.5944983959198,right,red,1.48,337.69672203063965,338.13988304138184,248.340880393982,279.7744419574737,1,,8,1,lightness,readingArea,realistic,75,2023-03-28_13h31.23.437,tripletExp_regina_11082022,2022.2.4,119.19361164000114,
14,2,8,0,0.25,3.10526315789474,0,0.25,0.298245614035088,0,0.25,1.0,ReadingArea_rsl0-rcl25-esl310-rsm0-rcm25-esm29-rsr0-rcr25-esr100,exr/ReadingArea_rsl0-rcl25-esl310-rsm0-rcm25-esm29-rsr0-rcr25-esr100.exr,ReadingArea_rsl0-rcl25-esl310-rsm0-rcm25-esm29-rsr0-rcr25-esr100.npz,,,,,0,1,1,212,,right,red,0.73,339.8584361076355,,,,1,,8,1,lightness,readingArea,realistic,75,2023-03-28_13h31.23.437,tripletExp_regina_11082022,2022.2.4,119.19361164000114,
2,0,13,0,0.25,0.298245614035088,0,0.027777777777778,0.298245614035088,0,0.111111111111111,3.10526315789474,ReadingArea_rsl0-rcl25-esl29-rsm0-rcm2-esm29-rsr0-rcr11-esr310,exr/ReadingArea_rsl0-rcl25-esl29-rsm0-rcm2-esm29-rsr0-rcr11-esr310.exr,ReadingArea_rsl0-rcl25-esl29-rsm0-rcm2-esm29-rsr0-rcr11-esr310.npz,,,,,0,2,2,50,,left,green,2.96,357.6836931705475,358.132719039917,,,1,,8,1,lightness,readingArea,realistic,75,2023-03-28_13h31.23.437,tripletExp_regina_11082022,2022.2.4,119.19361164000114,
4,7,10,0,0.694444444444444,0.298245614035088,0,0.111111111111111,1.0,0,0.694444444444444,1.0,ReadingArea_rsl0-rcl69-esl29-rsm0-rcm11-esm100-rsr0-rcr69-esr100,exr/ReadingArea_rsl0-rcl69-esl29-rsm0-rcm11-esm100-rsr0-rcr69-esr100.exr,ReadingArea_rsl0-rcl69-esl29-rsm0-rcm11-esm100-rsr0-rcr69-esr100.npz,,,,,0,3,3,8,,left,green,2.41,361.5997140407562,362.0545070171356,,,1,,8,1,lightness,readingArea,realistic,75,2023-03-28_13h31.23.437,tripletExp_regina_11082022,2022.2.4,119.19361164000114,
12,9,11,0,0.027777777777778,3.10526315789474,0,0.444444444444444,1.0,0,1.0,1.0,ReadingArea_rsl0-rcl2-esl310-rsm0-rcm44-esm100-rsr0-rcr100-esr100,exr/ReadingArea_rsl0-rcl2-esl310-rsm0-rcm44-esm100-rsr0-rcr100-esr100.exr,ReadingArea_rsl0-rcl2-esl310-rsm0-rcm44-esm100-rsr0-rcr100-esr100.npz,,,,,0,4,4,18,,right,red,1.15,363.7329931259155,364.109050989151,,,1,,8,1,lightness,readingArea,realistic,75,2023-03-28_13h31.23.437,tripletExp_regina_11082022,2022.2.4,119.19361164000114,
10,14,1,0,0.694444444444444,1.0,0,0.25,3.10526315789474,0,0.111111111111111,0.298245614035088,ReadingArea_rsl0-rcl69-esl100-rsm0-rcm25-esm310-rsr0-rcr11-esr29,exr/ReadingArea_rsl0-rcl69-esl100-rsm0-rcm25-esm310-rsr0-rcr11-esr29.exr,ReadingArea_rsl0-rcl69-esl100-rsm0-rcm25-esm310-rsr0-rcr11-esr29.npz,,,,,0,5,5,544,,left,green,1.05,365.82521295547485,366.2274279594421,,,1,,8,1,lightness,readingArea,realistic,75,2023-03-28_13h31.23.437,tripletExp_regina_11082022,2022.2.4,119.19361164000114,
10,0,3,0,0.694444444444444,1.0,0,0.027777777777778,0.298245614035088,0,0.444444444444444,0.298245614035088,ReadingArea_rsl0-rcl69-esl100-rsm0-rcm2-esm29-rsr0-rcr44-esr29,exr/ReadingArea_rsl0-rcl69-esl100-rsm0-rcm2-esm29-rsr0-rcr44-esr29.exr,ReadingArea_rsl0-rcl69-esl100-rsm0-rcm2-esm29-rsr0-rcr44-esr29.npz,,,,,0,6,6,87,,right,red,1.06,367.9151401519776,368.2906939983368,,,1,,8,1,lightness,readingArea,realistic,75,2023-03-28_13h31.23.437,tripletExp_regina_11082022,2022.2.4,119.19361164000114,
2,9,10,0,0.25,0.298245614035088,0,0.444444444444444,1.0,0,0.694444444444444,1.0,ReadingArea_rsl0-rcl25-esl29-rsm0-rcm44-esm100-rsr0-rcr69-esr100,exr/ReadingArea_rsl0-rcl25-esl29-rsm0-rcm44-esm100-rsr0-rcr69-esr100.exr,ReadingArea_rsl0-rcl25-esl29-rsm0-rcm44-esm100-rsr0-rcr69-esr100.npz,,,,,0,7,7,117,,right,red,1.26,370.015055179596,370.3955919742584,,,1,,8,1,lightness,readingArea,realistic,75,2023-03-28_13h31.23.437,tripletExp_regina_11082022,2022.2.4,119.19361164000114,
3,4,0,0,0.444444444444444,0.298245614035088,0,0.694444444444444,0.298245614035088,0,0.027777777777778,0.298245614035088,ReadingArea_rsl0-rcl44-esl29-rsm0-rcm69-esm29-rsr0-rcr2-esr29,exr/ReadingArea_rsl0-rcl44-esl29-rsm0-rcm69-esm29-rsr0-rcr2-esr29.exr,ReadingArea_rsl0-rcl44-esl29-rsm0-rcm69-esm29-rsr0-rcr2-esr29.npz,,,,,0,8,8,130,,left,green,0.86,372.0945081710816,372.4711301326752,,,1,,8,1,lightness,readingArea,realistic,75,2023-03-28_13h31.23.437,tripletExp_regina_11082022,2022.2.4,119.19361164000114,
2,11,7,0,0.25,0.298245614035088,0,1.0,1.0,0,0.111111111111111,1.0,ReadingArea_rsl0-rcl25-esl29-rsm0-rcm100-esm100-rsr0-rcr11-esr100,exr/ReadingArea_rsl0-rcl25-esl29-rsm0-rcm100-esm100-rsr0-rcr11-esr100.exr,ReadingArea_rsl0-rcl25-esl29-rsm0-rcm100-esm100-rsr0-rcr11-esr100.npz,,,,,0,9,9,576,,right,red,4.09,377.7203261852264,378.2583601474762,,,1,,8,1,lightness,readingArea,realistic,75,2023-03-28_13h31.23.437,tripletExp_regina_11082022,2022.2.4,119.19361164000114,
0,10,12,0,0.027777777777778,0.298245614035088,0,0.694444444444444,1.0,0,0.027777777777778,3.10526315789474,ReadingArea_rsl0-rcl2-esl29-rsm0-rcm69-esm100-rsr0-rcr2-esr310,exr/ReadingArea_rsl0-rcl2-esl29-rsm0-rcm69-esm100-rsr0-rcr2-esr310.exr,ReadingArea_rsl0-rcl2-esl29-rsm0-rcm69-esm100-rsr0-rcr2-esr310.npz,,,,,0,10,10,531,,right,red,0.9,379.9318401813507,380.31901812553406,,,1,,8,1,lightness,readingArea,realistic,75,2023-03-28_13h31.23.437,tripletExp_regina_11082022,2022.2.4,119.19361164000114,
11,4,0,0,1.0,1.0,0,0.694444444444444,0.298245614035088,0,0.027777777777778,0.298245614035088,ReadingArea_rsl0-rcl100-esl100-rsm0-rcm69-esm29-rsr0-rcr2-esr29,exr/ReadingArea_rsl0-rcl100-esl100-rsm0-rcm69-esm29-rsr0-rcr2-esr29.exr,ReadingArea_rsl0-rcl100-esl100-rsm0-rcm69-esm29-rsr0-rcr2-esr29.npz,,,,,0,11,11,219,,left,green,0.74,382.0081479549408,382.3833260536194,,,1,,8,1,lightness,readingArea,realistic,75,2023-03-28_13h31.23.437,tripletExp_regina_11082022,2022.2.4,119.19361164000114,
2,14,8,0,0.25,0.298245614035088,0,0.25,3.10526315789474,0,0.25,1.0,ReadingArea_rsl0-rcl25-esl29-rsm0-rcm25-esm310-rsr0-rcr25-esr100,exr/ReadingArea_rsl0-rcl25-esl29-rsm0-rcm25-esm310-rsr0-rcr25-esr100.exr,ReadingArea_rsl0-rcl25-esl29-rsm0-rcm25-esm310-rsr0-rcr25-esr100.npz,,,,,0,12,12,255,,right,red,1.32,384.0819640159607,,,,1,,8,1,lightness,readingArea,realistic,75,2023-03-28_13h31.23.437,tripletExp_regina_11082022,2022.2.4,119.19361164000114,
11,9,4,0,1.0,1.0,0,0.444444444444444,1.0,0,0.694444444444444,0.298245614035088,ReadingArea_rsl0-rcl100-esl100-rsm0-rcm44-esm100-rsr0-rcr69-esr29,exr/ReadingArea_rsl0-rcl100-esl100-rsm0-rcm44-esm100-rsr0-rcr69-esr29.exr,ReadingArea_rsl0-rcl100-esl100-rsm0-rcm44-esm100-rsr0-rcr69-esr29.npz,,,,,0,13,13,26,,right,red,1.07,386.205185174942,386.59162497520447,,,1,,8,1,lightness,readingArea,realistic,75,2023-03-28_13h31.23.437,tripletExp_regina_11082022,2022.2.4,119.19361164000114,
0,5,2,0,0.027777777777778,0.298245614035088,0,1.0,0.298245614035088,0,0.25,0.298245614035088,ReadingArea_rsl0-rcl2-esl29-rsm0-rcm100-esm29-rsr0-rcr25-esr29,exr/ReadingArea_rsl0-rcl2-esl29-rsm0-rcm100-esm29-rsr0-rcr25-esr29.exr,ReadingArea_rsl0-rcl2-esl29-rsm0-rcm100-esm29-rsr0-rcr25-esr29.npz,,,,,0,14,14,25,,right,red,1.53,388.3006000518799,388.6840751171112,,,1,,8,1,lightness,readingArea,realistic,75,2023-03-28_13h31.23.437,tripletExp_regina_11082022,2022.2.4,119.19361164000114,
14,6,2,0,0.25,3.10526315789474,0,0.027777777777778,1.0,0,0.25,0.298245614035088,ReadingArea_rsl0-rcl25-esl310-rsm0-rcm2-esm100-rsr0-rcr25-esr29,exr/ReadingArea_rsl0-rcl25-esl310-rsm0-rcm2-esm100-rsr0-rcr25-esr29.exr,ReadingArea_rsl0-rcl25-esl310-rsm0-rcm2-esm100-rsr0-rcr25-esr29.npz,,,,,0,15,15,272,,right,red,2.18,392.16362500190735,392.5426721572876,,,1,,8,1,lightness,readingArea,realistic,75,2023-03-28_13h31.23.437,tripletExp_regina_11082022,2022.2.4,119.19361164000114,
7,1,9,0,0.111111111111111,1.0,0,0.111111111111111,0.298245614035088,0,0.444444444444444,1.0,ReadingArea_rsl0-rcl11-esl100-rsm0-rcm11-esm29-rsr0-rcr44-esr100,exr/ReadingArea_rsl0-rcl11-esl100-rsm0-rcm11-esm29-rsr0-rcr44-esr100.exr,ReadingArea_rsl0-rcl11-esl100-rsm0-rcm11-esm29-rsr0-rcr44-esr100.npz,,,,,0,16,16,89,,left,green,0.77,394.2500720024109,,,,1,,8,1,lightness,readingArea,realistic,75,2023-03-28_13h31.23.437,tripletExp_regina_11082022,2022.2.4,119.19361164000114,
10,4,8,0,0.694444444444444,1.0,0,0.694444444444444,0.298245614035088,0,0.25,1.0,ReadingArea_rsl0-rcl69-esl100-rsm0-rcm69-esm29-rsr0-rcr25-esr100,exr/ReadingArea_rsl0-rcl69-esl100-rsm0-rcm69-esm29-rsr0-rcr25-esr100.exr,ReadingArea_rsl0-rcl69-esl100-rsm0-rcm69-esm29-rsr0-rcr25-esr100.npz,,,,,0,17,17,562,,right,red,1.19,396.3289911746979,396.7329890727997,,,1,,8,1,lightness,readingArea,realistic,75,2023-03-28_13h31.23.437,tripletExp_regina_11082022,2022.2.4,119.19361164000114,
5,7,14,0,1.0,0.298245614035088,0,0.111111111111111,1.0,0,0.25,3.10526315789474,ReadingArea_rsl0-rcl100-esl29-rsm0-rcm11-esm100-rsr0-rcr25-esr310,exr/ReadingArea_rsl0-rcl100-esl29-rsm0-rcm11-esm100-rsr0-rcr25-esr310.exr,ReadingArea_rsl0-rcl100-esl29-rsm0-rcm11-esm100-rsr0-rcr25-esr310.npz,,,,,0,18,18,210,,left,green,1.35,398.4329490661621,398.80783700942993,,,1,,8,1,lightness,readingArea,realistic,75,2023-03-28_13h31.23.437,tripletExp_regina_11082022,2022.2.4,119.19361164000114,
9,8,0,0,0.444444444444444,1.0,0,0.25,1.0,0,0.027777777777778,0.298245614035088,ReadingArea_rsl0-rcl44-esl100-rsm0-rcm25-esm100-rsr0-rcr2-esr29,exr/ReadingArea_rsl0-rcl44-esl100-rsm0-rcm25-esm100-rsr0-rcr2-esr29.exr,ReadingArea_rsl0-rcl44-esl100-rsm0-rcm25-esm100-rsr0-rcr2-esr29.npz,,,,,0,19,19,66,,left,green,1.04,400.5139100551605,400.8887431621552,,,1,,8,1,lightness,readingArea,realistic,75,2023-03-28_13h31.23.437,tripletExp_regina_11082022,2022.2.4,119.19361164000114,
5,13,7,0,1.0,0.298245614035088,0,0.111111111111111,3.10526315789474,0,0.111111111111111,1.0,ReadingArea_rsl0-rcl100-esl29-rsm0-rcm11-esm310-rsr0-rcr11-esr100,exr/ReadingArea_rsl0-rcl100-esl29-rsm0-rcm11-esm310-rsr0-rcr11-esr100.exr,ReadingArea_rsl0-rcl100-esl29-rsm0-rcm11-esm310-rsr0-rcr11-esr100.npz,,,,,0,20,20,189,,left,green,1.03,402.5891170501709,403.1513831615448,,,1,,8,1,lightness,readingArea,realistic,75,2023-03-28_13h31.23.437,tripletExp_regina_11082022,2022.2.4,119.19361164000114,
2,13,0,0,0.25,0.298245614035088,0,0.111111111111111,3.10526315789474,0,0.027777777777778,0.298245614035088,ReadingArea_rsl0-rcl25-esl29-rsm0-rcm11-esm310-rsr0-rcr2-esr29,exr/ReadingArea_rsl0-rcl25-esl29-rsm0-rcm11-esm310-rsr0-rcr2-esr29.exr,ReadingArea_rsl0-rcl25-esl29-rsm0-rcm11-esm310-rsr0-rcr2-esr29.npz,,,,,0,21,21,454,,left,green,1.11,404.8468601703644,405.2260019779205,,,1,,8,1,lightness,readingArea,realistic,75,2023-03-28_13h31.23.437,tripletExp_regina_11082022,2022.2.4,119.19361164000114,
5,9,0,0,1.0,0.298245614035088,0,0.444444444444444,1.0,0,0.027777777777778,0.298245614035088,ReadingArea_rsl0-rcl100-esl29-rsm0-rcm44-esm100-rsr0-rcr2-esr29,exr/ReadingArea_rsl0-rcl100-esl29-rsm0-rcm44-esm100-rsr0-rcr2-esr29.exr,ReadingArea_rsl0-rcl100-esl29-rsm0-rcm44-esm100-rsr0-rcr2-esr29.npz,,,,,0,22,22,575,,left,green,0.73,406.9166960716248,407.410187959671,,,1,,8,1,lightness,readingArea,realistic,75,2023-03-28_13h31.23.437,tripletExp_regina_11082022,2022.2.4,119.19361164000114,
3,13,10,0,0.444444444444444,0.298245614035088,0,0.111111111111111,3.10526315789474,0,0.694444444444444,1.0,ReadingArea_rsl0-rcl44-esl29-rsm0-rcm11-esm310-rsr0-rcr69-esr100,exr/ReadingArea_rsl0-rcl44-esl29-rsm0-rcm11-esm310-rsr0-rcr69-esr100.exr,ReadingArea_rsl0-rcl44-esl29-rsm0-rcm11-esm310-rsr0-rcr69-esr100.npz,,,,,0,23,23,416,,left,green,2.95,410.89677000045776,411.2769570350647,,,1,,8,1,lightness,readingArea,realistic,75,2023-03-28_13h31.23.437,tripletExp_regina_11082022,2022.2.4,119.19361164000114,
7,5,1,0,0.111111111111111,1.0,0,1.0,0.298245614035088,0,0.111111111111111,0.298245614035088,ReadingArea_rsl0-rcl11-esl100-rsm0-rcm100-esm29-rsr0-rcr11-esr29,exr/ReadingArea_rsl0-rcl11-esl100-rsm0-rcm100-esm29-rsr0-rcr11-esr29.exr,ReadingArea_rsl0-rcl11-esl100-rsm0-rcm100-esm29-rsr0-rcr11-esr29.npz,,,,,0,24,24,513,,left,green,2.21,414.72198700904846,415.101861000061,,,1,,8,1,lightness,readingArea,realistic,75,2023-03-28_13h31.23.437,tripletExp_regina_11082022,2022.2.4,119.19361164000114,
7,3,5,0,0.111111111111111,1.0,0,0.444444444444444,0.298245614035088,0,1.0,0.298245614035088,ReadingArea_rsl0-rcl11-esl100-rsm0-rcm44-esm29-rsr0-rcr100-esr29,exr/ReadingArea_rsl0-rcl11-esl100-rsm0-rcm44-esm29-rsr0-rcr100-esr29.exr,ReadingArea_rsl0-rcl11-esl100-rsm0-rcm44-esm29-rsr0-rcr100-esr29.npz,,,,,0,25,25,589,,left,green,0.87,416.79693698883057,417.26272916793823,,,1,,8,1,lightness,readingArea,realistic,75,2023-03-28_13h31.23.437,tripletExp_regina_11082022,2022.2.4,119.19361164000114,
3,7,9,0,0.444444444444444,0.298245614035088,0,0.111111111111111,1.0,0,0.444444444444444,1.0,ReadingArea_rsl0-rcl44-esl29-rsm0-rcm11-esm100-rsr0-rcr44-esr100,exr/ReadingArea_rsl0-rcl44-esl29-rsm0-rcm11-esm100-rsr0-rcr44-esr100.exr,ReadingArea_rsl0-rcl44-esl29-rsm0-rcm11-esm100-rsr0-rcr44-esr100.npz,,,,,0,26,26,382,,left,green,0.87,418.9846570491791,419.4948041439056,,,1,,8,1,lightness,readingArea,realistic,75,2023-03-28_13h31.23.437,tripletExp_regina_11082022,2022.2.4,119.19361164000114,
13,14,7,0,0.111111111111111,3.10526315789474,0,0.25,3.10526315789474,0,0.111111111111111,1.0,ReadingArea_rsl0-rcl11-esl310-rsm0-rcm25-esm310-rsr0-rcr11-esr100,exr/ReadingArea_rsl0-rcl11-esl310-rsm0-rcm25-esm310-rsr0-rcr11-esr100.exr,ReadingArea_rsl0-rcl11-esl310-rsm0-rcm25-esm310-rsr0-rcr11-esr100.npz,,,,,0,27,27,324,,left,green,2.31,422.9426240921021,423.33580899238586,,,1,,8,1,lightness,readingArea,realistic,75,2023-03-28_13h31.23.437,tripletExp_regina_11082022,2022.2.4,119.19361164000114,
0,7,9,0,0.027777777777778,0.298245614035088,0,0.111111111111111,1.0,0,0.444444444444444,1.0,ReadingArea_rsl0-rcl2-esl29-rsm0-rcm11-esm100-rsr0-rcr44-esr100,exr/ReadingArea_rsl0-rcl2-esl29-rsm0-rcm11-esm100-rsr0-rcr44-esr100.exr,ReadingArea_rsl0-rcl2-esl29-rsm0-rcm11-esm100-rsr0-rcr44-esr100.npz,,,,,0,28,28,463,,right,red,4.27,428.5752911567688,428.9416971206665,,,1,,8,1,lightness,readingArea,realistic,75,2023-03-28_13h31.23.437,tripletExp_regina_11082022,2022.2.4,119.19361164000114,
1,13,8,0,0.111111111111111,0.298245614035088,0,0.111111111111111,3.10526315789474,0,0.25,1.0,ReadingArea_rsl0-rcl11-esl29-rsm0-rcm11-esm310-rsr0-rcr25-esr100,exr/ReadingArea_rsl0-rcl11-esl29-rsm0-rcm11-esm310-rsr0-rcr25-esr100.exr,ReadingArea_rsl0-rcl11-esl29-rsm0-rcm11-esm310-rsr0-rcr25-esr100.npz,,,,,0,29,29,64,,right,red,0.94,430.631010055542,,,,1,,8,1,lightness,readingArea,realistic,75,2023-03-28_13h31.23.437,tripletExp_regina_11082022,2022.2.4,119.19361164000114,
0,4,7,0,0.027777777777778,0.298245614035088,0,0.694444444444444,0.298245614035088,0,0.111111111111111,1.0,ReadingArea_rsl0-rcl2-esl29-rsm0-rcm69-esm29-rsr0-rcr11-esr100,exr/ReadingArea_rsl0-rcl2-esl29-rsm0-rcm69-esm29-rsr0-rcr11-esr100.exr,ReadingArea_rsl0-rcl2-esl29-rsm0-rcm69-esm29-rsr0-rcr11-esr100.npz,,,,,0,30,30,200,,right,red,0.88,432.72354197502136,433.2297711372376,,,1,,8,1,lightness,readingArea,realistic,75,2023-03-28_13h31.23.437,tripletExp_regina_11082022,2022.2.4,119.19361164000114,
10,8,11,0,0.694444444444444,1.0,0,0.25,1.0,0,1.0,1.0,ReadingArea_rsl0-rcl69-esl100-rsm0-rcm25-esm100-rsr0-rcr100-esr100,exr/ReadingArea_rsl0-rcl69-esl100-rsm0-rcm25-esm100-rsr0-rcr100-esr100.exr,ReadingArea_rsl0-rcl69-esl100-rsm0-rcm25-esm100-rsr0-rcr100-esr100.npz,,,,,0,31,31,578,,left,green,3.92,438.4384360313416,438.9325520992279,,,1,,8,1,lightness,readingArea,realistic,75,2023-03-28_13h31.23.437,tripletExp_regina_11082022,2022.2.4,119.19361164000114,
7,10,4,0,0.111111111111111,1.0,0,0.694444444444444,1.0,0,0.694444444444444,0.298245614035088,ReadingArea_rsl0-rcl11-esl100-rsm0-rcm69-esm100-rsr0-rcr69-esr29,exr/ReadingArea_rsl0-rcl11-esl100-rsm0-rcm69-esm100-rsr0-rcr69-esr29.exr,ReadingArea_rsl0-rcl11-esl100-rsm0-rcm69-esm100-rsr0-rcr69-esr29.npz,,,,,0,32,32,46,,right,red,2.64,442.4217891693115,442.8422911167145,,,1,,8,1,lightness,readingArea,realistic,75,2023-03-28_13h31.23.437,tripletExp_regina_11082022,2022.2.4,119.19361164000114,
13,12,11,0,0.111111111111111,3.10526315789474,0,0.027777777777778,3.10526315789474,0,1.0,1.0,ReadingArea_rsl0-rcl11-esl310-rsm0-rcm2-esm310-rsr0-rcr100-esr100,exr/ReadingArea_rsl0-rcl11-esl310-rsm0-rcm2-esm310-rsr0-rcr100-esr100.exr,ReadingArea_rsl0-rcl11-esl310-rsm0-rcm2-esm310-rsr0-rcr100-esr100.npz,,,,,0,33,33,441,,left,green,2.11,446.3208301067352,446.68665599823,,,1,,8,1,lightness,readingArea,realistic,75,2023-03-28_13h31.23.437,tripletExp_regina_11082022,2022.2.4,119.19361164000114,
6,9,5,0,0.027777777777778,1.0,0,0.444444444444444,1.0,0,1.0,0.298245614035088,ReadingArea_rsl0-rcl2-esl100-rsm0-rcm44-esm100-rsr0-rcr100-esr29,exr/ReadingArea_rsl0-rcl2-esl100-rsm0-rcm44-esm100-rsr0-rcr100-esr29.exr,ReadingArea_rsl0-rcl2-esl100-rsm0-rcm44-esm100-rsr0-rcr100-esr29.npz,,,,,0,34,34,29,,right,red,1.01,448.4092071056366,448.7909660339356,,,1,,8,1,lightness,readingArea,realistic,75,2023-03-28_13h31.23.437,tripletExp_regina_11082022,2022.2.4,119.19361164000114,
5,10,12,0,1.0,0.298245614035088,0,0.694444444444444,1.0,0,0.027777777777778,3.10526315789474,ReadingArea_rsl0-rcl100-esl29-rsm0-rcm69-esm100-rsr0-rcr2-esr310,exr/ReadingArea_rsl0-rcl100-esl29-rsm0-rcm69-esm100-rsr0-rcr2-esr310.exr,ReadingArea_rsl0-rcl100-esl29-rsm0-rcm69-esm100-rsr0-rcr2-esr310.npz,,,,,0,35,35,587,,left,green,1.17,450.4838910102844,,,,1,,8,1,lightness,readingArea,realistic,75,2023-03-28_13h31.23.437,tripletExp_regina_11082022,2022.2.4,119.19361164000114,
6,12,0,0,0.027777777777778,1.0,0,0.027777777777778,3.10526315789474,0,0.027777777777778,0.298245614035088,ReadingArea_rsl0-rcl2-esl100-rsm0-rcm2-esm310-rsr0-rcr2-esr29,exr/ReadingArea_rsl0-rcl2-esl100-rsm0-rcm2-esm310-rsr0-rcr2-esr29.exr,ReadingArea_rsl0-rcl2-esl100-rsm0-rcm2-esm310-rsr0-rcr2-esr29.npz,,,,,0,36,36,23,,left,green,2.16,454.3470799922943,454.72631907463074,,,1,,8,1,lightness,readingArea,realistic,75,2023-03-28_13h31.23.437,tripletExp_regina_11082022,2022.2.4,119.19361164000114,
8,1,6,0,0.25,1.0,0,0.111111111111111,0.298245614035088,0,0.027777777777778,1.0,ReadingArea_rsl0-rcl25-esl100-rsm0-rcm11-esm29-rsr0-rcr2-esr100,exr/ReadingArea_rsl0-rcl25-esl100-rsm0-rcm11-esm29-rsr0-rcr2-esr100.exr,ReadingArea_rsl0-rcl25-esl100-rsm0-rcm11-esm29-rsr0-rcr2-esr100.npz,,,,,0,37,37,62,,right,red,0.94,456.43746614456177,456.81378507614136,,,1,,8,1,lightness,readingArea,realistic,75,2023-03-28_13h31.23.437,tripletExp_regina_11082022,2022.2.4,119.19361164000114,
8,4,2,0,0.25,1.0,0,0.694444444444444,0.298245614035088,0,0.25,0.298245614035088,ReadingArea_rsl0-rcl25-esl100-rsm0-rcm69-esm29-rsr0-rcr25-esr29,exr/ReadingArea_rsl0-rcl25-esl100-rsm0-rcm69-esm29-rsr0-rcr25-esr29.exr,ReadingArea_rsl0-rcl25-esl100-rsm0-rcm69-esm29-rsr0-rcr25-esr29.npz,,,,,0,38,38,184,,left,green,0.96,458.517874956131,458.8964250087738,,,1,,8,1,lightness,readingArea,realistic,75,2023-03-28_13h31.23.437,tripletExp_regina_11082022,2022.2.4,119.19361164000114,
9,3,8,0,0.444444444444444,1.0,0,0.444444444444444,0.298245614035088,0,0.25,1.0,ReadingArea_rsl0-rcl44-esl100-rsm0-rcm44-esm29-rsr0-rcr25-esr100,exr/ReadingArea_rsl0-rcl44-esl100-rsm0-rcm44-esm29-rsr0-rcr25-esr100.exr,ReadingArea_rsl0-rcl44-esl100-rsm0-rcm44-esm29-rsr0-rcr25-esr100.npz,,,,,0,39,39,530,,right,red,1.2,460.62024116516113,461.0072109699249,,,1,,8,1,lightness,readingArea,realistic,75,2023-03-28_13h31.23.437,tripletExp_regina_11082022,2022.2.4,119.19361164000114,
3,10,4,0,0.444444444444444,0.298245614035088,0,0.694444444444444,1.0,0,0.694444444444444,0.298245614035088,ReadingArea_rsl0-rcl44-esl29-rsm0-rcm69-esm100-rsr0-rcr69-esr29,exr/ReadingArea_rsl0-rcl44-esl29-rsm0-rcm69-esm100-rsr0-rcr69-esr29.exr,ReadingArea_rsl0-rcl44-esl29-rsm0-rcm69-esm100-rsr0-rcr69-esr29.npz,,,,,0,40,40,435,,right,red,2.5,464.4993531703949,464.8847630023956,,,1,,8,1,lightness,readingArea,realistic,75,2023-03-28_13h31.23.437,tripletExp_regina_11082022,2022.2.4,119.19361164000114,
2,3,4,0,0.25,0.298245614035088,0,0.444444444444444,0.298245614035088,0,0.694444444444444,0.298245614035088,ReadingArea_rsl0-rcl25-esl29-rsm0-rcm44-esm29-rsr0-rcr69-esr29,exr/ReadingArea_rsl0-rcl25-esl29-rsm0-rcm44-esm29-rsr0-rcr69-esr29.exr,ReadingArea_rsl0-rcl25-esl29-rsm0-rcm44-esm29-rsr0-rcr69-esr29.npz,,,,,0,41,41,61,,right,red,1.18,466.5878381729126,466.9701771736145,,,1,,8,1,lightness,readingArea,realistic,75,2023-03-28_13h31.23.437,tripletExp_regina_11082022,2022.2.4,119.19361164000114,
3,2,11,0,0.444444444444444,0.298245614035088,0,0.25,0.298245614035088,0,1.0,1.0,ReadingArea_rsl0-rcl44-esl29-rsm0-rcm25-esm29-rsr0-rcr100-esr100,exr/ReadingArea_rsl0-rcl44-esl29-rsm0-rcm25-esm29-rsr0-rcr100-esr100.exr,ReadingArea_rsl0-rcl44-esl29-rsm0-rcm25-esm29-rsr0-rcr100-esr100.npz,,,,,0,42,42,257,,left,green,1.29,468.6710691452026,469.0672631263733,,,1,,8,1,lightness,readingArea,realistic,75,2023-03-28_13h31.23.437,tripletExp_regina_11082022,2022.2.4,119.19361164000114,
11,8,0,0,1.0,1.0,0,0.25,1.0,0,0.027777777777778,0.298245614035088,ReadingArea_rsl0-rcl100-esl100-rsm0-rcm25-esm100-rsr0-rcr2-esr29,exr/ReadingArea_rsl0-rcl100-esl100-rsm0-rcm25-esm100-rsr0-rcr2-esr29.exr,ReadingArea_rsl0-rcl100-esl100-rsm0-rcm25-esm100-rsr0-rcr2-esr29.npz,,,,,0,43,43,81,,right,red,2.7,472.5427219867706,472.94148302078247,,,1,,8,1,lightness,readingArea,realistic,75,2023-03-28_13h31.23.437,tripletExp_regina_11082022,2022.2.4,119.19361164000114,
10,11,4,0,0.694444444444444,1.0,0,1.0,1.0,0,0.694444444444444,0.298245614035088,ReadingArea_rsl0-rcl69-esl100-rsm0-rcm100-esm100-rsr0-rcr69-esr29,exr/ReadingArea_rsl0-rcl69-esl100-rsm0-rcm100-esm100-rsr0-rcr69-esr29.exr,ReadingArea_rsl0-rcl69-esl100-rsm0-rcm100-esm100-rsr0-rcr69-esr29.npz,,,,,0,44,44,239,,left,green,1.04,474.6301200389862,,,,1,,8,1,lightness,readingArea,realistic,75,2023-03-28_13h31.23.437,tripletExp_regina_11082022,2022.2.4,119.19361164000114,
8,2,0,0,0.25,1.0,0,0.25,0.298245614035088,0,0.027777777777778,0.298245614035088,ReadingArea_rsl0-rcl25-esl100-rsm0-rcm25-esm29-rsr0-rcr2-esr29,exr/ReadingArea_rsl0-rcl25-esl100-rsm0-rcm25-esm29-rsr0-rcr2-esr29.exr,ReadingArea_rsl0-rcl25-esl100-rsm0-rcm25-esm29-rsr0-rcr2-esr29.npz,,,,,0,45,45,574,,left,green,0.99,476.7249619960785,477.1201920509338,,,1,,8,1,lightness,readingArea,realistic,75,2023-03-28_13h31.23.437,tripletExp_regina_11082022,2022.2.4,119.19361164000114,
8,4,1,0,0.25,1.0,0,0.694444444444444,0.298245614035088,0,0.111111111111111,0.298245614035088,ReadingArea_rsl0-rcl25-esl100-rsm0-rcm69-esm29-rsr0-rcr11-esr29,exr/ReadingArea_rsl0-rcl25-esl100-rsm0-rcm69-esm29-rsr0-rcr11-esr29.exr,ReadingArea_rsl0-rcl25-esl100-rsm0-rcm69-esm29-rsr0-rcr11-esr29.npz,,,,,0,46,46,286,,left,green,1.47,478.839173078537,479.34431409835815,,,1,,8,1,lightness,readingArea,realistic,75,2023-03-28_13h31.23.437,tripletExp_regina_11082022,2022.2.4,119.19361164000114,
10,14,13,0,0.694444444444444,1.0,0,0.25,3.10526315789474,0,0.111111111111111,3.10526315789474,ReadingArea_rsl0-rcl69-esl100-rsm0-rcm25-esm310-rsr0-rcr11-esr310,exr/ReadingArea_rsl0-rcl69-esl100-rsm0-rcm25-esm310-rsr0-rcr11-esr310.exr,ReadingArea_rsl0-rcl69-esl100-rsm0-rcm25-esm310-rsr0-rcr11-esr310.npz,,,,,0,47,47,168,,left,green,1.09,481.05093216896057,481.4308140277863,,,1,,8,1,lightness,readingArea,realistic,75,2023-03-28_13h31.23.437,tripletExp_regina_11082022,2022.2.4,119.19361164000114,
1,7,8,0,0.111111111111111,0.298245614035088,0,0.111111111111111,1.0,0,0.25,1.0,ReadingArea_rsl0-rcl11-esl29-rsm0-rcm11-esm100-rsr0-rcr25-esr100,exr/ReadingArea_rsl0-rcl11-esl29-rsm0-rcm11-esm100-rsr0-rcr25-esr100.exr,ReadingArea_rsl0-rcl11-esl29-rsm0-rcm11-esm100-rsr0-rcr25-esr100.npz,,,,,0,48,48,260,,right,red,0.94,483.1442861557007,483.5239291191101,,,1,,8,1,lightness,readingArea,realistic,75,2023-03-28_13h31.23.437,tripletExp_regina_11082022,2022.2.4,119.19361164000114,
9,12,11,0,0.444444444444444,1.0,0,0.027777777777778,3.10526315789474,0,1.0,1.0,ReadingArea_rsl0-rcl44-esl100-rsm0-rcm2-esm310-rsr0-rcr100-esr100,exr/ReadingArea_rsl0-rcl44-esl100-rsm0-rcm2-esm310-rsr0-rcr100-esr100.exr,ReadingArea_rsl0-rcl44-esl100-rsm0-rcm2-esm310-rsr0-rcr100-esr100.npz,,,,,0,49,49,144,,left,green,0.85,485.2292971611023,485.6194100379944,,,1,,8,1,lightness,readingArea,realistic,75,2023-03-28_13h31.23.437,tripletExp_regina_11082022,2022.2.4,119.19361164000114,
11,1,12,0,1.0,1.0,0,0.111111111111111,0.298245614035088,0,0.027777777777778,3.10526315789474,ReadingArea_rsl0-rcl100-esl100-rsm0-rcm11-esm29-rsr0-rcr2-esr310,exr/ReadingArea_rsl0-rcl100-esl100-rsm0-rcm11-esm29-rsr0-rcr2-esr310.exr,ReadingArea_rsl0-rcl100-esl100-rsm0-rcm11-esm29-rsr0-rcr2-esr310.npz,,,,,0,50,50,339,,right,red,0.64,487.3073301315308,487.6939570903778,,,1,,8,1,lightness,readingArea,realistic,75,2023-03-28_13h31.23.437,tripletExp_regina_11082022,2022.2.4,119.19361164000114,
10,7,2,0,0.694444444444444,1.0,0,0.111111111111111,1.0,0,0.25,0.298245614035088,ReadingArea_rsl0-rcl69-esl100-rsm0-rcm11-esm100-rsr0-rcr25-esr29,exr/ReadingArea_rsl0-rcl69-esl100-rsm0-rcm11-esm100-rsr0-rcr25-esr29.exr,ReadingArea_rsl0-rcl69-esl100-rsm0-rcm11-esm100-rsr0-rcr25-esr29.npz,,,,,0,51,51,523,,right,red,0.56,489.3839211463928,489.7647290229797,,,1,,8,1,lightness,readingArea,realistic,75,2023-03-28_13h31.23.437,tripletExp_regina_11082022,2022.2.4,119.19361164000114,
7,11,13,0,0.111111111111111,1.0,0,1.0,1.0,0,0.111111111111111,3.10526315789474,ReadingArea_rsl0-rcl11-esl100-rsm0-rcm100-esm100-rsr0-rcr11-esr310,exr/ReadingArea_rsl0-rcl11-esl100-rsm0-rcm100-esm100-rsr0-rcr11-esr310.exr,ReadingArea_rsl0-rcl11-esl100-rsm0-rcm100-esm100-rsr0-rcr11-esr310.npz,,,,,0,52,52,76,,right,red,2.2,493.2610850334168,493.6460340023041,,,1,,8,1,lightness,readingArea,realistic,75,2023-03-28_13h31.23.437,tripletExp_regina_11082022,2022.2.4,119.19361164000114,
11,14,2,0,1.0,1.0,0,0.25,3.10526315789474,0,0.25,0.298245614035088,ReadingArea_rsl0-rcl100-esl100-rsm0-rcm25-esm310-rsr0-rcr25-esr29,exr/ReadingArea_rsl0-rcl100-esl100-rsm0-rcm25-esm310-rsr0-rcr25-esr29.exr,ReadingArea_rsl0-rcl100-esl100-rsm0-rcm25-esm310-rsr0-rcr25-esr29.npz,,,,,0,53,53,419,,left,green,0.79,495.3523499965668,495.7324521541596,,,1,,8,1,lightness,readingArea,realistic,75,2023-03-28_13h31.23.437,tripletExp_regina_11082022,2022.2.4,119.19361164000114,
0,8,14,0,0.027777777777778,0.298245614035088,0,0.25,1.0,0,0.25,3.10526315789474,ReadingArea_rsl0-rcl2-esl29-rsm0-rcm25-esm100-rsr0-rcr25-esr310,exr/ReadingArea_rsl0-rcl2-esl29-rsm0-rcm25-esm100-rsr0-rcr25-esr310.exr,ReadingArea_rsl0-rcl2-esl29-rsm0-rcm25-esm100-rsr0-rcr25-esr310.npz,,,,,0,54,54,114,,right,red,0.65,497.4324109554291,497.8117070198059,,,1,,8,1,lightness,readingArea,realistic,75,2023-03-28_13h31.23.437,tripletExp_regina_11082022,2022.2.4,119.19361164000114,
5,3,2,0,1.0,0.298245614035088,0,0.444444444444444,0.298245614035088,0,0.25,0.298245614035088,ReadingArea_rsl0-rcl100-esl29-rsm0-rcm44-esm29-rsr0-rcr25-esr29,exr/ReadingArea_rsl0-rcl100-esl29-rsm0-rcm44-esm29-rsr0-rcr25-esr29.exr,ReadingArea_rsl0-rcl100-esl29-rsm0-rcm44-esm29-rsr0-rcr25-esr29.npz,,,,,0,55,55,143,,left,green,1.01,499.5040409564972,499.88795804977417,,,1,,8,1,lightness,readingArea,realistic,75,2023-03-28_13h31.23.437,tripletExp_regina_11082022,2022.2.4,119.19361164000114,
0,13,1,0,0.027777777777778,0.298245614035088,0,0.111111111111111,3.10526315789474,0,0.111111111111111,0.298245614035088,ReadingArea_rsl0-rcl2-esl29-rsm0-rcm11-esm310-rsr0-rcr11-esr29,exr/ReadingArea_rsl0-rcl2-esl29-rsm0-rcm11-esm310-rsr0-rcr11-esr29.exr,ReadingArea_rsl0-rcl2-esl29-rsm0-rcm11-esm310-rsr0-rcr11-esr29.npz,,,,,0,56,56,458,,right,red,2.61,503.3648409843445,503.7546739578247,,,1,,8,1,lightness,readingArea,realistic,75,2023-03-28_13h31.23.437,tripletExp_regina_11082022,2022.2.4,119.19361164000114,
10,11,13,0,0.694444444444444,1.0,0,1.0,1.0,0,0.111111111111111,3.10526315789474,ReadingArea_rsl0-rcl69-esl100-rsm0-rcm100-esm100-rsr0-rcr11-esr310,exr/ReadingArea_rsl0-rcl69-esl100-rsm0-rcm100-esm100-rsr0-rcr11-esr310.exr,ReadingArea_rsl0-rcl69-esl100-rsm0-rcm100-esm100-rsr0-rcr11-esr310.npz,,,,,0,57,57,79,,left,green,1.11,505.4413750171661,505.85104608535767,,,1,,8,1,lightness,readingArea,realistic,75,2023-03-28_13h31.23.437,tripletExp_regina_11082022,2022.2.4,119.19361164000114,
11,7,8,0,1.0,1.0,0,0.111111111111111,1.0,0,0.25,1.0,ReadingArea_rsl0-rcl100-esl100-rsm0-rcm11-esm100-rsr0-rcr25-esr100,exr/ReadingArea_rsl0-rcl100-esl100-rsm0-rcm11-esm100-rsr0-rcr25-esr100.exr,ReadingArea_rsl0-rcl100-esl100-rsm0-rcm11-esm100-rsr0-rcr25-esr100.npz,,,,,0,58,58,37,,right,red,1.55,507.54756712913513,507.9337351322174,,,1,,8,1,lightness,readingArea,realistic,75,2023-03-28_13h31.23.437,tripletExp_regina_11082022,2022.2.4,119.19361164000114,
14,6,13,0,0.25,3.10526315789474,0,0.027777777777778,1.0,0,0.111111111111111,3.10526315789474,ReadingArea_rsl0-rcl25-esl310-rsm0-rcm2-esm100-rsr0-rcr11-esr310,exr/ReadingArea_rsl0-rcl25-esl310-rsm0-rcm2-esm100-rsr0-rcr11-esr310.exr,ReadingArea_rsl0-rcl25-esl310-rsm0-rcm2-esm100-rsr0-rcr11-esr310.npz,,,,,0,59,59,91,,right,red,2.13,511.410117149353,,,,1,,8,1,lightness,readingArea,realistic,75,2023-03-28_13h31.23.437,tripletExp_regina_11082022,2022.2.4,119.19361164000114,
13,2,4,0,0.111111111111111,3.10526315789474,0,0.25,0.298245614035088,0,0.694444444444444,0.298245614035088,ReadingArea_rsl0-rcl11-esl310-rsm0-rcm25-esm29-rsr0-rcr69-esr29,exr/ReadingArea_rsl0-rcl11-esl310-rsm0-rcm25-esm29-rsr0-rcr69-esr29.exr,ReadingArea_rsl0-rcl11-esl310-rsm0-rcm25-esm29-rsr0-rcr69-esr29.npz,,,,,0,60,60,307,,right,red,2.91,515.2386939525604,515.6414151191711,,,1,,8,1,lightness,readingArea,realistic,75,2023-03-28_13h31.23.437,tripletExp_regina_11082022,2022.2.4,119.19361164000114,
1,5,7,0,0.111111111111111,0.298245614035088,0,1.0,0.298245614035088,0,0.111111111111111,1.0,ReadingArea_rsl0-rcl11-esl29-rsm0-rcm100-esm29-rsr0-rcr11-esr100,exr/ReadingArea_rsl0-rcl11-esl29-rsm0-rcm100-esm29-rsr0-rcr11-esr100.exr,ReadingArea_rsl0-rcl11-esl29-rsm0-rcm100-esm29-rsr0-rcr11-esr100.npz,,,,,0,61,61,197,,right,red,2.16,519.1176590919495,519.5135591030121,,,1,,8,1,lightness,readingArea,realistic,75,2023-03-28_13h31.23.437,tripletExp_regina_11082022,2022.2.4,119.19361164000114,
2,4,6,0,0.25,0.298245614035088,0,0.694444444444444,0.298245614035088,0,0.027777777777778,1.0,ReadingArea_rsl0-rcl25-esl29-rsm0-rcm69-esm29-rsr0-rcr2-esr100,exr/ReadingArea_rsl0-rcl25-esl29-rsm0-rcm69-esm29-rsr0-rcr2-esr100.exr,ReadingArea_rsl0-rcl25-esl29-rsm0-rcm69-esm29-rsr0-rcr2-esr100.npz,,,,,0,62,62,563,,left,green,1.0,521.2030839920044,,,,1,,8,1,lightness,readingArea,realistic,75,2023-03-28_13h31.23.437,tripletExp_regina_11082022,2022.2.4,119.19361164000114,
12,13,10,0,0.027777777777778,3.10526315789474,0,0.111111111111111,3.10526315789474,0,0.694444444444444,1.0,ReadingArea_rsl0-rcl2-esl310-rsm0-rcm11-esm310-rsr0-rcr69-esr100,exr/ReadingArea_rsl0-rcl2-esl310-rsm0-rcm11-esm310-rsr0-rcr69-esr100.exr,ReadingArea_rsl0-rcl2-esl310-rsm0-rcm11-esm310-rsr0-rcr69-esr100.npz,,,,,0,63,63,295,,right,red,1.13,523.3343770503998,523.7131090164185,,,1,,8,1,lightness,readingArea,realistic,75,2023-03-28_13h31.23.437,tripletExp_regina_11082022,2022.2.4,119.19361164000114,
3,13,6,0,0.444444444444444,0.298245614035088,0,0.111111111111111,3.10526315789474,0,0.027777777777778,1.0,ReadingArea_rsl0-rcl44-esl29-rsm0-rcm11-esm310-rsr0-rcr2-esr100,exr/ReadingArea_rsl0-rcl44-esl29-rsm0-rcm11-esm310-rsr0-rcr2-esr100.exr,ReadingArea_rsl0-rcl44-esl29-rsm0-rcm11-esm310-rsr0-rcr2-esr100.npz,,,,,0,64,64,199,,left,green,2.85,527.2052130699158,527.587473154068,,,1,,8,1,lightness,readingArea,realistic,75,2023-03-28_13h31.23.437,tripletExp_regina_11082022,2022.2.4,119.19361164000114,
5,1,13,0,1.0,0.298245614035088,0,0.111111111111111,0.298245614035088,0,0.111111111111111,3.10526315789474,ReadingArea_rsl0-rcl100-esl29-rsm0-rcm11-esm29-rsr0-rcr11-esr310,exr/ReadingArea_rsl0-rcl100-esl29-rsm0-rcm11-esm29-rsr0-rcr11-esr310.exr,ReadingArea_rsl0-rcl100-esl29-rsm0-rcm11-esm29-rsr0-rcr11-esr310.npz,,,,,0,65,65,594,,right,red,2.59,531.0523080825806,531.4356951713562,,,1,,8,1,lightness,readingArea,realistic,75,2023-03-28_13h31.23.437,tripletExp_regina_11082022,2022.2.4,119.19361164000114,
2,3,13,0,0.25,0.298245614035088,0,0.444444444444444,0.298245614035088,0,0.111111111111111,3.10526315789474,ReadingArea_rsl0-rcl25-esl29-rsm0-rcm44-esm29-rsr0-rcr11-esr310,exr/ReadingArea_rsl0-rcl25-esl29-rsm0-rcm44-esm29-rsr0-rcr11-esr310.exr,ReadingArea_rsl0-rcl25-esl29-rsm0-rcm44-esm29-rsr0-rcr11-esr310.npz,,,,,0,66,66,498,,left,green,3.01,534.9219460487366,,,,1,,8,1,lightness,readingArea,realistic,75,2023-03-28_13h31.23.437,tripletExp_regina_11082022,2022.2.4,119.19361164000114,
8,13,3,0,0.25,1.0,0,0.111111111111111,3.10526315789474,0,0.444444444444444,0.298245614035088,ReadingArea_rsl0-rcl25-esl100-rsm0-rcm11-esm310-rsr0-rcr44-esr29,exr/ReadingArea_rsl0-rcl25-esl100-rsm0-rcm11-esm310-rsr0-rcr44-esr29.exr,ReadingArea_rsl0-rcl25-esl100-rsm0-rcm11-esm310-rsr0-rcr44-esr29.npz,,,,,0,67,67,553,,left,green,0.95,536.9924321174622,537.4160580635071,,,1,,8,1,lightness,readingArea,realistic,75,2023-03-28_13h31.23.437,tripletExp_regina_11082022,2022.2.4,119.19361164000114,
5,12,7,0,1.0,0.298245614035088,0,0.027777777777778,3.10526315789474,0,0.111111111111111,1.0,ReadingArea_rsl0-rcl100-esl29-rsm0-rcm2-esm310-rsr0-rcr11-esr100,exr/ReadingArea_rsl0-rcl100-esl29-rsm0-rcm2-esm310-rsr0-rcr11-esr100.exr,ReadingArea_rsl0-rcl100-esl29-rsm0-rcm2-esm310-rsr0-rcr11-esr100.npz,,,,,0,68,68,447,,right,red,0.83,539.116749048233,539.5161709785461,,,1,,8,1,lightness,readingArea,realistic,75,2023-03-28_13h31.23.437,tripletExp_regina_11082022,2022.2.4,119.19361164000114,
2,5,3,0,0.25,0.298245614035088,0,1.0,0.298245614035088,0,0.444444444444444,0.298245614035088,ReadingArea_rsl0-rcl25-esl29-rsm0-rcm100-esm29-rsr0-rcr44-esr29,exr/ReadingArea_rsl0-rcl25-esl29-rsm0-rcm100-esm29-rsr0-rcr44-esr29.exr,ReadingArea_rsl0-rcl25-esl29-rsm0-rcm100-esm29-rsr0-rcr44-esr29.npz,,,,,0,69,69,135,,right,red,2.28,543.0055999755859,543.3835210800171,,,1,,8,1,lightness,readingArea,realistic,75,2023-03-28_13h31.23.437,tripletExp_regina_11082022,2022.2.4,119.19361164000114,
7,2,0,0,0.111111111111111,1.0,0,0.25,0.298245614035088,0,0.027777777777778,0.298245614035088,ReadingArea_rsl0-rcl11-esl100-rsm0-rcm25-esm29-rsr0-rcr2-esr29,exr/ReadingArea_rsl0-rcl11-esl100-rsm0-rcm25-esm29-rsr0-rcr2-esr29.exr,ReadingArea_rsl0-rcl11-esl100-rsm0-rcm25-esm29-rsr0-rcr2-esr29.npz,,,,,0,70,70,520,,left,green,0.7,545.0719690322876,545.4495720863342,,,1,,8,1,lightness,readingArea,realistic,75,2023-03-28_13h31.23.437,tripletExp_regina_11082022,2022.2.4,119.19361164000114,
14,9,12,0,0.25,3.10526315789474,0,0.444444444444444,1.0,0,0.027777777777778,3.10526315789474,ReadingArea_rsl0-rcl25-esl310-rsm0-rcm44-esm100-rsr0-rcr2-esr310,exr/ReadingArea_rsl0-rcl25-esl310-rsm0-rcm44-esm100-rsr0-rcr2-esr310.exr,ReadingArea_rsl0-rcl25-esl310-rsm0-rcm44-esm100-rsr0-rcr2-esr310.npz,,,,,0,71,71,378,,left,green,0.76,547.1659440994263,,,,1,,8,1,lightness,readingArea,realistic,75,2023-03-28_13h31.23.437,tripletExp_regina_11082022,2022.2.4,119.19361164000114,
4,8,10,0,0.694444444444444,0.298245614035088,0,0.25,1.0,0,0.694444444444444,1.0,ReadingArea_rsl0-rcl69-esl29-rsm0-rcm25-esm100-rsr0-rcr69-esr100,exr/ReadingArea_rsl0-rcl69-esl29-rsm0-rcm25-esm100-rsr0-rcr69-esr100.exr,ReadingArea_rsl0-rcl69-esl29-rsm0-rcm25-esm100-rsr0-rcr69-esr100.npz,,,,,0,72,72,221,,left,green,2.33,551.00781416893,,,,1,,8,1,lightness,readingArea,realistic,75,2023-03-28_13h31.23.437,tripletExp_regina_11082022,2022.2.4,119.19361164000114,
9,11,5,0,0.444444444444444,1.0,0,1.0,1.0,0,1.0,0.298245614035088,ReadingArea_rsl0-rcl44-esl100-rsm0-rcm100-esm100-rsr0-rcr100-esr29,exr/ReadingArea_rsl0-rcl44-esl100-rsm0-rcm100-esm100-rsr0-rcr100-esr29.exr,ReadingArea_rsl0-rcl44-esl100-rsm0-rcm100-esm100-rsr0-rcr100-esr29.npz,,,,,0,73,73,142,,left,green,2.7,554.8691811561584,555.250657081604,,,1,,8,1,lightness,readingArea,realistic,75,2023-03-28_13h31.23.437,tripletExp_regina_11082022,2022.2.4,119.19361164000114,
8,9,13,0,0.25,1.0,0,0.444444444444444,1.0,0,0.111111111111111,3.10526315789474,ReadingArea_rsl0-rcl25-esl100-rsm0-rcm44-esm100-rsr0-rcr11-esr310,exr/ReadingArea_rsl0-rcl25-esl100-rsm0-rcm44-esm100-rsr0-rcr11-esr310.exr,ReadingArea_rsl0-rcl25-esl100-rsm0-rcm44-esm100-rsr0-rcr11-esr310.npz,,,,,0,74,74,519,,right,red,2.49,558.6979901790619,558.8996860980988,,,1,,8,1,lightness,readingArea,realistic,75,2023-03-28_13h31.23.437,tripletExp_regina_11082022,2022.2.4,119.19361164000114,
7,10,5,0,0.111111111111111,1.0,0,0.694444444444444,1.0,0,1.0,0.298245614035088,ReadingArea_rsl0-rcl11-esl100-rsm0-rcm69-esm100-rsr0-rcr100-esr29,exr/ReadingArea_rsl0-rcl11-esl100-rsm0-rcm69-esm100-rsr0-rcr100-esr29.exr,ReadingArea_rsl0-rcl11-esl100-rsm0-rcm69-esm100-rsr0-rcr100-esr29.npz,,,,,0,75,75,395,,right,red,2.55,593.8652331829071,594.2532200813293,,,2,,8,1,lightness,readingArea,realistic,75,2023-03-28_13h31.23.437,tripletExp_regina_11082022,2022.2.4,119.19361164000114,
13,4,7,0,0.111111111111111,3.10526315789474,0,0.694444444444444,0.298245614035088,0,0.111111111111111,1.0,ReadingArea_rsl0-rcl11-esl310-rsm0-rcm69-esm29-rsr0-rcr11-esr100,exr/ReadingArea_rsl0-rcl11-esl310-rsm0-rcm69-esm29-rsr0-rcr11-esr100.exr,ReadingArea_rsl0-rcl11-esl310-rsm0-rcm69-esm29-rsr0-rcr11-esr100.npz,,,,,0,76,76,282,,left,green,2.68,597.719288110733,598.1085801124573,,,2,,8,1,lightness,readingArea,realistic,75,2023-03-28_13h31.23.437,tripletExp_regina_11082022,2022.2.4,119.19361164000114,
3,9,10,0,0.444444444444444,0.298245614035088,0,0.444444444444444,1.0,0,0.694444444444444,1.0,ReadingArea_rsl0-rcl44-esl29-rsm0-rcm44-esm100-rsr0-rcr69-esr100,exr/ReadingArea_rsl0-rcl44-esl29-rsm0-rcm44-esm100-rsr0-rcr69-esr100.exr,ReadingArea_rsl0-rcl44-esl29-rsm0-rcm44-esm100-rsr0-rcr69-esr100.npz,,,,,0,77,77,581,,right,red,3.24,601.5786290168762,601.9716420173645,,,2,,8,1,lightness,readingArea,realistic,75,2023-03-28_13h31.23.437,tripletExp_regina_11082022,2022.2.4,119.19361164000114,
0,11,9,0,0.027777777777778,0.298245614035088,0,1.0,1.0,0,0.444444444444444,1.0,ReadingArea_rsl0-rcl2-esl29-rsm0-rcm100-esm100-rsr0-rcr44-esr100,exr/ReadingArea_rsl0-rcl2-esl29-rsm0-rcm100-esm100-rsr0-rcr44-esr100.exr,ReadingArea_rsl0-rcl2-esl29-rsm0-rcm100-esm100-rsr0-rcr44-esr100.npz,,,,,0,78,78,32,,right,red,2.08,605.4341251850128,605.8239421844482,,,2,,8,1,lightness,readingArea,realistic,75,2023-03-28_13h31.23.437,tripletExp_regina_11082022,2022.2.4,119.19361164000114,
12,8,10,0,0.027777777777778,3.10526315789474,0,0.25,1.0,0,0.694444444444444,1.0,ReadingArea_rsl0-rcl2-esl310-rsm0-rcm25-esm100-rsr0-rcr69-esr100,exr/ReadingArea_rsl0-rcl2-esl310-rsm0-rcm25-esm100-rsr0-rcr69-esr100.exr,ReadingArea_rsl0-rcl2-esl310-rsm0-rcm25-esm100-rsr0-rcr69-esr100.npz,,,,,0,79,79,216,,left,green,4.48,611.059100151062,,,,2,,8,1,lightness,readingArea,realistic,75,2023-03-28_13h31.23.437,tripletExp_regina_11082022,2022.2.4,119.19361164000114,
3,4,11,0,0.444444444444444,0.298245614035088,0,0.694444444444444,0.298245614035088,0,1.0,1.0,ReadingArea_rsl0-rcl44-esl29-rsm0-rcm69-esm29-rsr0-rcr100-esr100,exr/ReadingArea_rsl0-rcl44-esl29-rsm0-rcm69-esm29-rsr0-rcr100-esr100.exr,ReadingArea_rsl0-rcl44-esl29-rsm0-rcm69-esm29-rsr0-rcr100-esr100.npz,,,,,0,80,80,207,,left,green,0.94,613.1518521308899,613.546224117279,,,2,,8,1,lightness,readingArea,realistic,75,2023-03-28_13h31.23.437,tripletExp_regina_11082022,2022.2.4,119.19361164000114,
13,0,9,0,0.111111111111111,3.10526315789474,0,0.027777777777778,0.298245614035088,0,0.444444444444444,1.0,ReadingArea_rsl0-rcl11-esl310-rsm0-rcm2-esm29-rsr0-rcr44-esr100,exr/ReadingArea_rsl0-rcl11-esl310-rsm0-rcm2-esm29-rsr0-rcr44-esr100.exr,ReadingArea_rsl0-rcl11-esl310-rsm0-rcm2-esm29-rsr0-rcr44-esr100.npz,,,,,0,81,81,373,,left,green,2.98,616.986857175827,617.3941180706024,,,2,,8,1,lightness,readingArea,realistic,75,2023-03-28_13h31.23.437,tripletExp_regina_11082022,2022.2.4,119.19361164000114,
10,0,14,0,0.694444444444444,1.0,0,0.027777777777778,0.298245614035088,0,0.25,3.10526315789474,ReadingArea_rsl0-rcl69-esl100-rsm0-rcm2-esm29-rsr0-rcr25-esr310,exr/ReadingArea_rsl0-rcl69-esl100-rsm0-rcm2-esm29-rsr0-rcr25-esr310.exr,ReadingArea_rsl0-rcl69-esl100-rsm0-rcm2-esm29-rsr0-rcr25-esr310.npz,,,,,0,82,82,95,,right,red,3.89,622.6288371086121,623.0684671401978,,,2,,8,1,lightness,readingArea,realistic,75,2023-03-28_13h31.23.437,tripletExp_regina_11082022,2022.2.4,119.19361164000114,
0,9,6,0,0.027777777777778,0.298245614035088,0,0.444444444444444,1.0,0,0.027777777777778,1.0,ReadingArea_rsl0-rcl2-esl29-rsm0-rcm44-esm100-rsr0-rcr2-esr100,exr/ReadingArea_rsl0-rcl2-esl29-rsm0-rcm44-esm100-rsr0-rcr2-esr100.exr,ReadingArea_rsl0-rcl2-esl29-rsm0-rcm44-esm100-rsr0-rcr2-esr100.npz,,,,,0,83,83,365,,right,red,2.24,626.5369501113892,,,,2,,8,1,lightness,readingArea,realistic,75,2023-03-28_13h31.23.437,tripletExp_regina_11082022,2022.2.4,119.19361164000114,
12,9,14,0,0.027777777777778,3.10526315789474,0,0.444444444444444,1.0,0,0.25,3.10526315789474,ReadingArea_rsl0-rcl2-esl310-rsm0-rcm44-esm100-rsr0-rcr25-esr310,exr/ReadingArea_rsl0-rcl2-esl310-rsm0-rcm44-esm100-rsr0-rcr25-esr310.exr,ReadingArea_rsl0-rcl2-esl310-rsm0-rcm44-esm100-rsr0-rcr25-esr310.npz,,,,,0,84,84,123,,right,red,2.27,630.3970000743866,630.799586057663,,,2,,8,1,lightness,readingArea,realistic,75,2023-03-28_13h31.23.437,tripletExp_regina_11082022,2022.2.4,119.19361164000114,
12,5,4,0,0.027777777777778,3.10526315789474,0,1.0,0.298245614035088,0,0.694444444444444,0.298245614035088,ReadingArea_rsl0-rcl2-esl310-rsm0-rcm100-esm29-rsr0-rcr69-esr29,exr/ReadingArea_rsl0-rcl2-esl310-rsm0-rcm100-esm29-rsr0-rcr69-esr29.exr,ReadingArea_rsl0-rcl2-esl310-rsm0-rcm100-esm29-rsr0-rcr69-esr29.npz,,,,,0,85,85,566,,right,red,1.07,632.5040011405945,,,,2,,8,1,lightness,readingArea,realistic,75,2023-03-28_13h31.23.437,tripletExp_regina_11082022,2022.2.4,119.19361164000114,
13,10,3,0,0.111111111111111,3.10526315789474,0,0.694444444444444,1.0,0,0.444444444444444,0.298245614035088,ReadingArea_rsl0-rcl11-esl310-rsm0-rcm69-esm100-rsr0-rcr44-esr29,exr/ReadingArea_rsl0-rcl11-esl310-rsm0-rcm69-esm100-rsr0-rcr44-esr29.exr,ReadingArea_rsl0-rcl11-esl310-rsm0-rcm69-esm100-rsr0-rcr44-esr29.npz,,,,,0,86,86,224,,left,green,1.24,634.5953691005707,634.9744000434875,,,2,,8,1,lightness,readingArea,realistic,75,2023-03-28_13h31.23.437,tripletExp_regina_11082022,2022.2.4,119.19361164000114,
14,8,3,0,0.25,3.10526315789474,0,0.25,1.0,0,0.444444444444444,0.298245614035088,ReadingArea_rsl0-rcl25-esl310-rsm0-rcm25-esm100-rsr0-rcr44-esr29,exr/ReadingArea_rsl0-rcl25-esl310-rsm0-rcm25-esm100-rsr0-rcr44-esr29.exr,ReadingArea_rsl0-rcl25-esl310-rsm0-rcm25-esm100-rsr0-rcr44-esr29.npz,,,,,0,87,87,100,,right,red,2.16,638.4257509708405,638.8092861175537,,,2,,8,1,lightness,readingArea,realistic,75,2023-03-28_13h31.23.437,tripletExp_regina_11082022,2022.2.4,119.19361164000114,
5,0,11,0,1.0,0.298245614035088,0,0.027777777777778,0.298245614035088,0,1.0,1.0,ReadingArea_rsl0-rcl100-esl29-rsm0-rcm2-esm29-rsr0-rcr100-esr100,exr/ReadingArea_rsl0-rcl100-esl29-rsm0-rcm2-esm29-rsr0-rcr100-esr100.exr,ReadingArea_rsl0-rcl100-esl29-rsm0-rcm2-esm29-rsr0-rcr100-esr100.npz,,,,,0,88,88,547,,left,green,3.89,644.0602021217346,644.5426659584045,,,2,,8,1,lightness,readingArea,realistic,75,2023-03-28_13h31.23.437,tripletExp_regina_11082022,2022.2.4,119.19361164000114,
12,1,2,0,0.027777777777778,3.10526315789474,0,0.111111111111111,0.298245614035088,0,0.25,0.298245614035088,ReadingArea_rsl0-rcl2-esl310-rsm0-rcm11-esm29-rsr0-rcr25-esr29,exr/ReadingArea_rsl0-rcl2-esl310-rsm0-rcm11-esm29-rsr0-rcr25-esr29.exr,ReadingArea_rsl0-rcl2-esl310-rsm0-rcm11-esm29-rsr0-rcr25-esr29.npz,,,,,0,89,89,231,,right,red,2.61,648.0382940769196,648.4283380508423,,,2,,8,1,lightness,readingArea,realistic,75,2023-03-28_13h31.23.437,tripletExp_regina_11082022,2022.2.4,119.19361164000114,
12,14,4,0,0.027777777777778,3.10526315789474,0,0.25,3.10526315789474,0,0.694444444444444,0.298245614035088,ReadingArea_rsl0-rcl2-esl310-rsm0-rcm25-esm310-rsr0-rcr69-esr29,exr/ReadingArea_rsl0-rcl2-esl310-rsm0-rcm25-esm310-rsr0-rcr69-esr29.exr,ReadingArea_rsl0-rcl2-esl310-rsm0-rcm25-esm310-rsr0-rcr69-esr29.npz,,,,,0,90,90,315,,right,red,1.35,650.1389241218567,650.5490469932556,,,2,,8,1,lightness,readingArea,realistic,75,2023-03-28_13h31.23.437,tripletExp_regina_11082022,2022.2.4,119.19361164000114,
7,13,6,0,0.111111111111111,1.0,0,0.111111111111111,3.10526315789474,0,0.027777777777778,1.0,ReadingArea_rsl0-rcl11-esl100-rsm0-rcm11-esm310-rsr0-rcr2-esr100,exr/ReadingArea_rsl0-rcl11-esl100-rsm0-rcm11-esm310-rsr0-rcr2-esr100.exr,ReadingArea_rsl0-rcl11-esl100-rsm0-rcm11-esm310-rsr0-rcr2-esr100.npz,,,,,0,91,91,73,,left,green,1.26,652.251706123352,652.6664111614227,,,2,,8,1,lightness,readingArea,realistic,75,2023-03-28_13h31.23.437,tripletExp_regina_11082022,2022.2.4,119.19361164000114,
4,5,1,0,0.694444444444444,0.298245614035088,0,1.0,0.298245614035088,0,0.111111111111111,0.298245614035088,ReadingArea_rsl0-rcl69-esl29-rsm0-rcm100-esm29-rsr0-rcr11-esr29,exr/ReadingArea_rsl0-rcl69-esl29-rsm0-rcm100-esm29-rsr0-rcr11-esr29.exr,ReadingArea_rsl0-rcl69-esl29-rsm0-rcm100-esm29-rsr0-rcr11-esr29.npz,,,,,0,92,92,240,,left,green,0.89,654.3643560409546,654.7601451873779,,,2,,8,1,lightness,readingArea,realistic,75,2023-03-28_13h31.23.437,tripletExp_regina_11082022,2022.2.4,119.19361164000114,
2,12,13,0,0.25,0.298245614035088,0,0.027777777777778,3.10526315789474,0,0.111111111111111,3.10526315789474,ReadingArea_rsl0-rcl25-esl29-rsm0-rcm2-esm310-rsr0-rcr11-esr310,exr/ReadingArea_rsl0-rcl25-esl29-rsm0-rcm2-esm310-rsr0-rcr11-esr310.exr,ReadingArea_rsl0-rcl25-esl29-rsm0-rcm2-esm310-rsr0-rcr11-esr310.npz,,,,,0,93,93,232,,left,green,0.89,656.4499700069427,,,,2,,8,1,lightness,readingArea,realistic,75,2023-03-28_13h31.23.437,tripletExp_regina_11082022,2022.2.4,119.19361164000114,
14,6,7,0,0.25,3.10526315789474,0,0.027777777777778,1.0,0,0.111111111111111,1.0,ReadingArea_rsl0-rcl25-esl310-rsm0-rcm2-esm100-rsr0-rcr11-esr100,exr/ReadingArea_rsl0-rcl25-esl310-rsm0-rcm2-esm100-rsr0-rcr11-esr100.exr,ReadingArea_rsl0-rcl25-esl310-rsm0-rcm2-esm100-rsr0-rcr11-esr100.npz,,,,,0,94,94,306,,right,red,0.76,658.5464479923248,658.930006980896,,,2,,8,1,lightness,readingArea,realistic,75,2023-03-28_13h31.23.437,tripletExp_regina_11082022,2022.2.4,119.19361164000114,
6,11,3,0,0.027777777777778,1.0,0,1.0,1.0,0,0.444444444444444,0.298245614035088,ReadingArea_rsl0-rcl2-esl100-rsm0-rcm100-esm100-rsr0-rcr44-esr29,exr/ReadingArea_rsl0-rcl2-esl100-rsm0-rcm100-esm100-rsr0-rcr44-esr29.exr,ReadingArea_rsl0-rcl2-esl100-rsm0-rcm100-esm100-rsr0-rcr44-esr29.npz,,,,,0,95,95,11,,right,red,1.14,660.6352870464325,661.1035850048065,,,2,,8,1,lightness,readingArea,realistic,75,2023-03-28_13h31.23.437,tripletExp_regina_11082022,2022.2.4,119.19361164000114,
6,5,13,0,0.027777777777778,1.0,0,1.0,0.298245614035088,0,0.111111111111111,3.10526315789474,ReadingArea_rsl0-rcl2-esl100-rsm0-rcm100-esm29-rsr0-rcr11-esr310,exr/ReadingArea_rsl0-rcl2-esl100-rsm0-rcm100-esm29-rsr0-rcr11-esr310.exr,ReadingArea_rsl0-rcl2-esl100-rsm0-rcm100-esm29-rsr0-rcr11-esr310.npz,,,,,0,96,96,450,,right,red,0.72,662.8229901790619,663.2093579769135,,,2,,8,1,lightness,readingArea,realistic,75,2023-03-28_13h31.23.437,tripletExp_regina_11082022,2022.2.4,119.19361164000114,
13,10,11,0,0.111111111111111,3.10526315789474,0,0.694444444444444,1.0,0,1.0,1.0,ReadingArea_rsl0-rcl11-esl310-rsm0-rcm69-esm100-rsr0-rcr100-esr100,exr/ReadingArea_rsl0-rcl11-esl310-rsm0-rcm69-esm100-rsr0-rcr100-esr100.exr,ReadingArea_rsl0-rcl11-esl310-rsm0-rcm69-esm100-rsr0-rcr100-esr100.npz,,,,,0,97,97,320,,right,red,0.95,664.8957440853119,665.2826390266418,,,2,,8,1,lightness,readingArea,realistic,75,2023-03-28_13h31.23.437,tripletExp_regina_11082022,2022.2.4,119.19361164000114,
4,12,6,0,0.694444444444444,0.298245614035088,0,0.027777777777778,3.10526315789474,0,0.027777777777778,1.0,ReadingArea_rsl0-rcl69-esl29-rsm0-rcm2-esm310-rsr0-rcr2-esr100,exr/ReadingArea_rsl0-rcl69-esl29-rsm0-rcm2-esm310-rsr0-rcr2-esr100.exr,ReadingArea_rsl0-rcl69-esl29-rsm0-rcm2-esm310-rsr0-rcr2-esr100.npz,,,,,0,98,98,99,,right,red,0.83,667.0053391456604,667.4026231765747,,,2,,8,1,lightness,readingArea,realistic,75,2023-03-28_13h31.23.437,tripletExp_regina_11082022,2022.2.4,119.19361164000114,
12,9,2,0,0.027777777777778,3.10526315789474,0,0.444444444444444,1.0,0,0.25,0.298245614035088,ReadingArea_rsl0-rcl2-esl310-rsm0-rcm44-esm100-rsr0-rcr25-esr29,exr/ReadingArea_rsl0-rcl2-esl310-rsm0-rcm44-esm100-rsr0-rcr25-esr29.exr,ReadingArea_rsl0-rcl2-esl310-rsm0-rcm44-esm100-rsr0-rcr25-esr29.npz,,,,,0,99,99,226,,right,red,4.1,672.6419250965118,673.0387830734253,,,2,,8,1,lightness,readingArea,realistic,75,2023-03-28_13h31.23.437,tripletExp_regina_11082022,2022.2.4,119.19361164000114,
1,13,11,0,0.111111111111111,0.298245614035088,0,0.111111111111111,3.10526315789474,0,1.0,1.0,ReadingArea_rsl0-rcl11-esl29-rsm0-rcm11-esm310-rsr0-rcr100-esr100,exr/ReadingArea_rsl0-rcl11-esl29-rsm0-rcm11-esm310-rsr0-rcr100-esr100.exr,ReadingArea_rsl0-rcl11-esl29-rsm0-rcm11-esm310-rsr0-rcr100-esr100.npz,,,,,0,100,100,333,,right,red,0.75,674.7449440956116,675.131973028183,,,2,,8,1,lightness,readingArea,realistic,75,2023-03-28_13h31.23.437,tripletExp_regina_11082022,2022.2.4,119.19361164000114,
7,4,1,0,0.111111111111111,1.0,0,0.694444444444444,0.298245614035088,0,0.111111111111111,0.298245614035088,ReadingArea_rsl0-rcl11-esl100-rsm0-rcm69-esm29-rsr0-rcr11-esr29,exr/ReadingArea_rsl0-rcl11-esl100-rsm0-rcm69-esm29-rsr0-rcr11-esr29.exr,ReadingArea_rsl0-rcl11-esl100-rsm0-rcm69-esm29-rsr0-rcr11-esr29.npz,,,,,0,101,101,369,,left,green,2.2,678.6192920207977,679.0394051074982,,,2,,8,1,lightness,readingArea,realistic,75,2023-03-28_13h31.23.437,tripletExp_regina_11082022,2022.2.4,119.19361164000114,
12,3,10,0,0.027777777777778,3.10526315789474,0,0.444444444444444,0.298245614035088,0,0.694444444444444,1.0,ReadingArea_rsl0-rcl2-esl310-rsm0-rcm44-esm29-rsr0-rcr69-esr100,exr/ReadingArea_rsl0-rcl2-esl310-rsm0-rcm44-esm29-rsr0-rcr69-esr100.exr,ReadingArea_rsl0-rcl2-esl310-rsm0-rcm44-esm29-rsr0-rcr69-esr100.npz,,,,,0,102,102,437,,left,green,0.97,680.7510709762573,681.1393191814423,,,2,,8,1,lightness,readingArea,realistic,75,2023-03-28_13h31.23.437,tripletExp_regina_11082022,2022.2.4,119.19361164000114,
8,7,12,0,0.25,1.0,0,0.111111111111111,1.0,0,0.027777777777778,3.10526315789474,ReadingArea_rsl0-rcl25-esl100-rsm0-rcm11-esm100-rsr0-rcr2-esr310,exr/ReadingArea_rsl0-rcl25-esl100-rsm0-rcm11-esm100-rsr0-rcr2-esr310.exr,ReadingArea_rsl0-rcl25-esl100-rsm0-rcm11-esm100-rsr0-rcr2-esr310.npz,,,,,0,103,103,471,,right,red,0.8,682.8546900749207,683.2423751354218,,,2,,8,1,lightness,readingArea,realistic,75,2023-03-28_13h31.23.437,tripletExp_regina_11082022,2022.2.4,119.19361164000114,
13,7,11,0,0.111111111111111,3.10526315789474,0,0.111111111111111,1.0,0,1.0,1.0,ReadingArea_rsl0-rcl11-esl310-rsm0-rcm11-esm100-rsr0-rcr100-esr100,exr/ReadingArea_rsl0-rcl11-esl310-rsm0-rcm11-esm100-rsr0-rcr100-esr100.exr,ReadingArea_rsl0-rcl11-esl310-rsm0-rcm11-esm100-rsr0-rcr100-esr100.npz,,,,,0,104,104,121,,left,green,1.15,684.931095123291,685.3815491199493,,,2,,8,1,lightness,readingArea,realistic,75,2023-03-28_13h31.23.437,tripletExp_regina_11082022,2022.2.4,119.19361164000114,
0,10,14,0,0.027777777777778,0.298245614035088,0,0.694444444444444,1.0,0,0.25,3.10526315789474,ReadingArea_rsl0-rcl2-esl29-rsm0-rcm69-esm100-rsr0-rcr25-esr310,exr/ReadingArea_rsl0-rcl2-esl29-rsm0-rcm69-esm100-rsr0-rcr25-esr310.exr,ReadingArea_rsl0-rcl2-esl29-rsm0-rcm69-esm100-rsr0-rcr25-esr310.npz,,,,,0,105,105,31,,right,red,0.97,687.096999168396,687.4848310947418,,,2,,8,1,lightness,readingArea,realistic,75,2023-03-28_13h31.23.437,tripletExp_regina_11082022,2022.2.4,119.19361164000114,
4,5,8,0,0.694444444444444,0.298245614035088,0,1.0,0.298245614035088,0,0.25,1.0,ReadingArea_rsl0-rcl69-esl29-rsm0-rcm100-esm29-rsr0-rcr25-esr100,exr/ReadingArea_rsl0-rcl69-esl29-rsm0-rcm100-esm29-rsr0-rcr25-esr100.exr,ReadingArea_rsl0-rcl69-esl29-rsm0-rcm100-esm29-rsr0-rcr25-esr100.npz,,,,,0,106,106,54,,,red,0.97,692.7313451766968,693.1445331573486,,,2,692.4276764392853,8,1,lightness,readingArea,realistic,75,2023-03-28_13h31.23.437,tripletExp_regina_11082022,2022.2.4,119.19361164000114,
2,6,13,0,0.25,0.298245614035088,0,0.027777777777778,1.0,0,0.111111111111111,3.10526315789474,ReadingArea_rsl0-rcl25-esl29-rsm0-rcm2-esm100-rsr0-rcr11-esr310,exr/ReadingArea_rsl0-rcl25-esl29-rsm0-rcm2-esm100-rsr0-rcr11-esr310.exr,ReadingArea_rsl0-rcl25-esl29-rsm0-rcm2-esm100-rsr0-rcr11-esr310.npz,,,,,0,107,107,388,,left,green,1.5,694.8346560001373,695.2171549797058,,,2,,8,1,lightness,readingArea,realistic,75,2023-03-28_13h31.23.437,tripletExp_regina_11082022,2022.2.4,119.19361164000114,
0,12,7,0,0.027777777777778,0.298245614035088,0,0.027777777777778,3.10526315789474,0,0.111111111111111,1.0,ReadingArea_rsl0-rcl2-esl29-rsm0-rcm2-esm310-rsr0-rcr11-esr100,exr/ReadingArea_rsl0-rcl2-esl29-rsm0-rcm2-esm310-rsr0-rcr11-esr100.exr,ReadingArea_rsl0-rcl2-esl29-rsm0-rcm2-esm310-rsr0-rcr11-esr100.npz,,,,,0,108,108,481,,right,red,1.07,696.9350380897522,697.3164730072021,,,2,,8,1,lightness,readingArea,realistic,75,2023-03-28_13h31.23.437,tripletExp_regina_11082022,2022.2.4,119.19361164000114,
3,13,1,0,0.444444444444444,0.298245614035088,0,0.111111111111111,3.10526315789474,0,0.111111111111111,0.298245614035088,ReadingArea_rsl0-rcl44-esl29-rsm0-rcm11-esm310-rsr0-rcr11-esr29,exr/ReadingArea_rsl0-rcl44-esl29-rsm0-rcm11-esm310-rsr0-rcr11-esr29.exr,ReadingArea_rsl0-rcl44-esl29-rsm0-rcm11-esm310-rsr0-rcr11-esr29.npz,,,,,0,109,109,421,,left,green,2.14,700.811527967453,701.2115790843964,,,2,,8,1,lightness,readingArea,realistic,75,2023-03-28_13h31.23.437,tripletExp_regina_11082022,2022.2.4,119.19361164000114,
10,3,1,0,0.694444444444444,1.0,0,0.444444444444444,0.298245614035088,0,0.111111111111111,0.298245614035088,ReadingArea_rsl0-rcl69-esl100-rsm0-rcm44-esm29-rsr0-rcr11-esr29,exr/ReadingArea_rsl0-rcl69-esl100-rsm0-rcm44-esm29-rsr0-rcr11-esr29.exr,ReadingArea_rsl0-rcl69-esl100-rsm0-rcm44-esm29-rsr0-rcr11-esr29.npz,,,,,0,110,110,420,,right,red,2.17,704.6751689910889,705.067626953125,,,2,,8,1,lightness,readingArea,realistic,75,2023-03-28_13h31.23.437,tripletExp_regina_11082022,2022.2.4,119.19361164000114,
1,9,7,0,0.111111111111111,0.298245614035088,0,0.444444444444444,1.0,0,0.111111111111111,1.0,ReadingArea_rsl0-rcl11-esl29-rsm0-rcm44-esm100-rsr0-rcr11-esr100,exr/ReadingArea_rsl0-rcl11-esl29-rsm0-rcm44-esm100-rsr0-rcr11-esr100.exr,ReadingArea_rsl0-rcl11-esl29-rsm0-rcm44-esm100-rsr0-rcr11-esr100.npz,,,,,0,111,111,397,,right,red,0.99,706.7556509971619,707.1463119983673,,,2,,8,1,lightness,readingArea,realistic,75,2023-03-28_13h31.23.437,tripletExp_regina_11082022,2022.2.4,119.19361164000114,
13,0,14,0,0.111111111111111,3.10526315789474,0,0.027777777777778,0.298245614035088,0,0.25,3.10526315789474,ReadingArea_rsl0-rcl11-esl310-rsm0-rcm2-esm29-rsr0-rcr25-esr310,exr/ReadingArea_rsl0-rcl11-esl310-rsm0-rcm2-esm29-rsr0-rcr25-esr310.exr,ReadingArea_rsl0-rcl11-esl310-rsm0-rcm2-esm29-rsr0-rcr25-esr310.npz,,,,,0,112,112,278,,left,green,1.56,708.8311250209808,709.2254559993744,,,2,,8,1,lightness,readingArea,realistic,75,2023-03-28_13h31.23.437,tripletExp_regina_11082022,2022.2.4,119.19361164000114,
8,1,10,0,0.25,1.0,0,0.111111111111111,0.298245614035088,0,0.694444444444444,1.0,ReadingArea_rsl0-rcl25-esl100-rsm0-rcm11-esm29-rsr0-rcr69-esr100,exr/ReadingArea_rsl0-rcl25-esl100-rsm0-rcm11-esm29-rsr0-rcr69-esr100.exr,ReadingArea_rsl0-rcl25-esl100-rsm0-rcm11-esm29-rsr0-rcr69-esr100.npz,,,,,0,113,113,442,,left,green,1.38,710.9373080730438,711.3388991355896,,,2,,8,1,lightness,readingArea,realistic,75,2023-03-28_13h31.23.437,tripletExp_regina_11082022,2022.2.4,119.19361164000114,
3,6,10,0,0.444444444444444,0.298245614035088,0,0.027777777777778,1.0,0,0.694444444444444,1.0,ReadingArea_rsl0-rcl44-esl29-rsm0-rcm2-esm100-rsr0-rcr69-esr100,exr/ReadingArea_rsl0-rcl44-esl29-rsm0-rcm2-esm100-rsr0-rcr69-esr100.exr,ReadingArea_rsl0-rcl44-esl29-rsm0-rcm2-esm100-rsr0-rcr69-esr100.npz,,,,,0,114,114,138,,left,green,0.68,713.0552389621735,713.4431891441345,,,2,,8,1,lightness,readingArea,realistic,75,2023-03-28_13h31.23.437,tripletExp_regina_11082022,2022.2.4,119.19361164000114,
1,6,11,0,0.111111111111111,0.298245614035088,0,0.027777777777778,1.0,0,1.0,1.0,ReadingArea_rsl0-rcl11-esl29-rsm0-rcm2-esm100-rsr0-rcr100-esr100,exr/ReadingArea_rsl0-rcl11-esl29-rsm0-rcm2-esm100-rsr0-rcr100-esr100.exr,ReadingArea_rsl0-rcl11-esl29-rsm0-rcm2-esm100-rsr0-rcr100-esr100.npz,,,,,0,115,115,39,,left,green,0.97,715.1485450267792,715.5269961357117,,,2,,8,1,lightness,readingArea,realistic,75,2023-03-28_13h31.23.437,tripletExp_regina_11082022,2022.2.4,119.19361164000114,
11,5,8,0,1.0,1.0,0,1.0,0.298245614035088,0,0.25,1.0,ReadingArea_rsl0-rcl100-esl100-rsm0-rcm100-esm29-rsr0-rcr25-esr100,exr/ReadingArea_rsl0-rcl100-esl100-rsm0-rcm100-esm29-rsr0-rcr25-esr100.exr,ReadingArea_rsl0-rcl100-esl100-rsm0-rcm100-esm29-rsr0-rcr25-esr100.npz,,,,,0,116,116,86,,right,red,1.05,717.2381391525269,717.6129140853882,,,2,,8,1,lightness,readingArea,realistic,75,2023-03-28_13h31.23.437,tripletExp_regina_11082022,2022.2.4,119.19361164000114,
6,2,12,0,0.027777777777778,1.0,0,0.25,0.298245614035088,0,0.027777777777778,3.10526315789474,ReadingArea_rsl0-rcl2-esl100-rsm0-rcm25-esm29-rsr0-rcr2-esr310,exr/ReadingArea_rsl0-rcl2-esl100-rsm0-rcm25-esm29-rsr0-rcr2-esr310.exr,ReadingArea_rsl0-rcl2-esl100-rsm0-rcm25-esm29-rsr0-rcr2-esr310.npz,,,,,0,117,117,480,,right,red,0.81,719.316663980484,719.7573430538177,,,2,,8,1,lightness,readingArea,realistic,75,2023-03-28_13h31.23.437,tripletExp_regina_11082022,2022.2.4,119.19361164000114,
7,12,3,0,0.111111111111111,1.0,0,0.027777777777778,3.10526315789474,0,0.444444444444444,0.298245614035088,ReadingArea_rsl0-rcl11-esl100-rsm0-rcm2-esm310-rsr0-rcr44-esr29,exr/ReadingArea_rsl0-rcl11-esl100-rsm0-rcm2-esm310-rsr0-rcr44-esr29.exr,ReadingArea_rsl0-rcl11-esl100-rsm0-rcm2-esm310-rsr0-rcr44-esr29.npz,,,,,0,118,118,584,,left,green,2.39,723.2608950138092,723.6541140079498,,,2,,8,1,lightness,readingArea,realistic,75,2023-03-28_13h31.23.437,tripletExp_regina_11082022,2022.2.4,119.19361164000114,
12,3,11,0,0.027777777777778,3.10526315789474,0,0.444444444444444,0.298245614035088,0,1.0,1.0,ReadingArea_rsl0-rcl2-esl310-rsm0-rcm44-esm29-rsr0-rcr100-esr100,exr/ReadingArea_rsl0-rcl2-esl310-rsm0-rcm44-esm29-rsr0-rcr100-esr100.exr,ReadingArea_rsl0-rcl2-esl310-rsm0-rcm44-esm29-rsr0-rcr100-esr100.npz,,,,,0,119,119,83,,left,green,0.77,725.3662140369415,725.7670750617981,,,2,,8,1,lightness,readingArea,realistic,75,2023-03-28_13h31.23.437,tripletExp_regina_11082022,2022.2.4,119.19361164000114,
12,13,7,0,0.027777777777778,3.10526315789474,0,0.111111111111111,3.10526315789474,0,0.111111111111111,1.0,ReadingArea_rsl0-rcl2-esl310-rsm0-rcm11-esm310-rsr0-rcr11-esr100,exr/ReadingArea_rsl0-rcl2-esl310-rsm0-rcm11-esm310-rsr0-rcr11-esr100.exr,ReadingArea_rsl0-rcl2-esl310-rsm0-rcm11-esm310-rsr0-rcr11-esr100.npz,,,,,0,120,120,408,,right,red,2.55,729.2421100139618,729.6313560009003,,,2,,8,1,lightness,readingArea,realistic,75,2023-03-28_13h31.23.437,tripletExp_regina_11082022,2022.2.4,119.19361164000114,
8,10,9,0,0.25,1.0,0,0.694444444444444,1.0,0,0.444444444444444,1.0,ReadingArea_rsl0-rcl25-esl100-rsm0-rcm69-esm100-rsr0-rcr44-esr100,exr/ReadingArea_rsl0-rcl25-esl100-rsm0-rcm69-esm100-rsr0-rcr44-esr100.exr,ReadingArea_rsl0-rcl25-esl100-rsm0-rcm69-esm100-rsr0-rcr44-esr100.npz,,,,,0,121,121,342,,right,red,0.74,731.3508961200714,731.7228569984436,,,2,,8,1,lightness,readingArea,realistic,75,2023-03-28_13h31.23.437,tripletExp_regina_11082022,2022.2.4,119.19361164000114,
14,0,6,0,0.25,3.10526315789474,0,0.027777777777778,0.298245614035088,0,0.027777777777778,1.0,ReadingArea_rsl0-rcl25-esl310-rsm0-rcm2-esm29-rsr0-rcr2-esr100,exr/ReadingArea_rsl0-rcl25-esl310-rsm0-rcm2-esm29-rsr0-rcr2-esr100.exr,ReadingArea_rsl0-rcl25-esl310-rsm0-rcm2-esm29-rsr0-rcr2-esr100.npz,,,,,0,122,122,496,,right,red,0.76,733.41614818573,733.8144869804382,,,2,,8,1,lightness,readingArea,realistic,75,2023-03-28_13h31.23.437,tripletExp_regina_11082022,2022.2.4,119.19361164000114,
4,11,12,0,0.694444444444444,0.298245614035088,0,1.0,1.0,0,0.027777777777778,3.10526315789474,ReadingArea_rsl0-rcl69-esl29-rsm0-rcm100-esm100-rsr0-rcr2-esr310,exr/ReadingArea_rsl0-rcl69-esl29-rsm0-rcm100-esm100-rsr0-rcr2-esr310.exr,ReadingArea_rsl0-rcl69-esl29-rsm0-rcm100-esm100-rsr0-rcr2-esr310.npz,,,,,0,123,123,109,,left,green,1.13,735.5336010456085,735.9136011600494,,,2,,8,1,lightness,readingArea,realistic,75,2023-03-28_13h31.23.437,tripletExp_regina_11082022,2022.2.4,119.19361164000114,
2,4,13,0,0.25,0.298245614035088,0,0.694444444444444,0.298245614035088,0,0.111111111111111,3.10526315789474,ReadingArea_rsl0-rcl25-esl29-rsm0-rcm69-esm29-rsr0-rcr11-esr310,exr/ReadingArea_rsl0-rcl25-esl29-rsm0-rcm69-esm29-rsr0-rcr11-esr310.exr,ReadingArea_rsl0-rcl25-esl29-rsm0-rcm69-esm29-rsr0-rcr11-esr310.npz,,,,,0,124,124,325,,right,red,0.72,737.6059470176697,737.9983539581299,,,2,,8,1,lightness,readingArea,realistic,75,2023-03-28_13h31.23.437,tripletExp_regina_11082022,2022.2.4,119.19361164000114,
12,10,9,0,0.027777777777778,3.10526315789474,0,0.694444444444444,1.0,0,0.444444444444444,1.0,ReadingArea_rsl0-rcl2-esl310-rsm0-rcm69-esm100-rsr0-rcr44-esr100,exr/ReadingArea_rsl0-rcl2-esl310-rsm0-rcm69-esm100-rsr0-rcr44-esr100.exr,ReadingArea_rsl0-rcl2-esl310-rsm0-rcm69-esm100-rsr0-rcr44-esr100.npz,,,,,0,125,125,126,,right,red,0.85,739.7144260406494,740.094633102417,,,2,,8,1,lightness,readingArea,realistic,75,2023-03-28_13h31.23.437,tripletExp_regina_11082022,2022.2.4,119.19361164000114,
12,6,14,0,0.027777777777778,3.10526315789474,0,0.027777777777778,1.0,0,0.25,3.10526315789474,ReadingArea_rsl0-rcl2-esl310-rsm0-rcm2-esm100-rsr0-rcr25-esr310,exr/ReadingArea_rsl0-rcl2-esl310-rsm0-rcm2-esm100-rsr0-rcr25-esr310.exr,ReadingArea_rsl0-rcl2-esl310-rsm0-rcm2-esm100-rsr0-rcr25-esr310.npz,,,,,0,126,126,218,,left,green,0.71,741.7922170162201,742.1764640808105,,,2,,8,1,lightness,readingArea,realistic,75,2023-03-28_13h31.23.437,tripletExp_regina_11082022,2022.2.4,119.19361164000114,
6,11,8,0,0.027777777777778,1.0,0,1.0,1.0,0,0.25,1.0,ReadingArea_rsl0-rcl2-esl100-rsm0-rcm100-esm100-rsr0-rcr25-esr100,exr/ReadingArea_rsl0-rcl2-esl100-rsm0-rcm100-esm100-rsr0-rcr25-esr100.exr,ReadingArea_rsl0-rcl2-esl100-rsm0-rcm100-esm100-rsr0-rcr25-esr100.npz,,,,,0,127,127,176,,right,red,1.04,743.8972861766815,744.3151659965515,,,2,,8,1,lightness,readingArea,realistic,75,2023-03-28_13h31.23.437,tripletExp_regina_11082022,2022.2.4,119.19361164000114,
2,12,6,0,0.25,0.298245614035088,0,0.027777777777778,3.10526315789474,0,0.027777777777778,1.0,ReadingArea_rsl0-rcl25-esl29-rsm0-rcm2-esm310-rsr0-rcr2-esr100,exr/ReadingArea_rsl0-rcl25-esl29-rsm0-rcm2-esm310-rsr0-rcr2-esr100.exr,ReadingArea_rsl0-rcl25-esl29-rsm0-rcm2-esm310-rsr0-rcr2-esr100.npz,,,,,0,128,128,400,,left,green,0.88,746.0334639549255,746.4219479560852,,,2,,8,1,lightness,readingArea,realistic,75,2023-03-28_13h31.23.437,tripletExp_regina_11082022,2022.2.4,119.19361164000114,
7,13,4,0,0.111111111111111,1.0,0,0.111111111111111,3.10526315789474,0,0.694444444444444,0.298245614035088,ReadingArea_rsl0-rcl11-esl100-rsm0-rcm11-esm310-rsr0-rcr69-esr29,exr/ReadingArea_rsl0-rcl11-esl100-rsm0-rcm11-esm310-rsr0-rcr69-esr29.exr,ReadingArea_rsl0-rcl11-esl100-rsm0-rcm11-esm310-rsr0-rcr69-esr29.npz,,,,,0,129,129,456,,right,red,1.2,748.1435101032257,748.5375511646271,,,2,,8,1,lightness,readingArea,realistic,75,2023-03-28_13h31.23.437,tripletExp_regina_11082022,2022.2.4,119.19361164000114,
4,12,5,0,0.694444444444444,0.298245614035088,0,0.027777777777778,3.10526315789474,0,1.0,0.298245614035088,ReadingArea_rsl0-rcl69-esl29-rsm0-rcm2-esm310-rsr0-rcr100-esr29,exr/ReadingArea_rsl0-rcl69-esl29-rsm0-rcm2-esm310-rsr0-rcr100-esr29.exr,ReadingArea_rsl0-rcl69-esl29-rsm0-rcm2-esm310-rsr0-rcr100-esr29.npz,,,,,0,130,130,296,,left,green,3.95,753.8212730884552,754.2084131240845,,,2,,8,1,lightness,readingArea,realistic,75,2023-03-28_13h31.23.437,tripletExp_regina_11082022,2022.2.4,119.19361164000114,
3,0,4,0,0.444444444444444,0.298245614035088,0,0.027777777777778,0.298245614035088,0,0.694444444444444,0.298245614035088,ReadingArea_rsl0-rcl44-esl29-rsm0-rcm2-esm29-rsr0-rcr69-esr29,exr/ReadingArea_rsl0-rcl44-esl29-rsm0-rcm2-esm29-rsr0-rcr69-esr29.exr,ReadingArea_rsl0-rcl44-esl29-rsm0-rcm2-esm29-rsr0-rcr69-esr29.npz,,,,,0,131,131,111,,left,green,3.9,759.4518649578094,759.8398351669312,,,2,,8,1,lightness,readingArea,realistic,75,2023-03-28_13h31.23.437,tripletExp_regina_11082022,2022.2.4,119.19361164000114,
8,14,6,0,0.25,1.0,0,0.25,3.10526315789474,0,0.027777777777778,1.0,ReadingArea_rsl0-rcl25-esl100-rsm0-rcm25-esm310-rsr0-rcr2-esr100,exr/ReadingArea_rsl0-rcl25-esl100-rsm0-rcm25-esm310-rsr0-rcr2-esr100.exr,ReadingArea_rsl0-rcl25-esl100-rsm0-rcm25-esm310-rsr0-rcr2-esr100.npz,,,,,0,132,132,469,,left,green,0.89,761.5497100353241,761.9468610286713,,,2,,8,1,lightness,readingArea,realistic,75,2023-03-28_13h31.23.437,tripletExp_regina_11082022,2022.2.4,119.19361164000114,
0,9,14,0,0.027777777777778,0.298245614035088,0,0.444444444444444,1.0,0,0.25,3.10526315789474,ReadingArea_rsl0-rcl2-esl29-rsm0-rcm44-esm100-rsr0-rcr25-esr310,exr/ReadingArea_rsl0-rcl2-esl29-rsm0-rcm44-esm100-rsr0-rcr25-esr310.exr,ReadingArea_rsl0-rcl2-esl29-rsm0-rcm44-esm100-rsr0-rcr25-esr310.npz,,,,,0,133,133,433,,right,red,0.72,763.657881975174,,,,2,,8,1,lightness,readingArea,realistic,75,2023-03-28_13h31.23.437,tripletExp_regina_11082022,2022.2.4,119.19361164000114,
9,4,11,0,0.444444444444444,1.0,0,0.694444444444444,0.298245614035088,0,1.0,1.0,ReadingArea_rsl0-rcl44-esl100-rsm0-rcm69-esm29-rsr0-rcr100-esr100,exr/ReadingArea_rsl0-rcl44-esl100-rsm0-rcm69-esm29-rsr0-rcr100-esr100.exr,ReadingArea_rsl0-rcl44-esl100-rsm0-rcm69-esm29-rsr0-rcr100-esr100.npz,,,,,0,134,134,133,,left,green,2.17,767.5344669818878,767.9457330703735,,,2,,8,1,lightness,readingArea,realistic,75,2023-03-28_13h31.23.437,tripletExp_regina_11082022,2022.2.4,119.19361164000114,
14,12,9,0,0.25,3.10526315789474,0,0.027777777777778,3.10526315789474,0,0.444444444444444,1.0,ReadingArea_rsl0-rcl25-esl310-rsm0-rcm2-esm310-rsr0-rcr44-esr100,exr/ReadingArea_rsl0-rcl25-esl310-rsm0-rcm2-esm310-rsr0-rcr44-esr100.exr,ReadingArea_rsl0-rcl25-esl310-rsm0-rcm2-esm310-rsr0-rcr44-esr100.npz,,,,,0,135,135,40,,right,red,2.31,771.4205150604248,771.8254890441895,,,2,,8,1,lightness,readingArea,realistic,75,2023-03-28_13h31.23.437,tripletExp_regina_11082022,2022.2.4,119.19361164000114,
4,10,6,0,0.694444444444444,0.298245614035088,0,0.694444444444444,1.0,0,0.027777777777778,1.0,ReadingArea_rsl0-rcl69-esl29-rsm0-rcm69-esm100-rsr0-rcr2-esr100,exr/ReadingArea_rsl0-rcl69-esl29-rsm0-rcm69-esm100-rsr0-rcr2-esr100.exr,ReadingArea_rsl0-rcl69-esl29-rsm0-rcm69-esm100-rsr0-rcr2-esr100.npz,,,,,0,136,136,468,,left,green,2.17,775.3176779747009,775.7139070034027,,,2,,8,1,lightness,readingArea,realistic,75,2023-03-28_13h31.23.437,tripletExp_regina_11082022,2022.2.4,119.19361164000114,
2,14,1,0,0.25,0.298245614035088,0,0.25,3.10526315789474,0,0.111111111111111,0.298245614035088,ReadingArea_rsl0-rcl25-esl29-rsm0-rcm25-esm310-rsr0-rcr11-esr29,exr/ReadingArea_rsl0-rcl25-esl29-rsm0-rcm25-esm310-rsr0-rcr11-esr29.exr,ReadingArea_rsl0-rcl25-esl29-rsm0-rcm25-esm310-rsr0-rcr11-esr29.npz,,,,,0,137,137,579,,left,green,1.01,777.4312560558319,777.9296309947968,,,2,,8,1,lightness,readingArea,realistic,75,2023-03-28_13h31.23.437,tripletExp_regina_11082022,2022.2.4,119.19361164000114,
8,6,13,0,0.25,1.0,0,0.027777777777778,1.0,0,0.111111111111111,3.10526315789474,ReadingArea_rsl0-rcl25-esl100-rsm0-rcm2-esm100-rsr0-rcr11-esr310,exr/ReadingArea_rsl0-rcl25-esl100-rsm0-rcm2-esm100-rsr0-rcr11-esr310.exr,ReadingArea_rsl0-rcl25-esl100-rsm0-rcm2-esm100-rsr0-rcr11-esr310.npz,,,,,0,138,138,440,,left,green,3.93,783.1848781108856,783.6699340343475,,,2,,8,1,lightness,readingArea,realistic,75,2023-03-28_13h31.23.437,tripletExp_regina_11082022,2022.2.4,119.19361164000114,
10,7,3,0,0.694444444444444,1.0,0,0.111111111111111,1.0,0,0.444444444444444,0.298245614035088,ReadingArea_rsl0-rcl69-esl100-rsm0-rcm11-esm100-rsr0-rcr44-esr29,exr/ReadingArea_rsl0-rcl69-esl100-rsm0-rcm11-esm100-rsr0-rcr44-esr29.exr,ReadingArea_rsl0-rcl69-esl100-rsm0-rcm11-esm100-rsr0-rcr44-esr29.npz,,,,,0,139,139,582,,right,red,0.75,785.3755910396576,785.7703881263733,,,2,,8,1,lightness,readingArea,realistic,75,2023-03-28_13h31.23.437,tripletExp_regina_11082022,2022.2.4,119.19361164000114,
3,14,4,0,0.444444444444444,0.298245614035088,0,0.25,3.10526315789474,0,0.694444444444444,0.298245614035088,ReadingArea_rsl0-rcl44-esl29-rsm0-rcm25-esm310-rsr0-rcr69-esr29,exr/ReadingArea_rsl0-rcl44-esl29-rsm0-rcm25-esm310-rsr0-rcr69-esr29.exr,ReadingArea_rsl0-rcl44-esl29-rsm0-rcm25-esm310-rsr0-rcr69-esr29.npz,,,,,0,140,140,537,,right,red,2.2,789.2451710700989,,,,2,,8,1,lightness,readingArea,realistic,75,2023-03-28_13h31.23.437,tripletExp_regina_11082022,2022.2.4,119.19361164000114,
10,8,1,0,0.694444444444444,1.0,0,0.25,1.0,0,0.111111111111111,0.298245614035088,ReadingArea_rsl0-rcl69-esl100-rsm0-rcm25-esm100-rsr0-rcr11-esr29,exr/ReadingArea_rsl0-rcl69-esl100-rsm0-rcm25-esm100-rsr0-rcr11-esr29.exr,ReadingArea_rsl0-rcl69-esl100-rsm0-rcm25-esm100-rsr0-rcr11-esr29.npz,,,,,0,141,141,247,,left,green,1.09,791.3926930427551,791.7815520763397,,,2,,8,1,lightness,readingArea,realistic,75,2023-03-28_13h31.23.437,tripletExp_regina_11082022,2022.2.4,119.19361164000114,
4,8,7,0,0.694444444444444,0.298245614035088,0,0.25,1.0,0,0.111111111111111,1.0,ReadingArea_rsl0-rcl69-esl29-rsm0-rcm25-esm100-rsr0-rcr11-esr100,exr/ReadingArea_rsl0-rcl69-esl29-rsm0-rcm25-esm100-rsr0-rcr11-esr100.exr,ReadingArea_rsl0-rcl69-esl29-rsm0-rcm25-esm100-rsr0-rcr11-esr100.npz,,,,,0,142,142,461,,left,green,2.57,795.2427861690521,795.641016960144,,,2,,8,1,lightness,readingArea,realistic,75,2023-03-28_13h31.23.437,tripletExp_regina_11082022,2022.2.4,119.19361164000114,
9,7,10,0,0.444444444444444,1.0,0,0.111111111111111,1.0,0,0.694444444444444,1.0,ReadingArea_rsl0-rcl44-esl100-rsm0-rcm11-esm100-rsr0-rcr69-esr100,exr/ReadingArea_rsl0-rcl44-esl100-rsm0-rcm11-esm100-rsr0-rcr69-esr100.exr,ReadingArea_rsl0-rcl44-esl100-rsm0-rcm11-esm100-rsr0-rcr69-esr100.npz,,,,,0,143,143,508,,left,green,3.94,800.9257700443268,801.3533141613007,,,2,,8,1,lightness,readingArea,realistic,75,2023-03-28_13h31.23.437,tripletExp_regina_11082022,2022.2.4,119.19361164000114,
14,9,0,0,0.25,3.10526315789474,0,0.444444444444444,1.0,0,0.027777777777778,0.298245614035088,ReadingArea_rsl0-rcl25-esl310-rsm0-rcm44-esm100-rsr0-rcr2-esr29,exr/ReadingArea_rsl0-rcl25-esl310-rsm0-rcm44-esm100-rsr0-rcr2-esr29.exr,ReadingArea_rsl0-rcl25-esl310-rsm0-rcm44-esm100-rsr0-rcr2-esr29.npz,,,,,0,144,144,313,,left,green,0.77,803.0674870014191,803.4613420963287,,,2,,8,1,lightness,readingArea,realistic,75,2023-03-28_13h31.23.437,tripletExp_regina_11082022,2022.2.4,119.19361164000114,
4,3,1,0,0.694444444444444,0.298245614035088,0,0.444444444444444,0.298245614035088,0,0.111111111111111,0.298245614035088,ReadingArea_rsl0-rcl69-esl29-rsm0-rcm44-esm29-rsr0-rcr11-esr29,exr/ReadingArea_rsl0-rcl69-esl29-rsm0-rcm44-esm29-rsr0-rcr11-esr29.exr,ReadingArea_rsl0-rcl69-esl29-rsm0-rcm44-esm29-rsr0-rcr11-esr29.npz,,,,,0,145,145,60,,left,green,0.64,805.1788530349731,805.5752081871033,,,2,,8,1,lightness,readingArea,realistic,75,2023-03-28_13h31.23.437,tripletExp_regina_11082022,2022.2.4,119.19361164000114,
4,9,13,0,0.694444444444444,0.298245614035088,0,0.444444444444444,1.0,0,0.111111111111111,3.10526315789474,ReadingArea_rsl0-rcl69-esl29-rsm0-rcm44-esm100-rsr0-rcr11-esr310,exr/ReadingArea_rsl0-rcl69-esl29-rsm0-rcm44-esm100-rsr0-rcr11-esr310.exr,ReadingArea_rsl0-rcl69-esl29-rsm0-rcm44-esm100-rsr0-rcr11-esr310.npz,,,,,0,146,146,488,,right,red,2.6,809.060714006424,809.4525980949402,,,2,,8,1,lightness,readingArea,realistic,75,2023-03-28_13h31.23.437,tripletExp_regina_11082022,2022.2.4,119.19361164000114,
5,14,11,0,1.0,0.298245614035088,0,0.25,3.10526315789474,0,1.0,1.0,ReadingArea_rsl0-rcl100-esl29-rsm0-rcm25-esm310-rsr0-rcr100-esr100,exr/ReadingArea_rsl0-rcl100-esl29-rsm0-rcm25-esm310-rsr0-rcr100-esr100.exr,ReadingArea_rsl0-rcl100-esl29-rsm0-rcm25-esm310-rsr0-rcr100-esr100.npz,,,,,0,147,147,98,,right,red,0.82,811.1438369750977,811.5387361049652,,,2,,8,1,lightness,readingArea,realistic,75,2023-03-28_13h31.23.437,tripletExp_regina_11082022,2022.2.4,119.19361164000114,
9,4,6,0,0.444444444444444,1.0,0,0.694444444444444,0.298245614035088,0,0.027777777777778,1.0,ReadingArea_rsl0-rcl44-esl100-rsm0-rcm69-esm29-rsr0-rcr2-esr100,exr/ReadingArea_rsl0-rcl44-esl100-rsm0-rcm69-esm29-rsr0-rcr2-esr100.exr,ReadingArea_rsl0-rcl44-esl100-rsm0-rcm69-esm29-rsr0-rcr2-esr100.npz,,,,,0,148,148,453,,left,green,2.11,814.9900460243225,815.4433510303497,,,2,,8,1,lightness,readingArea,realistic,75,2023-03-28_13h31.23.437,tripletExp_regina_11082022,2022.2.4,119.19361164000114,
11,3,12,0,1.0,1.0,0,0.444444444444444,0.298245614035088,0,0.027777777777778,3.10526315789474,ReadingArea_rsl0-rcl100-esl100-rsm0-rcm44-esm29-rsr0-rcr2-esr310,exr/ReadingArea_rsl0-rcl100-esl100-rsm0-rcm44-esm29-rsr0-rcr2-esr310.exr,ReadingArea_rsl0-rcl100-esl100-rsm0-rcm44-esm29-rsr0-rcr2-esr310.npz,,,,,0,149,149,355,,left,green,0.6,817.1357011795044,817.3401920795441,,,2,,8,1,lightness,readingArea,realistic,75,2023-03-28_13h31.23.437,tripletExp_regina_11082022,2022.2.4,119.19361164000114,
10,2,0,0,0.694444444444444,1.0,0,0.25,0.298245614035088,0,0.027777777777778,0.298245614035088,ReadingArea_rsl0-rcl69-esl100-rsm0-rcm25-esm29-rsr0-rcr2-esr29,exr/ReadingArea_rsl0-rcl69-esl100-rsm0-rcm25-esm29-rsr0-rcr2-esr29.exr,ReadingArea_rsl0-rcl69-esl100-rsm0-rcm25-esm29-rsr0-rcr2-esr29.npz,,,,,0,150,150,427,,left,green,1.29,839.3541600704193,839.7560751438141,,,3,,8,1,lightness,readingArea,realistic,75,2023-03-28_13h31.23.437,tripletExp_regina_11082022,2022.2.4,119.19361164000114,
10,6,8,0,0.694444444444444,1.0,0,0.027777777777778,1.0,0,0.25,1.0,ReadingArea_rsl0-rcl69-esl100-rsm0-rcm2-esm100-rsr0-rcr25-esr100,exr/ReadingArea_rsl0-rcl69-esl100-rsm0-rcm2-esm100-rsr0-rcr25-esr100.exr,ReadingArea_rsl0-rcl69-esl100-rsm0-rcm2-esm100-rsr0-rcr25-esr100.npz,,,,,0,151,151,145,,right,red,1.34,841.4735851287842,841.8644590377808,,,3,,8,1,lightness,readingArea,realistic,75,2023-03-28_13h31.23.437,tripletExp_regina_11082022,2022.2.4,119.19361164000114,
7,12,0,0,0.111111111111111,1.0,0,0.027777777777778,3.10526315789474,0,0.027777777777778,0.298245614035088,ReadingArea_rsl0-rcl11-esl100-rsm0-rcm2-esm310-rsr0-rcr2-esr29,exr/ReadingArea_rsl0-rcl11-esl100-rsm0-rcm2-esm310-rsr0-rcr2-esr29.exr,ReadingArea_rsl0-rcl11-esl100-rsm0-rcm2-esm310-rsr0-rcr2-esr29.npz,,,,,0,152,152,425,,left,green,0.92,843.5792951583862,,,,3,,8,1,lightness,readingArea,realistic,75,2023-03-28_13h31.23.437,tripletExp_regina_11082022,2022.2.4,119.19361164000114,
13,4,0,0,0.111111111111111,3.10526315789474,0,0.694444444444444,0.298245614035088,0,0.027777777777778,0.298245614035088,ReadingArea_rsl0-rcl11-esl310-rsm0-rcm69-esm29-rsr0-rcr2-esr29,exr/ReadingArea_rsl0-rcl11-esl310-rsm0-rcm69-esm29-rsr0-rcr2-esr29.exr,ReadingArea_rsl0-rcl11-esl310-rsm0-rcm69-esm29-rsr0-rcr2-esr29.npz,,,,,0,153,153,269,,left,green,0.84,845.6740169525146,846.0710361003876,,,3,,8,1,lightness,readingArea,realistic,75,2023-03-28_13h31.23.437,tripletExp_regina_11082022,2022.2.4,119.19361164000114,
12,8,3,0,0.027777777777778,3.10526315789474,0,0.25,1.0,0,0.444444444444444,0.298245614035088,ReadingArea_rsl0-rcl2-esl310-rsm0-rcm25-esm100-rsr0-rcr44-esr29,exr/ReadingArea_rsl0-rcl2-esl310-rsm0-rcm25-esm100-rsr0-rcr44-esr29.exr,ReadingArea_rsl0-rcl2-esl310-rsm0-rcm25-esm100-rsr0-rcr44-esr29.npz,,,,,0,154,154,386,,right,red,0.81,847.7841000556946,848.200227022171,,,3,,8,1,lightness,readingArea,realistic,75,2023-03-28_13h31.23.437,tripletExp_regina_11082022,2022.2.4,119.19361164000114,
9,0,3,0,0.444444444444444,1.0,0,0.027777777777778,0.298245614035088,0,0.444444444444444,0.298245614035088,ReadingArea_rsl0-rcl44-esl100-rsm0-rcm2-esm29-rsr0-rcr44-esr29,exr/ReadingArea_rsl0-rcl44-esl100-rsm0-rcm2-esm29-rsr0-rcr44-esr29.exr,ReadingArea_rsl0-rcl44-esl100-rsm0-rcm2-esm29-rsr0-rcr44-esr29.npz,,,,,0,155,155,2,,right,red,1.0,849.8874611854553,850.3091971874237,,,3,,8,1,lightness,readingArea,realistic,75,2023-03-28_13h31.23.437,tripletExp_regina_11082022,2022.2.4,119.19361164000114,
11,2,8,0,1.0,1.0,0,0.25,0.298245614035088,0,0.25,1.0,ReadingArea_rsl0-rcl100-esl100-rsm0-rcm25-esm29-rsr0-rcr25-esr100,exr/ReadingArea_rsl0-rcl100-esl100-rsm0-rcm25-esm29-rsr0-rcr25-esr100.exr,ReadingArea_rsl0-rcl100-esl100-rsm0-rcm25-esm29-rsr0-rcr25-esr100.npz,,,,,0,156,156,214,,right,red,0.84,852.0149199962616,852.4143450260162,,,3,,8,1,lightness,readingArea,realistic,75,2023-03-28_13h31.23.437,tripletExp_regina_11082022,2022.2.4,119.19361164000114,
7,9,5,0,0.111111111111111,1.0,0,0.444444444444444,1.0,0,1.0,0.298245614035088,ReadingArea_rsl0-rcl11-esl100-rsm0-rcm44-esm100-rsr0-rcr100-esr29,exr/ReadingArea_rsl0-rcl11-esl100-rsm0-rcm44-esm100-rsr0-rcr100-esr29.exr,ReadingArea_rsl0-rcl11-esl100-rsm0-rcm44-esm100-rsr0-rcr100-esr29.npz,,,,,0,157,157,291,,right,red,0.81,854.131982088089,854.5294880867004,,,3,,8,1,lightness,readingArea,realistic,75,2023-03-28_13h31.23.437,tripletExp_regina_11082022,2022.2.4,119.19361164000114,
6,0,1,0,0.027777777777778,1.0,0,0.027777777777778,0.298245614035088,0,0.111111111111111,0.298245614035088,ReadingArea_rsl0-rcl2-esl100-rsm0-rcm2-esm29-rsr0-rcr11-esr29,exr/ReadingArea_rsl0-rcl2-esl100-rsm0-rcm2-esm29-rsr0-rcr11-esr29.exr,ReadingArea_rsl0-rcl2-esl100-rsm0-rcm2-esm29-rsr0-rcr11-esr29.npz,,,,,0,158,158,302,,left,green,2.71,858.0041651725769,858.3939290046692,,,3,,8,1,lightness,readingArea,realistic,75,2023-03-28_13h31.23.437,tripletExp_regina_11082022,2022.2.4,119.19361164000114,
6,12,3,0,0.027777777777778,1.0,0,0.027777777777778,3.10526315789474,0,0.444444444444444,0.298245614035088,ReadingArea_rsl0-rcl2-esl100-rsm0-rcm2-esm310-rsr0-rcr44-esr29,exr/ReadingArea_rsl0-rcl2-esl100-rsm0-rcm2-esm310-rsr0-rcr44-esr29.exr,ReadingArea_rsl0-rcl2-esl100-rsm0-rcm2-esm310-rsr0-rcr44-esr29.npz,,,,,0,159,159,284,,left,green,0.74,860.1047911643982,860.4853990077972,,,3,,8,1,lightness,readingArea,realistic,75,2023-03-28_13h31.23.437,tripletExp_regina_11082022,2022.2.4,119.19361164000114,
14,0,9,0,0.25,3.10526315789474,0,0.027777777777778,0.298245614035088,0,0.444444444444444,1.0,ReadingArea_rsl0-rcl25-esl310-rsm0-rcm2-esm29-rsr0-rcr44-esr100,exr/ReadingArea_rsl0-rcl25-esl310-rsm0-rcm2-esm29-rsr0-rcr44-esr100.exr,ReadingArea_rsl0-rcl25-esl310-rsm0-rcm2-esm29-rsr0-rcr44-esr100.npz,,,,,0,160,160,90,,right,red,1.33,862.185268163681,862.574686050415,,,3,,8,1,lightness,readingArea,realistic,75,2023-03-28_13h31.23.437,tripletExp_regina_11082022,2022.2.4,119.19361164000114,
11,10,0,0,1.0,1.0,0,0.694444444444444,1.0,0,0.027777777777778,0.298245614035088,ReadingArea_rsl0-rcl100-esl100-rsm0-rcm69-esm100-rsr0-rcr2-esr29,exr/ReadingArea_rsl0-rcl100-esl100-rsm0-rcm69-esm100-rsr0-rcr2-esr29.exr,ReadingArea_rsl0-rcl100-esl100-rsm0-rcm69-esm100-rsr0-rcr2-esr29.npz,,,,,0,161,161,549,,left,green,0.92,864.28835105896,864.6891419887543,,,3,,8,1,lightness,readingArea,realistic,75,2023-03-28_13h31.23.437,tripletExp_regina_11082022,2022.2.4,119.19361164000114,
2,1,3,0,0.25,0.298245614035088,0,0.111111111111111,0.298245614035088,0,0.444444444444444,0.298245614035088,ReadingArea_rsl0-rcl25-esl29-rsm0-rcm11-esm29-rsr0-rcr44-esr29,exr/ReadingArea_rsl0-rcl25-esl29-rsm0-rcm11-esm29-rsr0-rcr44-esr29.exr,ReadingArea_rsl0-rcl25-esl29-rsm0-rcm11-esm29-rsr0-rcr44-esr29.npz,,,,,0,162,162,85,,left,green,0.61,866.4025931358337,866.8049941062927,,,3,,8,1,lightness,readingArea,realistic,75,2023-03-28_13h31.23.437,tripletExp_regina_11082022,2022.2.4,119.19361164000114,
4,1,9,0,0.694444444444444,0.298245614035088,0,0.111111111111111,0.298245614035088,0,0.444444444444444,1.0,ReadingArea_rsl0-rcl69-esl29-rsm0-rcm11-esm29-rsr0-rcr44-esr100,exr/ReadingArea_rsl0-rcl69-esl29-rsm0-rcm11-esm29-rsr0-rcr44-esr100.exr,ReadingArea_rsl0-rcl69-esl29-rsm0-rcm11-esm29-rsr0-rcr44-esr100.npz,,,,,0,163,163,7,,left,green,0.73,868.5240421295166,868.912575006485,,,3,,8,1,lightness,readingArea,realistic,75,2023-03-28_13h31.23.437,tripletExp_regina_11082022,2022.2.4,119.19361164000114,
11,7,10,0,1.0,1.0,0,0.111111111111111,1.0,0,0.694444444444444,1.0,ReadingArea_rsl0-rcl100-esl100-rsm0-rcm11-esm100-rsr0-rcr69-esr100,exr/ReadingArea_rsl0-rcl100-esl100-rsm0-rcm11-esm100-rsr0-rcr69-esr100.exr,ReadingArea_rsl0-rcl100-esl100-rsm0-rcm11-esm100-rsr0-rcr69-esr100.npz,,,,,0,164,164,411,,right,red,1.39,870.6317341327667,871.1239631175995,,,3,,8,1,lightness,readingArea,realistic,75,2023-03-28_13h31.23.437,tripletExp_regina_11082022,2022.2.4,119.19361164000114,
3,14,12,0,0.444444444444444,0.298245614035088,0,0.25,3.10526315789474,0,0.027777777777778,3.10526315789474,ReadingArea_rsl0-rcl44-esl29-rsm0-rcm25-esm310-rsr0-rcr2-esr310,exr/ReadingArea_rsl0-rcl44-esl29-rsm0-rcm25-esm310-rsr0-rcr2-esr310.exr,ReadingArea_rsl0-rcl44-esl29-rsm0-rcm25-esm310-rsr0-rcr2-esr310.npz,,,,,0,165,165,336,,left,green,2.41,874.5908570289612,874.9803960323334,,,3,,8,1,lightness,readingArea,realistic,75,2023-03-28_13h31.23.437,tripletExp_regina_11082022,2022.2.4,119.19361164000114,
11,12,10,0,1.0,1.0,0,0.027777777777778,3.10526315789474,0,0.694444444444444,1.0,ReadingArea_rsl0-rcl100-esl100-rsm0-rcm2-esm310-rsr0-rcr69-esr100,exr/ReadingArea_rsl0-rcl100-esl100-rsm0-rcm2-esm310-rsr0-rcr69-esr100.exr,ReadingArea_rsl0-rcl100-esl100-rsm0-rcm2-esm310-rsr0-rcr69-esr100.npz,,,,,0,166,166,465,,right,red,2.31,878.4270889759064,878.8203730583191,,,3,,8,1,lightness,readingArea,realistic,75,2023-03-28_13h31.23.437,tripletExp_regina_11082022,2022.2.4,119.19361164000114,
3,11,2,0,0.444444444444444,0.298245614035088,0,1.0,1.0,0,0.25,0.298245614035088,ReadingArea_rsl0-rcl44-esl29-rsm0-rcm100-esm100-rsr0-rcr25-esr29,exr/ReadingArea_rsl0-rcl44-esl29-rsm0-rcm100-esm100-rsr0-rcr25-esr29.exr,ReadingArea_rsl0-rcl44-esl29-rsm0-rcm100-esm100-rsr0-rcr25-esr29.npz,,,,,0,167,167,220,,left,green,2.68,882.2888901233673,882.7704970836639,,,3,,8,1,lightness,readingArea,realistic,75,2023-03-28_13h31.23.437,tripletExp_regina_11082022,2022.2.4,119.19361164000114,
14,5,9,0,0.25,3.10526315789474,0,1.0,0.298245614035088,0,0.444444444444444,1.0,ReadingArea_rsl0-rcl25-esl310-rsm0-rcm100-esm29-rsr0-rcr44-esr100,exr/ReadingArea_rsl0-rcl25-esl310-rsm0-rcm100-esm29-rsr0-rcr44-esr100.exr,ReadingArea_rsl0-rcl25-esl310-rsm0-rcm100-esm29-rsr0-rcr44-esr100.npz,,,,,0,168,168,482,,right,red,2.23,886.2615840435028,886.6560490131378,,,3,,8,1,lightness,readingArea,realistic,75,2023-03-28_13h31.23.437,tripletExp_regina_11082022,2022.2.4,119.19361164000114,
11,12,4,0,1.0,1.0,0,0.027777777777778,3.10526315789474,0,0.694444444444444,0.298245614035088,ReadingArea_rsl0-rcl100-esl100-rsm0-rcm2-esm310-rsr0-rcr69-esr29,exr/ReadingArea_rsl0-rcl100-esl100-rsm0-rcm2-esm310-rsr0-rcr69-esr29.exr,ReadingArea_rsl0-rcl100-esl100-rsm0-rcm2-esm310-rsr0-rcr69-esr29.npz,,,,,0,169,169,250,,right,red,0.88,888.3639349937439,888.8109061717987,,,3,,8,1,lightness,readingArea,realistic,75,2023-03-28_13h31.23.437,tripletExp_regina_11082022,2022.2.4,119.19361164000114,
0,14,11,0,0.027777777777778,0.298245614035088,0,0.25,3.10526315789474,0,1.0,1.0,ReadingArea_rsl0-rcl2-esl29-rsm0-rcm25-esm310-rsr0-rcr100-esr100,exr/ReadingArea_rsl0-rcl2-esl29-rsm0-rcm25-esm310-rsr0-rcr100-esr100.exr,ReadingArea_rsl0-rcl2-esl29-rsm0-rcm25-esm310-rsr0-rcr100-esr100.npz,,,,,0,170,170,557,,right,red,0.91,890.5152721405029,890.9054081439972,,,3,,8,1,lightness,readingArea,realistic,75,2023-03-28_13h31.23.437,tripletExp_regina_11082022,2022.2.4,119.19361164000114,
0,13,12,0,0.027777777777778,0.298245614035088,0,0.111111111111111,3.10526315789474,0,0.027777777777778,3.10526315789474,ReadingArea_rsl0-rcl2-esl29-rsm0-rcm11-esm310-rsr0-rcr2-esr310,exr/ReadingArea_rsl0-rcl2-esl29-rsm0-rcm11-esm310-rsr0-rcr2-esr310.exr,ReadingArea_rsl0-rcl2-esl29-rsm0-rcm11-esm310-rsr0-rcr2-esr310.npz,,,,,0,171,171,501,,right,red,0.97,892.5959889888763,892.9976551532745,,,3,,8,1,lightness,readingArea,realistic,75,2023-03-28_13h31.23.437,tripletExp_regina_11082022,2022.2.4,119.19361164000114,
8,11,1,0,0.25,1.0,0,1.0,1.0,0,0.111111111111111,0.298245614035088,ReadingArea_rsl0-rcl25-esl100-rsm0-rcm100-esm100-rsr0-rcr11-esr29,exr/ReadingArea_rsl0-rcl25-esl100-rsm0-rcm100-esm100-rsr0-rcr11-esr29.exr,ReadingArea_rsl0-rcl25-esl100-rsm0-rcm100-esm100-rsr0-rcr11-esr29.npz,,,,,0,172,172,132,,left,green,0.68,894.7100651264191,895.1237261295319,,,3,,8,1,lightness,readingArea,realistic,75,2023-03-28_13h31.23.437,tripletExp_regina_11082022,2022.2.4,119.19361164000114,
11,13,1,0,1.0,1.0,0,0.111111111111111,3.10526315789474,0,0.111111111111111,0.298245614035088,ReadingArea_rsl0-rcl100-esl100-rsm0-rcm11-esm310-rsr0-rcr11-esr29,exr/ReadingArea_rsl0-rcl100-esl100-rsm0-rcm11-esm310-rsr0-rcr11-esr29.exr,ReadingArea_rsl0-rcl100-esl100-rsm0-rcm11-esm310-rsr0-rcr11-esr29.npz,,,,,0,173,173,185,,left,green,1.09,896.8284020423889,897.2209041118622,,,3,,8,1,lightness,readingArea,realistic,75,2023-03-28_13h31.23.437,tripletExp_regina_11082022,2022.2.4,119.19361164000114,
7,14,3,0,0.111111111111111,1.0,0,0.25,3.10526315789474,0,0.444444444444444,0.298245614035088,ReadingArea_rsl0-rcl11-esl100-rsm0-rcm25-esm310-rsr0-rcr44-esr29,exr/ReadingArea_rsl0-rcl11-esl100-rsm0-rcm25-esm310-rsr0-rcr44-esr29.exr,ReadingArea_rsl0-rcl11-esl100-rsm0-rcm25-esm310-rsr0-rcr44-esr29.npz,,,,,0,174,174,103,,right,red,2.59,900.6989481449127,901.1029930114746,,,3,,8,1,lightness,readingArea,realistic,75,2023-03-28_13h31.23.437,tripletExp_regina_11082022,2022.2.4,119.19361164000114,
5,3,6,0,1.0,0.298245614035088,0,0.444444444444444,0.298245614035088,0,0.027777777777778,1.0,ReadingArea_rsl0-rcl100-esl29-rsm0-rcm44-esm29-rsr0-rcr2-esr100,exr/ReadingArea_rsl0-rcl100-esl29-rsm0-rcm44-esm29-rsr0-rcr2-esr100.exr,ReadingArea_rsl0-rcl100-esl29-rsm0-rcm44-esm29-rsr0-rcr2-esr100.npz,,,,,0,175,175,316,,left,green,4.19,906.361407995224,906.856503009796,,,3,,8,1,lightness,readingArea,realistic,75,2023-03-28_13h31.23.437,tripletExp_regina_11082022,2022.2.4,119.19361164000114,
5,13,12,0,1.0,0.298245614035088,0,0.111111111111111,3.10526315789474,0,0.027777777777778,3.10526315789474,ReadingArea_rsl0-rcl100-esl29-rsm0-rcm11-esm310-rsr0-rcr2-esr310,exr/ReadingArea_rsl0-rcl100-esl29-rsm0-rcm11-esm310-rsr0-rcr2-esr310.exr,ReadingArea_rsl0-rcl100-esl29-rsm0-rcm11-esm310-rsr0-rcr2-esr310.npz,,,,,0,176,176,389,,left,green,1.13,908.5610661506652,908.9430329799652,,,3,,8,1,lightness,readingArea,realistic,75,2023-03-28_13h31.23.437,tripletExp_regina_11082022,2022.2.4,119.19361164000114,
8,6,0,0,0.25,1.0,0,0.027777777777778,1.0,0,0.027777777777778,0.298245614035088,ReadingArea_rsl0-rcl25-esl100-rsm0-rcm2-esm100-rsr0-rcr2-esr29,exr/ReadingArea_rsl0-rcl25-esl100-rsm0-rcm2-esm100-rsr0-rcr2-esr29.exr,ReadingArea_rsl0-rcl25-esl100-rsm0-rcm2-esm100-rsr0-rcr2-esr29.npz,,,,,0,177,177,187,,right,red,2.45,912.3990111351012,912.8099141120912,,,3,,8,1,lightness,readingArea,realistic,75,2023-03-28_13h31.23.437,tripletExp_regina_11082022,2022.2.4,119.19361164000114,
9,11,13,0,0.444444444444444,1.0,0,1.0,1.0,0,0.111111111111111,3.10526315789474,ReadingArea_rsl0-rcl44-esl100-rsm0-rcm100-esm100-rsr0-rcr11-esr310,exr/ReadingArea_rsl0-rcl44-esl100-rsm0-rcm100-esm100-rsr0-rcr11-esr310.exr,ReadingArea_rsl0-rcl44-esl100-rsm0-rcm100-esm100-rsr0-rcr11-esr310.npz,,,,,0,178,178,254,,right,red,2.59,916.2983679771424,,,,3,,8,1,lightness,readingArea,realistic,75,2023-03-28_13h31.23.437,tripletExp_regina_11082022,2022.2.4,119.19361164000114,
5,2,10,0,1.0,0.298245614035088,0,0.25,0.298245614035088,0,0.694444444444444,1.0,ReadingArea_rsl0-rcl100-esl29-rsm0-rcm25-esm29-rsr0-rcr69-esr100,exr/ReadingArea_rsl0-rcl100-esl29-rsm0-rcm25-esm29-rsr0-rcr69-esr100.exr,ReadingArea_rsl0-rcl100-esl29-rsm0-rcm25-esm29-rsr0-rcr69-esr100.npz,,,,,0,179,179,595,,left,green,2.09,920.1505689620972,920.5326030254364,,,3,,8,1,lightness,readingArea,realistic,75,2023-03-28_13h31.23.437,tripletExp_regina_11082022,2022.2.4,119.19361164000114,
11,0,6,0,1.0,1.0,0,0.027777777777778,0.298245614035088,0,0.027777777777778,1.0,ReadingArea_rsl0-rcl100-esl100-rsm0-rcm2-esm29-rsr0-rcr2-esr100,exr/ReadingArea_rsl0-rcl100-esl100-rsm0-rcm2-esm29-rsr0-rcr2-esr100.exr,ReadingArea_rsl0-rcl100-esl100-rsm0-rcm2-esm29-rsr0-rcr2-esr100.npz,,,,,0,180,180,586,,right,red,0.68,922.2192749977112,922.6162769794464,,,3,,8,1,lightness,readingArea,realistic,75,2023-03-28_13h31.23.437,tripletExp_regina_11082022,2022.2.4,119.19361164000114,
8,12,13,0,0.25,1.0,0,0.027777777777778,3.10526315789474,0,0.111111111111111,3.10526315789474,ReadingArea_rsl0-rcl25-esl100-rsm0-rcm2-esm310-rsr0-rcr11-esr310,exr/ReadingArea_rsl0-rcl25-esl100-rsm0-rcm2-esm310-rsr0-rcr11-esr310.exr,ReadingArea_rsl0-rcl25-esl100-rsm0-rcm2-esm310-rsr0-rcr11-esr310.npz,,,,,0,181,181,275,,left,green,0.58,924.326122045517,924.7795021533966,,,3,,8,1,lightness,readingArea,realistic,75,2023-03-28_13h31.23.437,tripletExp_regina_11082022,2022.2.4,119.19361164000114,
14,12,0,0,0.25,3.10526315789474,0,0.027777777777778,3.10526315789474,0,0.027777777777778,0.298245614035088,ReadingArea_rsl0-rcl25-esl310-rsm0-rcm2-esm310-rsr0-rcr2-esr29,exr/ReadingArea_rsl0-rcl25-esl310-rsm0-rcm2-esm310-rsr0-rcr2-esr29.exr,ReadingArea_rsl0-rcl25-esl310-rsm0-rcm2-esm310-rsr0-rcr2-esr29.npz,,,,,0,182,182,409,,right,red,1.36,926.4911589622498,926.8880801200868,,,3,,8,1,lightness,readingArea,realistic,75,2023-03-28_13h31.23.437,tripletExp_regina_11082022,2022.2.4,119.19361164000114,
14,7,0,0,0.25,3.10526315789474,0,0.111111111111111,1.0,0,0.027777777777778,0.298245614035088,ReadingArea_rsl0-rcl25-esl310-rsm0-rcm11-esm100-rsr0-rcr2-esr29,exr/ReadingArea_rsl0-rcl25-esl310-rsm0-rcm11-esm100-rsr0-rcr2-esr29.exr,ReadingArea_rsl0-rcl25-esl310-rsm0-rcm11-esm100-rsr0-rcr2-esr29.npz,,,,,0,183,183,412,,right,red,1.14,928.5814261436462,928.9793481826782,,,3,,8,1,lightness,readingArea,realistic,75,2023-03-28_13h31.23.437,tripletExp_regina_11082022,2022.2.4,119.19361164000114,
11,5,3,0,1.0,1.0,0,1.0,0.298245614035088,0,0.444444444444444,0.298245614035088,ReadingArea_rsl0-rcl100-esl100-rsm0-rcm100-esm29-rsr0-rcr44-esr29,exr/ReadingArea_rsl0-rcl100-esl100-rsm0-rcm100-esm29-rsr0-rcr44-esr29.exr,ReadingArea_rsl0-rcl100-esl100-rsm0-rcm100-esm29-rsr0-rcr44-esr29.npz,,,,,0,184,184,172,,right,red,0.91,930.6890151500702,931.120807170868,,,3,,8,1,lightness,readingArea,realistic,75,2023-03-28_13h31.23.437,tripletExp_regina_11082022,2022.2.4,119.19361164000114,
6,4,13,0,0.027777777777778,1.0,0,0.694444444444444,0.298245614035088,0,0.111111111111111,3.10526315789474,ReadingArea_rsl0-rcl2-esl100-rsm0-rcm69-esm29-rsr0-rcr11-esr310,exr/ReadingArea_rsl0-rcl2-esl100-rsm0-rcm69-esm29-rsr0-rcr11-esr310.exr,ReadingArea_rsl0-rcl2-esl100-rsm0-rcm69-esm29-rsr0-rcr11-esr310.npz,,,,,0,185,185,202,,right,red,0.78,932.8219680786132,933.2403531074524,,,3,,8,1,lightness,readingArea,realistic,75,2023-03-28_13h31.23.437,tripletExp_regina_11082022,2022.2.4,119.19361164000114,
7,0,3,0,0.111111111111111,1.0,0,0.027777777777778,0.298245614035088,0,0.444444444444444,0.298245614035088,ReadingArea_rsl0-rcl11-esl100-rsm0-rcm2-esm29-rsr0-rcr44-esr29,exr/ReadingArea_rsl0-rcl11-esl100-rsm0-rcm2-esm29-rsr0-rcr44-esr29.exr,ReadingArea_rsl0-rcl11-esl100-rsm0-rcm2-esm29-rsr0-rcr44-esr29.npz,,,,,0,186,186,237,,left,green,3.86,938.4657311439514,938.9597899913788,,,3,,8,1,lightness,readingArea,realistic,75,2023-03-28_13h31.23.437,tripletExp_regina_11082022,2022.2.4,119.19361164000114,
4,1,3,0,0.694444444444444,0.298245614035088,0,0.111111111111111,0.298245614035088,0,0.444444444444444,0.298245614035088,ReadingArea_rsl0-rcl69-esl29-rsm0-rcm11-esm29-rsr0-rcr44-esr29,exr/ReadingArea_rsl0-rcl69-esl29-rsm0-rcm11-esm29-rsr0-rcr44-esr29.exr,ReadingArea_rsl0-rcl69-esl29-rsm0-rcm11-esm29-rsr0-rcr44-esr29.npz,,,,,0,187,187,70,,right,red,2.81,942.4312770366668,942.8228051662444,,,3,,8,1,lightness,readingArea,realistic,75,2023-03-28_13h31.23.437,tripletExp_regina_11082022,2022.2.4,119.19361164000114,
5,2,7,0,1.0,0.298245614035088,0,0.25,0.298245614035088,0,0.111111111111111,1.0,ReadingArea_rsl0-rcl100-esl29-rsm0-rcm25-esm29-rsr0-rcr11-esr100,exr/ReadingArea_rsl0-rcl100-esl29-rsm0-rcm25-esm29-rsr0-rcr11-esr100.exr,ReadingArea_rsl0-rcl100-esl29-rsm0-rcm25-esm29-rsr0-rcr11-esr100.npz,,,,,0,188,188,179,,right,red,2.05,946.2967250347136,946.6943190097808,,,3,,8,1,lightness,readingArea,realistic,75,2023-03-28_13h31.23.437,tripletExp_regina_11082022,2022.2.4,119.19361164000114,
10,12,11,0,0.694444444444444,1.0,0,0.027777777777778,3.10526315789474,0,1.0,1.0,ReadingArea_rsl0-rcl69-esl100-rsm0-rcm2-esm310-rsr0-rcr100-esr100,exr/ReadingArea_rsl0-rcl69-esl100-rsm0-rcm2-esm310-rsr0-rcr100-esr100.exr,ReadingArea_rsl0-rcl69-esl100-rsm0-rcm2-esm310-rsr0-rcr100-esr100.npz,,,,,0,189,189,317,,left,green,3.91,951.9628791809082,,,,3,,8,1,lightness,readingArea,realistic,75,2023-03-28_13h31.23.437,tripletExp_regina_11082022,2022.2.4,119.19361164000114,
8,6,5,0,0.25,1.0,0,0.027777777777778,1.0,0,1.0,0.298245614035088,ReadingArea_rsl0-rcl25-esl100-rsm0-rcm2-esm100-rsr0-rcr100-esr29,exr/ReadingArea_rsl0-rcl25-esl100-rsm0-rcm2-esm100-rsr0-rcr100-esr29.exr,ReadingArea_rsl0-rcl25-esl100-rsm0-rcm2-esm100-rsr0-rcr100-esr29.npz,,,,,0,190,190,241,,left,green,2.09,955.8549411296844,,,,3,,8,1,lightness,readingArea,realistic,75,2023-03-28_13h31.23.437,tripletExp_regina_11082022,2022.2.4,119.19361164000114,
2,10,6,0,0.25,0.298245614035088,0,0.694444444444444,1.0,0,0.027777777777778,1.0,ReadingArea_rsl0-rcl25-esl29-rsm0-rcm69-esm100-rsr0-rcr2-esr100,exr/ReadingArea_rsl0-rcl25-esl29-rsm0-rcm69-esm100-rsr0-rcr2-esr100.exr,ReadingArea_rsl0-rcl25-esl29-rsm0-rcm69-esm100-rsr0-rcr2-esr100.npz,,,,,0,191,191,4,,left,green,2.1,959.7287900447844,960.1224291324615,,,3,,8,1,lightness,readingArea,realistic,75,2023-03-28_13h31.23.437,tripletExp_regina_11082022,2022.2.4,119.19361164000114,
1,5,8,0,0.111111111111111,0.298245614035088,0,1.0,0.298245614035088,0,0.25,1.0,ReadingArea_rsl0-rcl11-esl29-rsm0-rcm100-esm29-rsr0-rcr25-esr100,exr/ReadingArea_rsl0-rcl11-esl29-rsm0-rcm100-esm29-rsr0-rcr25-esr100.exr,ReadingArea_rsl0-rcl11-esl29-rsm0-rcm100-esm29-rsr0-rcr25-esr100.npz,,,,,0,192,192,238,,right,red,2.08,963.588219165802,963.9794201850892,,,3,,8,1,lightness,readingArea,realistic,75,2023-03-28_13h31.23.437,tripletExp_regina_11082022,2022.2.4,119.19361164000114,
10,11,5,0,0.694444444444444,1.0,0,1.0,1.0,0,1.0,0.298245614035088,ReadingArea_rsl0-rcl69-esl100-rsm0-rcm100-esm100-rsr0-rcr100-esr29,exr/ReadingArea_rsl0-rcl69-esl100-rsm0-rcm100-esm100-rsr0-rcr100-esr29.exr,ReadingArea_rsl0-rcl69-esl100-rsm0-rcm100-esm100-rsr0-rcr100-esr29.npz,,,,,0,193,193,514,,left,green,2.12,967.4649181365968,,,,3,,8,1,lightness,readingArea,realistic,75,2023-03-28_13h31.23.437,tripletExp_regina_11082022,2022.2.4,119.19361164000114,
11,7,12,0,1.0,1.0,0,0.111111111111111,1.0,0,0.027777777777778,3.10526315789474,ReadingArea_rsl0-rcl100-esl100-rsm0-rcm11-esm100-rsr0-rcr2-esr310,exr/ReadingArea_rsl0-rcl100-esl100-rsm0-rcm11-esm100-rsr0-rcr2-esr310.exr,ReadingArea_rsl0-rcl100-esl100-rsm0-rcm11-esm100-rsr0-rcr2-esr310.npz,,,,,0,194,194,352,,right,red,0.8,969.577367067337,969.9900510311128,,,3,,8,1,lightness,readingArea,realistic,75,2023-03-28_13h31.23.437,tripletExp_regina_11082022,2022.2.4,119.19361164000114,
12,8,6,0,0.027777777777778,3.10526315789474,0,0.25,1.0,0,0.027777777777778,1.0,ReadingArea_rsl0-rcl2-esl310-rsm0-rcm25-esm100-rsr0-rcr2-esr100,exr/ReadingArea_rsl0-rcl2-esl310-rsm0-rcm25-esm100-rsr0-rcr2-esr100.exr,ReadingArea_rsl0-rcl2-esl310-rsm0-rcm25-esm100-rsr0-rcr2-esr100.npz,,,,,0,195,195,281,,left,green,1.24,971.69251203537,972.0928010940552,,,3,,8,1,lightness,readingArea,realistic,75,2023-03-28_13h31.23.437,tripletExp_regina_11082022,2022.2.4,119.19361164000114,
5,8,3,0,1.0,0.298245614035088,0,0.25,1.0,0,0.444444444444444,0.298245614035088,ReadingArea_rsl0-rcl100-esl29-rsm0-rcm25-esm100-rsr0-rcr44-esr29,exr/ReadingArea_rsl0-rcl100-esl29-rsm0-rcm25-esm100-rsr0-rcr44-esr29.exr,ReadingArea_rsl0-rcl100-esl29-rsm0-rcm25-esm100-rsr0-rcr44-esr29.npz,,,,,0,196,196,556,,left,green,1.14,973.8164811134338,,,,3,,8,1,lightness,readingArea,realistic,75,2023-03-28_13h31.23.437,tripletExp_regina_11082022,2022.2.4,119.19361164000114,
11,12,2,0,1.0,1.0,0,0.027777777777778,3.10526315789474,0,0.25,0.298245614035088,ReadingArea_rsl0-rcl100-esl100-rsm0-rcm2-esm310-rsr0-rcr25-esr29,exr/ReadingArea_rsl0-rcl100-esl100-rsm0-rcm2-esm310-rsr0-rcr25-esr29.exr,ReadingArea_rsl0-rcl100-esl100-rsm0-rcm2-esm310-rsr0-rcr25-esr29.npz,,,,,0,197,197,423,,right,red,1.04,975.9429881572725,976.3262960910796,,,3,,8,1,lightness,readingArea,realistic,75,2023-03-28_13h31.23.437,tripletExp_regina_11082022,2022.2.4,119.19361164000114,
7,12,1,0,0.111111111111111,1.0,0,0.027777777777778,3.10526315789474,0,0.111111111111111,0.298245614035088,ReadingArea_rsl0-rcl11-esl100-rsm0-rcm2-esm310-rsr0-rcr11-esr29,exr/ReadingArea_rsl0-rcl11-esl100-rsm0-rcm2-esm310-rsr0-rcr11-esr29.exr,ReadingArea_rsl0-rcl11-esl100-rsm0-rcm2-esm310-rsr0-rcr11-esr29.npz,,,,,0,198,198,20,,left,green,1.3,978.0149631500244,978.412220954895,,,3,,8,1,lightness,readingArea,realistic,75,2023-03-28_13h31.23.437,tripletExp_regina_11082022,2022.2.4,119.19361164000114,
9,2,12,0,0.444444444444444,1.0,0,0.25,0.298245614035088,0,0.027777777777778,3.10526315789474,ReadingArea_rsl0-rcl44-esl100-rsm0-rcm25-esm29-rsr0-rcr2-esr310,exr/ReadingArea_rsl0-rcl44-esl100-rsm0-rcm25-esm29-rsr0-rcr2-esr310.exr,ReadingArea_rsl0-rcl44-esl100-rsm0-rcm25-esm29-rsr0-rcr2-esr310.npz,,,,,0,199,199,391,,right,red,0.68,980.11234498024,980.6073520183564,,,3,,8,1,lightness,readingArea,realistic,75,2023-03-28_13h31.23.437,tripletExp_regina_11082022,2022.2.4,119.19361164000114,
2,11,14,0,0.25,0.298245614035088,0,1.0,1.0,0,0.25,3.10526315789474,ReadingArea_rsl0-rcl25-esl29-rsm0-rcm100-esm100-rsr0-rcr25-esr310,exr/ReadingArea_rsl0-rcl25-esl29-rsm0-rcm100-esm100-rsr0-rcr25-esr310.exr,ReadingArea_rsl0-rcl25-esl29-rsm0-rcm100-esm100-rsr0-rcr25-esr310.npz,,,,,0,200,200,534,,right,red,0.85,982.3285131454468,982.7204310894012,,,3,,8,1,lightness,readingArea,realistic,75,2023-03-28_13h31.23.437,tripletExp_regina_11082022,2022.2.4,119.19361164000114,
11,6,8,0,1.0,1.0,0,0.027777777777778,1.0,0,0.25,1.0,ReadingArea_rsl0-rcl100-esl100-rsm0-rcm2-esm100-rsr0-rcr25-esr100,exr/ReadingArea_rsl0-rcl100-esl100-rsm0-rcm2-esm100-rsr0-rcr25-esr100.exr,ReadingArea_rsl0-rcl100-esl100-rsm0-rcm2-esm100-rsr0-rcr25-esr100.npz,,,,,0,201,201,599,,right,red,1.17,984.4143681526184,984.8083090782166,,,3,,8,1,lightness,readingArea,realistic,75,2023-03-28_13h31.23.437,tripletExp_regina_11082022,2022.2.4,119.19361164000114,
5,3,4,0,1.0,0.298245614035088,0,0.444444444444444,0.298245614035088,0,0.694444444444444,0.298245614035088,ReadingArea_rsl0-rcl100-esl29-rsm0-rcm44-esm29-rsr0-rcr69-esr29,exr/ReadingArea_rsl0-rcl100-esl29-rsm0-rcm44-esm29-rsr0-rcr69-esr29.exr,ReadingArea_rsl0-rcl100-esl29-rsm0-rcm44-esm29-rsr0-rcr69-esr29.npz,,,,,0,202,202,201,,right,red,2.48,988.2970509529114,988.6959400177002,,,3,,8,1,lightness,readingArea,realistic,75,2023-03-28_13h31.23.437,tripletExp_regina_11082022,2022.2.4,119.19361164000114,
