index_left,index_middle,index_right,reflectance_surround_left,reflectance_center_left,emission_spot_left,reflectance_surround_middle,reflectance_center_middle,emission_spot_middle,reflectance_surround_right,reflectance_center_right,emission_spot_right,ImageName,ImageExr,ImageNpy,trials_2.thisRepN,trials_2.thisTrialN,trials_2.thisN,trials_2.thisIndex,trials.thisRepN,trials.thisTrialN,trials.thisN,trials.thisIndex,sound_1.started,BB_Trial.resp,BB_Trial.color,BB_Trial.rt,text.started,text.stopped,sound_1.stopped,block,sound_4.started,participant,session,L/B,scene,condition,nTrialsPerBlock,date,expName,psychopyVersion,frameRate,Unnamed: 42
3,8,7,0,0.444444444444444,0.298245614035088,0,0.25,1.0,0,0.111111111111111,1.0,ReadingArea_rsl0-rcl44-esl29-rsm0-rcm25-esm100-rsr0-rcr11-esr100,exr/ReadingArea_rsl0-rcl44-esl29-rsm0-rcm25-esm100-rsr0-rcr11-esr100.exr,ReadingArea_rsl0-rcl44-esl29-rsm0-rcm25-esm100-rsr0-rcr11-esr100.npz,,,,,0,0,0,484,127.07162890434265,left,green,1.13,136.09675407409668,128.50991106033325,127.21937012672424,1,,EB,5,lightness,readingArea,realistic,75,2023-03-13_16h22.45.063,tripletExp_regina_11082022,2022.2.4,119.73462746217528,
3,14,5,0,0.444444444444444,0.298245614035088,0,0.25,3.10526315789474,0,1.0,0.298245614035088,ReadingArea_rsl0-rcl44-esl29-rsm0-rcm25-esm310-rsr0-rcr100-esr29,exr/ReadingArea_rsl0-rcl44-esl29-rsm0-rcm25-esm310-rsr0-rcr100-esr29.exr,ReadingArea_rsl0-rcl44-esl29-rsm0-rcm25-esm310-rsr0-rcr100-esr29.npz,,,,,0,1,1,131,,right,red,0.7,138.29288792610168,138.77970814704895,,1,,EB,5,lightness,readingArea,realistic,75,2023-03-13_16h22.45.063,tripletExp_regina_11082022,2022.2.4,119.73462746217528,
3,4,0,0,0.444444444444444,0.298245614035088,0,0.694444444444444,0.298245614035088,0,0.027777777777778,0.298245614035088,ReadingArea_rsl0-rcl44-esl29-rsm0-rcm69-esm29-rsr0-rcr2-esr29,exr/ReadingArea_rsl0-rcl44-esl29-rsm0-rcm69-esm29-rsr0-rcr2-esr29.exr,ReadingArea_rsl0-rcl44-esl29-rsm0-rcm69-esm29-rsr0-rcr2-esr29.npz,,,,,0,2,2,130,,left,green,0.63,140.47040104866028,,,1,,EB,5,lightness,readingArea,realistic,75,2023-03-13_16h22.45.063,tripletExp_regina_11082022,2022.2.4,119.73462746217528,
14,11,0,0,0.25,3.10526315789474,0,1.0,1.0,0,0.027777777777778,0.298245614035088,ReadingArea_rsl0-rcl25-esl310-rsm0-rcm100-esm100-rsr0-rcr2-esr29,exr/ReadingArea_rsl0-rcl25-esl310-rsm0-rcm100-esm100-rsr0-rcr2-esr29.exr,ReadingArea_rsl0-rcl25-esl310-rsm0-rcm100-esm100-rsr0-rcr2-esr29.npz,,,,,0,3,3,227,,left,green,0.56,142.5917451381683,143.0433599948883,,1,,EB,5,lightness,readingArea,realistic,75,2023-03-13_16h22.45.063,tripletExp_regina_11082022,2022.2.4,119.73462746217528,
13,2,4,0,0.111111111111111,3.10526315789474,0,0.25,0.298245614035088,0,0.694444444444444,0.298245614035088,ReadingArea_rsl0-rcl11-esl310-rsm0-rcm25-esm29-rsr0-rcr69-esr29,exr/ReadingArea_rsl0-rcl11-esl310-rsm0-rcm25-esm29-rsr0-rcr69-esr29.exr,ReadingArea_rsl0-rcl11-esl310-rsm0-rcm25-esm29-rsr0-rcr69-esr29.npz,,,,,0,4,4,307,,left,green,0.92,144.73482203483582,145.09814500808716,,1,,EB,5,lightness,readingArea,realistic,75,2023-03-13_16h22.45.063,tripletExp_regina_11082022,2022.2.4,119.73462746217528,
4,2,0,0,0.694444444444444,0.298245614035088,0,0.25,0.298245614035088,0,0.027777777777778,0.298245614035088,ReadingArea_rsl0-rcl69-esl29-rsm0-rcm25-esm29-rsr0-rcr2-esr29,exr/ReadingArea_rsl0-rcl69-esl29-rsm0-rcm25-esm29-rsr0-rcr2-esr29.exr,ReadingArea_rsl0-rcl69-esl29-rsm0-rcm25-esm29-rsr0-rcr2-esr29.npz,,,,,0,5,5,71,,left,green,0.56,146.8074209690094,147.2118649482727,,1,,EB,5,lightness,readingArea,realistic,75,2023-03-13_16h22.45.063,tripletExp_regina_11082022,2022.2.4,119.73462746217528,
12,5,10,0,0.027777777777778,3.10526315789474,0,1.0,0.298245614035088,0,0.694444444444444,1.0,ReadingArea_rsl0-rcl2-esl310-rsm0-rcm100-esm29-rsr0-rcr69-esr100,exr/ReadingArea_rsl0-rcl2-esl310-rsm0-rcm100-esm29-rsr0-rcr69-esr100.exr,ReadingArea_rsl0-rcl2-esl310-rsm0-rcm100-esm29-rsr0-rcr69-esr100.npz,,,,,0,6,6,493,,right,red,2.22,150.6867470741272,151.09283709526062,,1,,EB,5,lightness,readingArea,realistic,75,2023-03-13_16h22.45.063,tripletExp_regina_11082022,2022.2.4,119.73462746217528,
9,2,12,0,0.444444444444444,1.0,0,0.25,0.298245614035088,0,0.027777777777778,3.10526315789474,ReadingArea_rsl0-rcl44-esl100-rsm0-rcm25-esm29-rsr0-rcr2-esr310,exr/ReadingArea_rsl0-rcl44-esl100-rsm0-rcm25-esm29-rsr0-rcr2-esr310.exr,ReadingArea_rsl0-rcl44-esl100-rsm0-rcm25-esm29-rsr0-rcr2-esr310.npz,,,,,0,7,7,391,,right,red,0.63,152.78908705711365,,,1,,EB,5,lightness,readingArea,realistic,75,2023-03-13_16h22.45.063,tripletExp_regina_11082022,2022.2.4,119.73462746217528,
11,7,12,0,1.0,1.0,0,0.111111111111111,1.0,0,0.027777777777778,3.10526315789474,ReadingArea_rsl0-rcl100-esl100-rsm0-rcm11-esm100-rsr0-rcr2-esr310,exr/ReadingArea_rsl0-rcl100-esl100-rsm0-rcm11-esm100-rsr0-rcr2-esr310.exr,ReadingArea_rsl0-rcl100-esl100-rsm0-rcm11-esm100-rsr0-rcr2-esr310.npz,,,,,0,8,8,352,,right,red,0.63,154.9385471343994,155.39693593978882,,1,,EB,5,lightness,readingArea,realistic,75,2023-03-13_16h22.45.063,tripletExp_regina_11082022,2022.2.4,119.73462746217528,
8,10,9,0,0.25,1.0,0,0.694444444444444,1.0,0,0.444444444444444,1.0,ReadingArea_rsl0-rcl25-esl100-rsm0-rcm69-esm100-rsr0-rcr44-esr100,exr/ReadingArea_rsl0-rcl25-esl100-rsm0-rcm69-esm100-rsr0-rcr44-esr100.exr,ReadingArea_rsl0-rcl25-esl100-rsm0-rcm69-esm100-rsr0-rcr44-esr100.npz,,,,,0,9,9,342,,right,red,0.67,157.1136519908905,157.60317611694336,,1,,EB,5,lightness,readingArea,realistic,75,2023-03-13_16h22.45.063,tripletExp_regina_11082022,2022.2.4,119.73462746217528,
6,5,11,0,0.027777777777778,1.0,0,1.0,0.298245614035088,0,1.0,1.0,ReadingArea_rsl0-rcl2-esl100-rsm0-rcm100-esm29-rsr0-rcr100-esr100,exr/ReadingArea_rsl0-rcl2-esl100-rsm0-rcm100-esm29-rsr0-rcr100-esr100.exr,ReadingArea_rsl0-rcl2-esl100-rsm0-rcm100-esm29-rsr0-rcr100-esr100.npz,,,,,0,10,10,289,,right,red,0.74,159.29278802871704,159.74155497550964,,1,,EB,5,lightness,readingArea,realistic,75,2023-03-13_16h22.45.063,tripletExp_regina_11082022,2022.2.4,119.73462746217528,
11,8,2,0,1.0,1.0,0,0.25,1.0,0,0.25,0.298245614035088,ReadingArea_rsl0-rcl100-esl100-rsm0-rcm25-esm100-rsr0-rcr25-esr29,exr/ReadingArea_rsl0-rcl100-esl100-rsm0-rcm25-esm100-rsr0-rcr25-esr29.exr,ReadingArea_rsl0-rcl100-esl100-rsm0-rcm25-esm100-rsr0-rcr25-esr29.npz,,,,,0,11,11,406,,right,red,2.62,163.19694995880127,163.6790590286255,,1,,EB,5,lightness,readingArea,realistic,75,2023-03-13_16h22.45.063,tripletExp_regina_11082022,2022.2.4,119.73462746217528,
12,10,9,0,0.027777777777778,3.10526315789474,0,0.694444444444444,1.0,0,0.444444444444444,1.0,ReadingArea_rsl0-rcl2-esl310-rsm0-rcm69-esm100-rsr0-rcr44-esr100,exr/ReadingArea_rsl0-rcl2-esl310-rsm0-rcm69-esm100-rsr0-rcr44-esr100.exr,ReadingArea_rsl0-rcl2-esl310-rsm0-rcm69-esm100-rsr0-rcr44-esr100.npz,,,,,0,12,12,126,,right,red,0.77,165.37669396400452,165.7954981327057,,1,,EB,5,lightness,readingArea,realistic,75,2023-03-13_16h22.45.063,tripletExp_regina_11082022,2022.2.4,119.73462746217528,
13,3,12,0,0.111111111111111,3.10526315789474,0,0.444444444444444,0.298245614035088,0,0.027777777777778,3.10526315789474,ReadingArea_rsl0-rcl11-esl310-rsm0-rcm44-esm29-rsr0-rcr2-esr310,exr/ReadingArea_rsl0-rcl11-esl310-rsm0-rcm44-esm29-rsr0-rcr2-esr310.exr,ReadingArea_rsl0-rcl11-esl310-rsm0-rcm44-esm29-rsr0-rcr2-esr310.npz,,,,,0,13,13,80,,left,green,0.81,167.4894299507141,167.97188901901245,,1,,EB,5,lightness,readingArea,realistic,75,2023-03-13_16h22.45.063,tripletExp_regina_11082022,2022.2.4,119.73462746217528,
9,0,11,0,0.444444444444444,1.0,0,0.027777777777778,0.298245614035088,0,1.0,1.0,ReadingArea_rsl0-rcl44-esl100-rsm0-rcm2-esm29-rsr0-rcr100-esr100,exr/ReadingArea_rsl0-rcl44-esl100-rsm0-rcm2-esm29-rsr0-rcr100-esr100.exr,ReadingArea_rsl0-rcl44-esl100-rsm0-rcm2-esm29-rsr0-rcr100-esr100.npz,,,,,0,14,14,319,,left,green,2.49,171.43810296058655,171.86057305336,,1,,EB,5,lightness,readingArea,realistic,75,2023-03-13_16h22.45.063,tripletExp_regina_11082022,2022.2.4,119.73462746217528,
11,7,14,0,1.0,1.0,0,0.111111111111111,1.0,0,0.25,3.10526315789474,ReadingArea_rsl0-rcl100-esl100-rsm0-rcm11-esm100-rsr0-rcr25-esr310,exr/ReadingArea_rsl0-rcl100-esl100-rsm0-rcm11-esm100-rsr0-rcr25-esr310.exr,ReadingArea_rsl0-rcl100-esl100-rsm0-rcm11-esm100-rsr0-rcr25-esr310.npz,,,,,0,15,15,119,,right,red,2.99,175.33041715621948,175.7671160697937,,1,,EB,5,lightness,readingArea,realistic,75,2023-03-13_16h22.45.063,tripletExp_regina_11082022,2022.2.4,119.73462746217528,
11,5,1,0,1.0,1.0,0,1.0,0.298245614035088,0,0.111111111111111,0.298245614035088,ReadingArea_rsl0-rcl100-esl100-rsm0-rcm100-esm29-rsr0-rcr11-esr29,exr/ReadingArea_rsl0-rcl100-esl100-rsm0-rcm100-esm29-rsr0-rcr11-esr29.exr,ReadingArea_rsl0-rcl100-esl100-rsm0-rcm100-esm29-rsr0-rcr11-esr29.npz,,,,,0,16,16,48,,left,green,0.9,177.47647213935852,,,1,,EB,5,lightness,readingArea,realistic,75,2023-03-13_16h22.45.063,tripletExp_regina_11082022,2022.2.4,119.73462746217528,
4,12,2,0,0.694444444444444,0.298245614035088,0,0.027777777777778,3.10526315789474,0,0.25,0.298245614035088,ReadingArea_rsl0-rcl69-esl29-rsm0-rcm2-esm310-rsr0-rcr25-esr29,exr/ReadingArea_rsl0-rcl69-esl29-rsm0-rcm2-esm310-rsr0-rcr25-esr29.exr,ReadingArea_rsl0-rcl69-esl29-rsm0-rcm2-esm310-rsr0-rcr25-esr29.npz,,,,,0,17,17,543,,right,red,0.71,179.54364800453186,,,1,,EB,5,lightness,readingArea,realistic,75,2023-03-13_16h22.45.063,tripletExp_regina_11082022,2022.2.4,119.73462746217528,
0,9,14,0,0.027777777777778,0.298245614035088,0,0.444444444444444,1.0,0,0.25,3.10526315789474,ReadingArea_rsl0-rcl2-esl29-rsm0-rcm44-esm100-rsr0-rcr25-esr310,exr/ReadingArea_rsl0-rcl2-esl29-rsm0-rcm44-esm100-rsr0-rcr25-esr310.exr,ReadingArea_rsl0-rcl2-esl29-rsm0-rcm44-esm100-rsr0-rcr25-esr310.npz,,,,,0,18,18,433,,right,red,0.75,181.69563913345337,182.10701704025269,,1,,EB,5,lightness,readingArea,realistic,75,2023-03-13_16h22.45.063,tripletExp_regina_11082022,2022.2.4,119.73462746217528,
12,9,2,0,0.027777777777778,3.10526315789474,0,0.444444444444444,1.0,0,0.25,0.298245614035088,ReadingArea_rsl0-rcl2-esl310-rsm0-rcm44-esm100-rsr0-rcr25-esr29,exr/ReadingArea_rsl0-rcl2-esl310-rsm0-rcm44-esm100-rsr0-rcr25-esr29.exr,ReadingArea_rsl0-rcl2-esl310-rsm0-rcm44-esm100-rsr0-rcr25-esr29.npz,,,,,0,19,19,226,,right,red,1.1,183.81588506698608,184.17992615699768,,1,,EB,5,lightness,readingArea,realistic,75,2023-03-13_16h22.45.063,tripletExp_regina_11082022,2022.2.4,119.73462746217528,
4,11,14,0,0.694444444444444,0.298245614035088,0,1.0,1.0,0,0.25,3.10526315789474,ReadingArea_rsl0-rcl69-esl29-rsm0-rcm100-esm100-rsr0-rcr25-esr310,exr/ReadingArea_rsl0-rcl69-esl29-rsm0-rcm100-esm100-rsr0-rcr25-esr310.exr,ReadingArea_rsl0-rcl69-esl29-rsm0-rcm100-esm100-rsr0-rcr25-esr310.npz,,,,,0,20,20,165,,right,red,0.83,185.87920093536377,186.33068013191223,,1,,EB,5,lightness,readingArea,realistic,75,2023-03-13_16h22.45.063,tripletExp_regina_11082022,2022.2.4,119.73462746217528,
5,10,12,0,1.0,0.298245614035088,0,0.694444444444444,1.0,0,0.027777777777778,3.10526315789474,ReadingArea_rsl0-rcl100-esl29-rsm0-rcm69-esm100-rsr0-rcr2-esr310,exr/ReadingArea_rsl0-rcl100-esl29-rsm0-rcm69-esm100-rsr0-rcr2-esr310.exr,ReadingArea_rsl0-rcl100-esl29-rsm0-rcm69-esm100-rsr0-rcr2-esr310.npz,,,,,0,21,21,587,,left,green,0.72,188.0286500453949,188.398442029953,,1,,EB,5,lightness,readingArea,realistic,75,2023-03-13_16h22.45.063,tripletExp_regina_11082022,2022.2.4,119.73462746217528,
4,1,3,0,0.694444444444444,0.298245614035088,0,0.111111111111111,0.298245614035088,0,0.444444444444444,0.298245614035088,ReadingArea_rsl0-rcl69-esl29-rsm0-rcm11-esm29-rsr0-rcr44-esr29,exr/ReadingArea_rsl0-rcl69-esl29-rsm0-rcm11-esm29-rsr0-rcr44-esr29.exr,ReadingArea_rsl0-rcl69-esl29-rsm0-rcm11-esm29-rsr0-rcr44-esr29.npz,,,,,0,22,22,70,,right,red,0.97,190.08899903297424,190.45510005950928,,1,,EB,5,lightness,readingArea,realistic,75,2023-03-13_16h22.45.063,tripletExp_regina_11082022,2022.2.4,119.73462746217528,
10,8,11,0,0.694444444444444,1.0,0,0.25,1.0,0,1.0,1.0,ReadingArea_rsl0-rcl69-esl100-rsm0-rcm25-esm100-rsr0-rcr100-esr100,exr/ReadingArea_rsl0-rcl69-esl100-rsm0-rcm25-esm100-rsr0-rcr100-esr100.exr,ReadingArea_rsl0-rcl69-esl100-rsm0-rcm25-esm100-rsr0-rcr100-esr100.npz,,,,,0,23,23,578,,left,green,2.13,193.95861792564392,194.37895393371585,,1,,EB,5,lightness,readingArea,realistic,75,2023-03-13_16h22.45.063,tripletExp_regina_11082022,2022.2.4,119.73462746217528,
14,6,7,0,0.25,3.10526315789474,0,0.027777777777778,1.0,0,0.111111111111111,1.0,ReadingArea_rsl0-rcl25-esl310-rsm0-rcm2-esm100-rsr0-rcr11-esr100,exr/ReadingArea_rsl0-rcl25-esl310-rsm0-rcm2-esm100-rsr0-rcr11-esr100.exr,ReadingArea_rsl0-rcl25-esl310-rsm0-rcm2-esm100-rsr0-rcr11-esr100.npz,,,,,0,24,24,306,,right,red,0.7,196.07409596443176,196.482491016388,,1,,EB,5,lightness,readingArea,realistic,75,2023-03-13_16h22.45.063,tripletExp_regina_11082022,2022.2.4,119.73462746217528,
9,3,14,0,0.444444444444444,1.0,0,0.444444444444444,0.298245614035088,0,0.25,3.10526315789474,ReadingArea_rsl0-rcl44-esl100-rsm0-rcm44-esm29-rsr0-rcr25-esr310,exr/ReadingArea_rsl0-rcl44-esl100-rsm0-rcm44-esm29-rsr0-rcr25-esr310.exr,ReadingArea_rsl0-rcl44-esl100-rsm0-rcm44-esm29-rsr0-rcr25-esr310.npz,,,,,0,25,25,17,,left,green,0.84,198.18540000915527,198.5838429927826,,1,,EB,5,lightness,readingArea,realistic,75,2023-03-13_16h22.45.063,tripletExp_regina_11082022,2022.2.4,119.73462746217528,
4,1,13,0,0.694444444444444,0.298245614035088,0,0.111111111111111,0.298245614035088,0,0.111111111111111,3.10526315789474,ReadingArea_rsl0-rcl69-esl29-rsm0-rcm11-esm29-rsr0-rcr11-esr310,exr/ReadingArea_rsl0-rcl69-esl29-rsm0-rcm11-esm29-rsr0-rcr11-esr310.exr,ReadingArea_rsl0-rcl69-esl29-rsm0-rcm11-esm29-rsr0-rcr11-esr310.npz,,,,,0,26,26,565,,left,green,1.11,200.3058769702912,200.75749111175537,,1,,EB,5,lightness,readingArea,realistic,75,2023-03-13_16h22.45.063,tripletExp_regina_11082022,2022.2.4,119.73462746217528,
1,13,8,0,0.111111111111111,0.298245614035088,0,0.111111111111111,3.10526315789474,0,0.25,1.0,ReadingArea_rsl0-rcl11-esl29-rsm0-rcm11-esm310-rsr0-rcr25-esr100,exr/ReadingArea_rsl0-rcl11-esl29-rsm0-rcm11-esm310-rsr0-rcr25-esr100.exr,ReadingArea_rsl0-rcl11-esl29-rsm0-rcm11-esm310-rsr0-rcr25-esr100.npz,,,,,0,27,27,64,,right,red,0.76,202.46448302268985,202.89058899879456,,1,,EB,5,lightness,readingArea,realistic,75,2023-03-13_16h22.45.063,tripletExp_regina_11082022,2022.2.4,119.73462746217528,
2,5,3,0,0.25,0.298245614035088,0,1.0,0.298245614035088,0,0.444444444444444,0.298245614035088,ReadingArea_rsl0-rcl25-esl29-rsm0-rcm100-esm29-rsr0-rcr44-esr29,exr/ReadingArea_rsl0-rcl25-esl29-rsm0-rcm100-esm29-rsr0-rcr44-esr29.exr,ReadingArea_rsl0-rcl25-esl29-rsm0-rcm100-esm29-rsr0-rcr44-esr29.npz,,,,,0,28,28,135,,right,red,0.73,204.59764695167544,,,1,,EB,5,lightness,readingArea,realistic,75,2023-03-13_16h22.45.063,tripletExp_regina_11082022,2022.2.4,119.73462746217528,
10,7,8,0,0.694444444444444,1.0,0,0.111111111111111,1.0,0,0.25,1.0,ReadingArea_rsl0-rcl69-esl100-rsm0-rcm11-esm100-rsr0-rcr25-esr100,exr/ReadingArea_rsl0-rcl69-esl100-rsm0-rcm11-esm100-rsr0-rcr25-esr100.exr,ReadingArea_rsl0-rcl69-esl100-rsm0-rcm11-esm100-rsr0-rcr25-esr100.npz,,,,,0,29,29,57,,right,red,0.96,206.70849704742432,207.13910293579104,,1,,EB,5,lightness,readingArea,realistic,75,2023-03-13_16h22.45.063,tripletExp_regina_11082022,2022.2.4,119.73462746217528,
7,5,11,0,0.111111111111111,1.0,0,1.0,0.298245614035088,0,1.0,1.0,ReadingArea_rsl0-rcl11-esl100-rsm0-rcm100-esm29-rsr0-rcr100-esr100,exr/ReadingArea_rsl0-rcl11-esl100-rsm0-rcm100-esm29-rsr0-rcr100-esr100.exr,ReadingArea_rsl0-rcl11-esl100-rsm0-rcm100-esm29-rsr0-rcr100-esr100.npz,,,,,0,30,30,10,,right,red,0.88,208.8617870807648,209.3274641036988,,1,,EB,5,lightness,readingArea,realistic,75,2023-03-13_16h22.45.063,tripletExp_regina_11082022,2022.2.4,119.73462746217528,
0,4,6,0,0.027777777777778,0.298245614035088,0,0.694444444444444,0.298245614035088,0,0.027777777777778,1.0,ReadingArea_rsl0-rcl2-esl29-rsm0-rcm69-esm29-rsr0-rcr2-esr100,exr/ReadingArea_rsl0-rcl2-esl29-rsm0-rcm69-esm29-rsr0-rcr2-esr100.exr,ReadingArea_rsl0-rcl2-esl29-rsm0-rcm69-esm29-rsr0-rcr2-esr100.npz,,,,,0,31,31,49,,right,red,0.92,211.0341200828552,211.44776105880737,,1,,EB,5,lightness,readingArea,realistic,75,2023-03-13_16h22.45.063,tripletExp_regina_11082022,2022.2.4,119.73462746217528,
12,14,4,0,0.027777777777778,3.10526315789474,0,0.25,3.10526315789474,0,0.694444444444444,0.298245614035088,ReadingArea_rsl0-rcl2-esl310-rsm0-rcm25-esm310-rsr0-rcr69-esr29,exr/ReadingArea_rsl0-rcl2-esl310-rsm0-rcm25-esm310-rsr0-rcr69-esr29.exr,ReadingArea_rsl0-rcl2-esl310-rsm0-rcm25-esm310-rsr0-rcr69-esr29.npz,,,,,0,32,32,315,,right,red,0.67,213.15608716011047,213.5983190536499,,1,,EB,5,lightness,readingArea,realistic,75,2023-03-13_16h22.45.063,tripletExp_regina_11082022,2022.2.4,119.73462746217528,
5,8,7,0,1.0,0.298245614035088,0,0.25,1.0,0,0.111111111111111,1.0,ReadingArea_rsl0-rcl100-esl29-rsm0-rcm25-esm100-rsr0-rcr11-esr100,exr/ReadingArea_rsl0-rcl100-esl29-rsm0-rcm25-esm100-rsr0-rcr11-esr100.exr,ReadingArea_rsl0-rcl100-esl29-rsm0-rcm25-esm100-rsr0-rcr11-esr100.npz,,,,,0,33,33,36,,left,green,0.65,215.29067707061768,,,1,,EB,5,lightness,readingArea,realistic,75,2023-03-13_16h22.45.063,tripletExp_regina_11082022,2022.2.4,119.73462746217528,
14,8,9,0,0.25,3.10526315789474,0,0.25,1.0,0,0.444444444444444,1.0,ReadingArea_rsl0-rcl25-esl310-rsm0-rcm25-esm100-rsr0-rcr44-esr100,exr/ReadingArea_rsl0-rcl25-esl310-rsm0-rcm25-esm100-rsr0-rcr44-esr100.exr,ReadingArea_rsl0-rcl25-esl310-rsm0-rcm25-esm100-rsr0-rcr44-esr100.npz,,,,,0,34,34,518,,left,green,0.99,217.4441220760345,217.86267113685608,,1,,EB,5,lightness,readingArea,realistic,75,2023-03-13_16h22.45.063,tripletExp_regina_11082022,2022.2.4,119.73462746217528,
10,5,13,0,0.694444444444444,1.0,0,1.0,0.298245614035088,0,0.111111111111111,3.10526315789474,ReadingArea_rsl0-rcl69-esl100-rsm0-rcm100-esm29-rsr0-rcr11-esr310,exr/ReadingArea_rsl0-rcl69-esl100-rsm0-rcm100-esm29-rsr0-rcr11-esr310.exr,ReadingArea_rsl0-rcl69-esl100-rsm0-rcm100-esm29-rsr0-rcr11-esr310.npz,,,,,0,35,35,478,,left,green,0.79,219.58188700675964,219.98092198371887,,1,,EB,5,lightness,readingArea,realistic,75,2023-03-13_16h22.45.063,tripletExp_regina_11082022,2022.2.4,119.73462746217528,
2,6,13,0,0.25,0.298245614035088,0,0.027777777777778,1.0,0,0.111111111111111,3.10526315789474,ReadingArea_rsl0-rcl25-esl29-rsm0-rcm2-esm100-rsr0-rcr11-esr310,exr/ReadingArea_rsl0-rcl25-esl29-rsm0-rcm2-esm100-rsr0-rcr11-esr310.exr,ReadingArea_rsl0-rcl25-esl29-rsm0-rcm2-esm100-rsr0-rcr11-esr310.npz,,,,,0,36,36,388,,left,green,0.69,221.70174407958984,222.1658680438996,,1,,EB,5,lightness,readingArea,realistic,75,2023-03-13_16h22.45.063,tripletExp_regina_11082022,2022.2.4,119.73462746217528,
6,1,2,0,0.027777777777778,1.0,0,0.111111111111111,0.298245614035088,0,0.25,0.298245614035088,ReadingArea_rsl0-rcl2-esl100-rsm0-rcm11-esm29-rsr0-rcr25-esr29,exr/ReadingArea_rsl0-rcl2-esl100-rsm0-rcm11-esm29-rsr0-rcr25-esr29.exr,ReadingArea_rsl0-rcl2-esl100-rsm0-rcm11-esm29-rsr0-rcr25-esr29.npz,,,,,0,37,37,68,,left,green,0.76,223.86480712890625,224.2854809761048,,1,,EB,5,lightness,readingArea,realistic,75,2023-03-13_16h22.45.063,tripletExp_regina_11082022,2022.2.4,119.73462746217528,
14,11,3,0,0.25,3.10526315789474,0,1.0,1.0,0,0.444444444444444,0.298245614035088,ReadingArea_rsl0-rcl25-esl310-rsm0-rcm100-esm100-rsr0-rcr44-esr29,exr/ReadingArea_rsl0-rcl25-esl310-rsm0-rcm100-esm100-rsr0-rcr44-esr29.exr,ReadingArea_rsl0-rcl25-esl310-rsm0-rcm100-esm100-rsr0-rcr44-esr29.npz,,,,,0,38,38,78,,left,green,0.7,225.9794609546661,226.3481171131134,,1,,EB,5,lightness,readingArea,realistic,75,2023-03-13_16h22.45.063,tripletExp_regina_11082022,2022.2.4,119.73462746217528,
4,0,3,0,0.694444444444444,0.298245614035088,0,0.027777777777778,0.298245614035088,0,0.444444444444444,0.298245614035088,ReadingArea_rsl0-rcl69-esl29-rsm0-rcm2-esm29-rsr0-rcr44-esr29,exr/ReadingArea_rsl0-rcl69-esl29-rsm0-rcm2-esm29-rsr0-rcr44-esr29.exr,ReadingArea_rsl0-rcl69-esl29-rsm0-rcm2-esm29-rsr0-rcr44-esr29.npz,,,,,0,39,39,88,,right,red,2.63,229.8156499862671,230.28194093704224,,1,,EB,5,lightness,readingArea,realistic,75,2023-03-13_16h22.45.063,tripletExp_regina_11082022,2022.2.4,119.73462746217528,
7,9,8,0,0.111111111111111,1.0,0,0.444444444444444,1.0,0,0.25,1.0,ReadingArea_rsl0-rcl11-esl100-rsm0-rcm44-esm100-rsr0-rcr25-esr100,exr/ReadingArea_rsl0-rcl11-esl100-rsm0-rcm44-esm100-rsr0-rcr25-esr100.exr,ReadingArea_rsl0-rcl11-esl100-rsm0-rcm44-esm100-rsr0-rcr25-esr100.npz,,,,,0,40,40,515,,right,red,0.73,231.98522400856007,232.4155719280243,,1,,EB,5,lightness,readingArea,realistic,75,2023-03-13_16h22.45.063,tripletExp_regina_11082022,2022.2.4,119.73462746217528,
3,0,2,0,0.444444444444444,0.298245614035088,0,0.027777777777778,0.298245614035088,0,0.25,0.298245614035088,ReadingArea_rsl0-rcl44-esl29-rsm0-rcm2-esm29-rsr0-rcr25-esr29,exr/ReadingArea_rsl0-rcl44-esl29-rsm0-rcm2-esm29-rsr0-rcr25-esr29.exr,ReadingArea_rsl0-rcl44-esl29-rsm0-rcm2-esm29-rsr0-rcr25-esr29.npz,,,,,0,41,41,334,,right,red,0.71,234.13343501091003,234.5554699897766,,1,,EB,5,lightness,readingArea,realistic,75,2023-03-13_16h22.45.063,tripletExp_regina_11082022,2022.2.4,119.73462746217528,
2,9,11,0,0.25,0.298245614035088,0,0.444444444444444,1.0,0,1.0,1.0,ReadingArea_rsl0-rcl25-esl29-rsm0-rcm44-esm100-rsr0-rcr100-esr100,exr/ReadingArea_rsl0-rcl25-esl29-rsm0-rcm44-esm100-rsr0-rcr100-esr100.exr,ReadingArea_rsl0-rcl25-esl29-rsm0-rcm44-esm100-rsr0-rcr100-esr100.npz,,,,,0,42,42,164,,right,red,0.56,236.2649929523468,236.7455670833588,,1,,EB,5,lightness,readingArea,realistic,75,2023-03-13_16h22.45.063,tripletExp_regina_11082022,2022.2.4,119.73462746217528,
0,9,11,0,0.027777777777778,0.298245614035088,0,0.444444444444444,1.0,0,1.0,1.0,ReadingArea_rsl0-rcl2-esl29-rsm0-rcm44-esm100-rsr0-rcr100-esr100,exr/ReadingArea_rsl0-rcl2-esl29-rsm0-rcm44-esm100-rsr0-rcr100-esr100.exr,ReadingArea_rsl0-rcl2-esl29-rsm0-rcm44-esm100-rsr0-rcr100-esr100.npz,,,,,0,43,43,448,,right,red,0.72,238.44096493721008,238.8599100112915,,1,,EB,5,lightness,readingArea,realistic,75,2023-03-13_16h22.45.063,tripletExp_regina_11082022,2022.2.4,119.73462746217528,
2,5,0,0,0.25,0.298245614035088,0,1.0,0.298245614035088,0,0.027777777777778,0.298245614035088,ReadingArea_rsl0-rcl25-esl29-rsm0-rcm100-esm29-rsr0-rcr2-esr29,exr/ReadingArea_rsl0-rcl25-esl29-rsm0-rcm100-esm29-rsr0-rcr2-esr29.exr,ReadingArea_rsl0-rcl25-esl29-rsm0-rcm100-esm29-rsr0-rcr2-esr29.npz,,,,,0,44,44,414,,left,green,0.7,240.5717589855194,240.9859380722046,,1,,EB,5,lightness,readingArea,realistic,75,2023-03-13_16h22.45.063,tripletExp_regina_11082022,2022.2.4,119.73462746217528,
8,1,3,0,0.25,1.0,0,0.111111111111111,0.298245614035088,0,0.444444444444444,0.298245614035088,ReadingArea_rsl0-rcl25-esl100-rsm0-rcm11-esm29-rsr0-rcr44-esr29,exr/ReadingArea_rsl0-rcl25-esl100-rsm0-rcm11-esm29-rsr0-rcr44-esr29.exr,ReadingArea_rsl0-rcl25-esl100-rsm0-rcm11-esm29-rsr0-rcr44-esr29.npz,,,,,0,45,45,490,,right,red,0.89,242.6862471103668,,,1,,EB,5,lightness,readingArea,realistic,75,2023-03-13_16h22.45.063,tripletExp_regina_11082022,2022.2.4,119.73462746217528,
5,2,7,0,1.0,0.298245614035088,0,0.25,0.298245614035088,0,0.111111111111111,1.0,ReadingArea_rsl0-rcl100-esl29-rsm0-rcm25-esm29-rsr0-rcr11-esr100,exr/ReadingArea_rsl0-rcl100-esl29-rsm0-rcm25-esm29-rsr0-rcr11-esr100.exr,ReadingArea_rsl0-rcl100-esl29-rsm0-rcm25-esm29-rsr0-rcr11-esr100.npz,,,,,0,46,46,179,,right,red,0.65,244.87170910835263,245.31788611412048,,1,,EB,5,lightness,readingArea,realistic,75,2023-03-13_16h22.45.063,tripletExp_regina_11082022,2022.2.4,119.73462746217528,
10,5,2,0,0.694444444444444,1.0,0,1.0,0.298245614035088,0,0.25,0.298245614035088,ReadingArea_rsl0-rcl69-esl100-rsm0-rcm100-esm29-rsr0-rcr25-esr29,exr/ReadingArea_rsl0-rcl69-esl100-rsm0-rcm100-esm29-rsr0-rcr25-esr29.exr,ReadingArea_rsl0-rcl69-esl100-rsm0-rcm100-esm29-rsr0-rcr25-esr29.npz,,,,,0,47,47,299,,left,green,0.83,247.00479292869568,247.5024440288544,,1,,EB,5,lightness,readingArea,realistic,75,2023-03-13_16h22.45.063,tripletExp_regina_11082022,2022.2.4,119.73462746217528,
0,5,1,0,0.027777777777778,0.298245614035088,0,1.0,0.298245614035088,0,0.111111111111111,0.298245614035088,ReadingArea_rsl0-rcl2-esl29-rsm0-rcm100-esm29-rsr0-rcr11-esr29,exr/ReadingArea_rsl0-rcl2-esl29-rsm0-rcm100-esm29-rsr0-rcr11-esr29.exr,ReadingArea_rsl0-rcl2-esl29-rsm0-rcm100-esm29-rsr0-rcr11-esr29.npz,,,,,0,48,48,367,,right,red,1.07,249.2099480628968,249.665295124054,,1,,EB,5,lightness,readingArea,realistic,75,2023-03-13_16h22.45.063,tripletExp_regina_11082022,2022.2.4,119.73462746217528,
3,9,0,0,0.444444444444444,0.298245614035088,0,0.444444444444444,1.0,0,0.027777777777778,0.298245614035088,ReadingArea_rsl0-rcl44-esl29-rsm0-rcm44-esm100-rsr0-rcr2-esr29,exr/ReadingArea_rsl0-rcl44-esl29-rsm0-rcm44-esm100-rsr0-rcr2-esr29.exr,ReadingArea_rsl0-rcl44-esl29-rsm0-rcm44-esm100-rsr0-rcr2-esr29.npz,,,,,0,49,49,551,,left,green,0.71,251.38703799247745,251.8019180297852,,1,,EB,5,lightness,readingArea,realistic,75,2023-03-13_16h22.45.063,tripletExp_regina_11082022,2022.2.4,119.73462746217528,
9,11,6,0,0.444444444444444,1.0,0,1.0,1.0,0,0.027777777777778,1.0,ReadingArea_rsl0-rcl44-esl100-rsm0-rcm100-esm100-rsr0-rcr2-esr100,exr/ReadingArea_rsl0-rcl44-esl100-rsm0-rcm100-esm100-rsr0-rcr2-esr100.exr,ReadingArea_rsl0-rcl44-esl100-rsm0-rcm100-esm100-rsr0-rcr2-esr100.npz,,,,,0,50,50,404,,left,green,0.58,253.49861693382263,253.9466290473938,,1,,EB,5,lightness,readingArea,realistic,75,2023-03-13_16h22.45.063,tripletExp_regina_11082022,2022.2.4,119.73462746217528,
5,13,7,0,1.0,0.298245614035088,0,0.111111111111111,3.10526315789474,0,0.111111111111111,1.0,ReadingArea_rsl0-rcl100-esl29-rsm0-rcm11-esm310-rsr0-rcr11-esr100,exr/ReadingArea_rsl0-rcl100-esl29-rsm0-rcm11-esm310-rsr0-rcr11-esr100.exr,ReadingArea_rsl0-rcl100-esl29-rsm0-rcm11-esm310-rsr0-rcr11-esr100.npz,,,,,0,51,51,189,,right,red,0.96,255.6450290679932,256.063805103302,,1,,EB,5,lightness,readingArea,realistic,75,2023-03-13_16h22.45.063,tripletExp_regina_11082022,2022.2.4,119.73462746217528,
10,11,13,0,0.694444444444444,1.0,0,1.0,1.0,0,0.111111111111111,3.10526315789474,ReadingArea_rsl0-rcl69-esl100-rsm0-rcm100-esm100-rsr0-rcr11-esr310,exr/ReadingArea_rsl0-rcl69-esl100-rsm0-rcm100-esm100-rsr0-rcr11-esr310.exr,ReadingArea_rsl0-rcl69-esl100-rsm0-rcm100-esm100-rsr0-rcr11-esr310.npz,,,,,0,52,52,79,,left,green,0.72,257.764023065567,,,1,,EB,5,lightness,readingArea,realistic,75,2023-03-13_16h22.45.063,tripletExp_regina_11082022,2022.2.4,119.73462746217528,
14,12,5,0,0.25,3.10526315789474,0,0.027777777777778,3.10526315789474,0,1.0,0.298245614035088,ReadingArea_rsl0-rcl25-esl310-rsm0-rcm2-esm310-rsr0-rcr100-esr29,exr/ReadingArea_rsl0-rcl25-esl310-rsm0-rcm2-esm310-rsr0-rcr100-esr29.exr,ReadingArea_rsl0-rcl25-esl310-rsm0-rcm2-esm310-rsr0-rcr100-esr29.npz,,,,,0,53,53,335,,right,red,1.11,259.9341330528259,260.3585250377655,,1,,EB,5,lightness,readingArea,realistic,75,2023-03-13_16h22.45.063,tripletExp_regina_11082022,2022.2.4,119.73462746217528,
11,5,4,0,1.0,1.0,0,1.0,0.298245614035088,0,0.694444444444444,0.298245614035088,ReadingArea_rsl0-rcl100-esl100-rsm0-rcm100-esm29-rsr0-rcr69-esr29,exr/ReadingArea_rsl0-rcl100-esl100-rsm0-rcm100-esm29-rsr0-rcr69-esr29.exr,ReadingArea_rsl0-rcl100-esl100-rsm0-rcm100-esm29-rsr0-rcr69-esr29.npz,,,,,0,54,54,564,,left,green,0.99,262.05361008644104,262.4621419906616,,1,,EB,5,lightness,readingArea,realistic,75,2023-03-13_16h22.45.063,tripletExp_regina_11082022,2022.2.4,119.73462746217528,
3,1,0,0,0.444444444444444,0.298245614035088,0,0.111111111111111,0.298245614035088,0,0.027777777777778,0.298245614035088,ReadingArea_rsl0-rcl44-esl29-rsm0-rcm11-esm29-rsr0-rcr2-esr29,exr/ReadingArea_rsl0-rcl44-esl29-rsm0-rcm11-esm29-rsr0-rcr2-esr29.exr,ReadingArea_rsl0-rcl44-esl29-rsm0-rcm11-esm29-rsr0-rcr2-esr29.npz,,,,,0,55,55,343,,right,red,0.88,264.1522181034088,264.5692620277405,,1,,EB,5,lightness,readingArea,realistic,75,2023-03-13_16h22.45.063,tripletExp_regina_11082022,2022.2.4,119.73462746217528,
3,4,5,0,0.444444444444444,0.298245614035088,0,0.694444444444444,0.298245614035088,0,1.0,0.298245614035088,ReadingArea_rsl0-rcl44-esl29-rsm0-rcm69-esm29-rsr0-rcr100-esr29,exr/ReadingArea_rsl0-rcl44-esl29-rsm0-rcm69-esm29-rsr0-rcr100-esr29.exr,ReadingArea_rsl0-rcl44-esl29-rsm0-rcm69-esm29-rsr0-rcr100-esr29.npz,,,,,0,56,56,233,,right,red,1.05,266.2627921104431,266.7051899433136,,1,,EB,5,lightness,readingArea,realistic,75,2023-03-13_16h22.45.063,tripletExp_regina_11082022,2022.2.4,119.73462746217528,
1,5,14,0,0.111111111111111,0.298245614035088,0,1.0,0.298245614035088,0,0.25,3.10526315789474,ReadingArea_rsl0-rcl11-esl29-rsm0-rcm100-esm29-rsr0-rcr25-esr310,exr/ReadingArea_rsl0-rcl11-esl29-rsm0-rcm100-esm29-rsr0-rcr25-esr310.exr,ReadingArea_rsl0-rcl11-esl29-rsm0-rcm100-esm29-rsr0-rcr25-esr310.npz,,,,,0,57,57,191,,right,red,0.74,268.4270670413971,268.9188680648804,,1,,EB,5,lightness,readingArea,realistic,75,2023-03-13_16h22.45.063,tripletExp_regina_11082022,2022.2.4,119.73462746217528,
13,0,12,0,0.111111111111111,3.10526315789474,0,0.027777777777778,0.298245614035088,0,0.027777777777778,3.10526315789474,ReadingArea_rsl0-rcl11-esl310-rsm0-rcm2-esm29-rsr0-rcr2-esr310,exr/ReadingArea_rsl0-rcl11-esl310-rsm0-rcm2-esm29-rsr0-rcr2-esr310.exr,ReadingArea_rsl0-rcl11-esl310-rsm0-rcm2-esm29-rsr0-rcr2-esr310.npz,,,,,0,58,58,56,,right,red,0.77,270.6410160064697,,,1,,EB,5,lightness,readingArea,realistic,75,2023-03-13_16h22.45.063,tripletExp_regina_11082022,2022.2.4,119.73462746217528,
14,10,13,0,0.25,3.10526315789474,0,0.694444444444444,1.0,0,0.111111111111111,3.10526315789474,ReadingArea_rsl0-rcl25-esl310-rsm0-rcm69-esm100-rsr0-rcr11-esr310,exr/ReadingArea_rsl0-rcl25-esl310-rsm0-rcm69-esm100-rsr0-rcr11-esr310.exr,ReadingArea_rsl0-rcl25-esl310-rsm0-rcm69-esm100-rsr0-rcr11-esr310.npz,,,,,0,59,59,204,,left,green,0.81,272.75639295578003,273.16761803627014,,1,,EB,5,lightness,readingArea,realistic,75,2023-03-13_16h22.45.063,tripletExp_regina_11082022,2022.2.4,119.73462746217528,
8,14,3,0,0.25,1.0,0,0.25,3.10526315789474,0,0.444444444444444,0.298245614035088,ReadingArea_rsl0-rcl25-esl100-rsm0-rcm25-esm310-rsr0-rcr44-esr29,exr/ReadingArea_rsl0-rcl25-esl100-rsm0-rcm25-esm310-rsr0-rcr44-esr29.exr,ReadingArea_rsl0-rcl25-esl100-rsm0-rcm25-esm310-rsr0-rcr44-esr29.npz,,,,,0,60,60,503,,right,red,2.24,276.6415541172028,277.0566871166229,,1,,EB,5,lightness,readingArea,realistic,75,2023-03-13_16h22.45.063,tripletExp_regina_11082022,2022.2.4,119.73462746217528,
3,6,11,0,0.444444444444444,0.298245614035088,0,0.027777777777778,1.0,0,1.0,1.0,ReadingArea_rsl0-rcl44-esl29-rsm0-rcm2-esm100-rsr0-rcr100-esr100,exr/ReadingArea_rsl0-rcl44-esl29-rsm0-rcm2-esm100-rsr0-rcr100-esr100.exr,ReadingArea_rsl0-rcl44-esl29-rsm0-rcm2-esm100-rsr0-rcr100-esr100.npz,,,,,0,61,61,155,,left,green,0.71,278.749272108078,279.229031085968,,1,,EB,5,lightness,readingArea,realistic,75,2023-03-13_16h22.45.063,tripletExp_regina_11082022,2022.2.4,119.73462746217528,
0,4,12,0,0.027777777777778,0.298245614035088,0,0.694444444444444,0.298245614035088,0,0.027777777777778,3.10526315789474,ReadingArea_rsl0-rcl2-esl29-rsm0-rcm69-esm29-rsr0-rcr2-esr310,exr/ReadingArea_rsl0-rcl2-esl29-rsm0-rcm69-esm29-rsr0-rcr2-esr310.exr,ReadingArea_rsl0-rcl2-esl29-rsm0-rcm69-esm29-rsr0-rcr2-esr310.npz,,,,,0,62,62,150,,right,red,0.73,280.931715965271,281.344820022583,,1,,EB,5,lightness,readingArea,realistic,75,2023-03-13_16h22.45.063,tripletExp_regina_11082022,2022.2.4,119.73462746217528,
14,2,8,0,0.25,3.10526315789474,0,0.25,0.298245614035088,0,0.25,1.0,ReadingArea_rsl0-rcl25-esl310-rsm0-rcm25-esm29-rsr0-rcr25-esr100,exr/ReadingArea_rsl0-rcl25-esl310-rsm0-rcm25-esm29-rsr0-rcr25-esr100.exr,ReadingArea_rsl0-rcl25-esl310-rsm0-rcm25-esm29-rsr0-rcr25-esr100.npz,,,,,0,63,63,212,,right,red,0.68,283.04871106147766,283.4172959327698,,1,,EB,5,lightness,readingArea,realistic,75,2023-03-13_16h22.45.063,tripletExp_regina_11082022,2022.2.4,119.73462746217528,
10,0,8,0,0.694444444444444,1.0,0,0.027777777777778,0.298245614035088,0,0.25,1.0,ReadingArea_rsl0-rcl69-esl100-rsm0-rcm2-esm29-rsr0-rcr25-esr100,exr/ReadingArea_rsl0-rcl69-esl100-rsm0-rcm2-esm29-rsr0-rcr25-esr100.exr,ReadingArea_rsl0-rcl69-esl100-rsm0-rcm2-esm29-rsr0-rcr25-esr100.npz,,,,,0,64,64,552,,right,red,0.71,285.12170600891113,285.5621020793915,,1,,EB,5,lightness,readingArea,realistic,75,2023-03-13_16h22.45.063,tripletExp_regina_11082022,2022.2.4,119.73462746217528,
3,1,6,0,0.444444444444444,0.298245614035088,0,0.111111111111111,0.298245614035088,0,0.027777777777778,1.0,ReadingArea_rsl0-rcl44-esl29-rsm0-rcm11-esm29-rsr0-rcr2-esr100,exr/ReadingArea_rsl0-rcl44-esl29-rsm0-rcm11-esm29-rsr0-rcr2-esr100.exr,ReadingArea_rsl0-rcl44-esl29-rsm0-rcm11-esm29-rsr0-rcr2-esr100.npz,,,,,0,65,65,464,,right,red,0.82,287.2545680999756,287.6809411048889,,1,,EB,5,lightness,readingArea,realistic,75,2023-03-13_16h22.45.063,tripletExp_regina_11082022,2022.2.4,119.73462746217528,
11,7,9,0,1.0,1.0,0,0.111111111111111,1.0,0,0.444444444444444,1.0,ReadingArea_rsl0-rcl100-esl100-rsm0-rcm11-esm100-rsr0-rcr44-esr100,exr/ReadingArea_rsl0-rcl100-esl100-rsm0-rcm11-esm100-rsr0-rcr44-esr100.exr,ReadingArea_rsl0-rcl100-esl100-rsm0-rcm11-esm100-rsr0-rcr44-esr100.npz,,,,,0,66,66,521,,right,red,0.81,289.3866801261902,289.86383509635925,,1,,EB,5,lightness,readingArea,realistic,75,2023-03-13_16h22.45.063,tripletExp_regina_11082022,2022.2.4,119.73462746217528,
6,4,10,0,0.027777777777778,1.0,0,0.694444444444444,0.298245614035088,0,0.694444444444444,1.0,ReadingArea_rsl0-rcl2-esl100-rsm0-rcm69-esm29-rsr0-rcr69-esr100,exr/ReadingArea_rsl0-rcl2-esl100-rsm0-rcm69-esm29-rsr0-rcr69-esr100.exr,ReadingArea_rsl0-rcl2-esl100-rsm0-rcm69-esm29-rsr0-rcr69-esr100.npz,,,,,0,67,67,554,,right,red,0.98,291.551607131958,292.006422996521,,1,,EB,5,lightness,readingArea,realistic,75,2023-03-13_16h22.45.063,tripletExp_regina_11082022,2022.2.4,119.73462746217528,
1,14,5,0,0.111111111111111,0.298245614035088,0,0.25,3.10526315789474,0,1.0,0.298245614035088,ReadingArea_rsl0-rcl11-esl29-rsm0-rcm25-esm310-rsr0-rcr100-esr29,exr/ReadingArea_rsl0-rcl11-esl29-rsm0-rcm25-esm310-rsr0-rcr100-esr29.exr,ReadingArea_rsl0-rcl11-esl29-rsm0-rcm25-esm310-rsr0-rcr100-esr29.npz,,,,,0,68,68,509,,right,red,0.73,293.70876598358154,294.1829741001129,,1,,EB,5,lightness,readingArea,realistic,75,2023-03-13_16h22.45.063,tripletExp_regina_11082022,2022.2.4,119.73462746217528,
0,7,13,0,0.027777777777778,0.298245614035088,0,0.111111111111111,1.0,0,0.111111111111111,3.10526315789474,ReadingArea_rsl0-rcl2-esl29-rsm0-rcm11-esm100-rsr0-rcr11-esr310,exr/ReadingArea_rsl0-rcl2-esl29-rsm0-rcm11-esm100-rsr0-rcr11-esr310.exr,ReadingArea_rsl0-rcl2-esl29-rsm0-rcm11-esm100-rsr0-rcr11-esr310.npz,,,,,0,69,69,159,,right,red,0.9,295.88042092323303,296.2526271343231,,1,,EB,5,lightness,readingArea,realistic,75,2023-03-13_16h22.45.063,tripletExp_regina_11082022,2022.2.4,119.73462746217528,
4,0,1,0,0.694444444444444,0.298245614035088,0,0.027777777777778,0.298245614035088,0,0.111111111111111,0.298245614035088,ReadingArea_rsl0-rcl69-esl29-rsm0-rcm2-esm29-rsr0-rcr11-esr29,exr/ReadingArea_rsl0-rcl69-esl29-rsm0-rcm2-esm29-rsr0-rcr11-esr29.exr,ReadingArea_rsl0-rcl69-esl29-rsm0-rcm2-esm29-rsr0-rcr11-esr29.npz,,,,,0,70,70,173,,right,red,0.73,297.975301027298,298.4806270599365,,1,,EB,5,lightness,readingArea,realistic,75,2023-03-13_16h22.45.063,tripletExp_regina_11082022,2022.2.4,119.73462746217528,
13,6,2,0,0.111111111111111,3.10526315789474,0,0.027777777777778,1.0,0,0.25,0.298245614035088,ReadingArea_rsl0-rcl11-esl310-rsm0-rcm2-esm100-rsr0-rcr25-esr29,exr/ReadingArea_rsl0-rcl11-esl310-rsm0-rcm2-esm100-rsr0-rcr25-esr29.exr,ReadingArea_rsl0-rcl11-esl310-rsm0-rcm2-esm100-rsr0-rcr25-esr29.npz,,,,,0,71,71,115,,right,red,0.88,300.1842460632324,300.67672300338745,,1,,EB,5,lightness,readingArea,realistic,75,2023-03-13_16h22.45.063,tripletExp_regina_11082022,2022.2.4,119.73462746217528,
5,14,4,0,1.0,0.298245614035088,0,0.25,3.10526315789474,0,0.694444444444444,0.298245614035088,ReadingArea_rsl0-rcl100-esl29-rsm0-rcm25-esm310-rsr0-rcr69-esr29,exr/ReadingArea_rsl0-rcl100-esl29-rsm0-rcm25-esm310-rsr0-rcr69-esr29.exr,ReadingArea_rsl0-rcl100-esl29-rsm0-rcm25-esm310-rsr0-rcr69-esr29.npz,,,,,0,72,72,69,,right,red,1.03,302.3663561344147,302.83793807029724,,1,,EB,5,lightness,readingArea,realistic,75,2023-03-13_16h22.45.063,tripletExp_regina_11082022,2022.2.4,119.73462746217528,
7,14,10,0,0.111111111111111,1.0,0,0.25,3.10526315789474,0,0.694444444444444,1.0,ReadingArea_rsl0-rcl11-esl100-rsm0-rcm25-esm310-rsr0-rcr69-esr100,exr/ReadingArea_rsl0-rcl11-esl100-rsm0-rcm25-esm310-rsr0-rcr69-esr100.exr,ReadingArea_rsl0-rcl11-esl100-rsm0-rcm25-esm310-rsr0-rcr69-esr100.npz,,,,,0,73,73,472,,right,red,0.82,304.5474829673767,305.0376651287079,,1,,EB,5,lightness,readingArea,realistic,75,2023-03-13_16h22.45.063,tripletExp_regina_11082022,2022.2.4,119.73462746217528,
1,13,11,0,0.111111111111111,0.298245614035088,0,0.111111111111111,3.10526315789474,0,1.0,1.0,ReadingArea_rsl0-rcl11-esl29-rsm0-rcm11-esm310-rsr0-rcr100-esr100,exr/ReadingArea_rsl0-rcl11-esl29-rsm0-rcm11-esm310-rsr0-rcr100-esr100.exr,ReadingArea_rsl0-rcl11-esl29-rsm0-rcm11-esm310-rsr0-rcr100-esr100.npz,,,,,0,74,74,333,,left,green,2.24,308.52041697502136,308.72067499160767,,1,,EB,5,lightness,readingArea,realistic,75,2023-03-13_16h22.45.063,tripletExp_regina_11082022,2022.2.4,119.73462746217528,
5,3,0,0,1.0,0.298245614035088,0,0.444444444444444,0.298245614035088,0,0.027777777777778,0.298245614035088,ReadingArea_rsl0-rcl100-esl29-rsm0-rcm44-esm29-rsr0-rcr2-esr29,exr/ReadingArea_rsl0-rcl100-esl29-rsm0-rcm44-esm29-rsr0-rcr2-esr29.exr,ReadingArea_rsl0-rcl100-esl29-rsm0-rcm44-esm29-rsr0-rcr2-esr29.npz,,,,,0,75,75,303,,left,green,1.14,358.99026012420654,359.48142099380493,,2,,EB,5,lightness,readingArea,realistic,75,2023-03-13_16h22.45.063,tripletExp_regina_11082022,2022.2.4,119.73462746217528,
12,2,9,0,0.027777777777778,3.10526315789474,0,0.25,0.298245614035088,0,0.444444444444444,1.0,ReadingArea_rsl0-rcl2-esl310-rsm0-rcm25-esm29-rsr0-rcr44-esr100,exr/ReadingArea_rsl0-rcl2-esl310-rsm0-rcm25-esm29-rsr0-rcr44-esr100.exr,ReadingArea_rsl0-rcl2-esl310-rsm0-rcm25-esm29-rsr0-rcr44-esr100.npz,,,,,0,76,76,495,,left,green,0.69,361.1749060153961,361.64244508743286,,2,,EB,5,lightness,readingArea,realistic,75,2023-03-13_16h22.45.063,tripletExp_regina_11082022,2022.2.4,119.73462746217528,
7,8,3,0,0.111111111111111,1.0,0,0.25,1.0,0,0.444444444444444,0.298245614035088,ReadingArea_rsl0-rcl11-esl100-rsm0-rcm25-esm100-rsr0-rcr44-esr29,exr/ReadingArea_rsl0-rcl11-esl100-rsm0-rcm25-esm100-rsr0-rcr44-esr29.exr,ReadingArea_rsl0-rcl11-esl100-rsm0-rcm25-esm100-rsr0-rcr44-esr29.npz,,,,,0,77,77,459,,right,red,0.81,363.3473589420319,,,2,,EB,5,lightness,readingArea,realistic,75,2023-03-13_16h22.45.063,tripletExp_regina_11082022,2022.2.4,119.73462746217528,
10,7,11,0,0.694444444444444,1.0,0,0.111111111111111,1.0,0,1.0,1.0,ReadingArea_rsl0-rcl69-esl100-rsm0-rcm11-esm100-rsr0-rcr100-esr100,exr/ReadingArea_rsl0-rcl69-esl100-rsm0-rcm11-esm100-rsr0-rcr100-esr100.exr,ReadingArea_rsl0-rcl69-esl100-rsm0-rcm11-esm100-rsr0-rcr100-esr100.npz,,,,,0,78,78,542,,left,green,1.24,365.4827101230621,365.95510697364807,,2,,EB,5,lightness,readingArea,realistic,75,2023-03-13_16h22.45.063,tripletExp_regina_11082022,2022.2.4,119.73462746217528,
6,10,11,0,0.027777777777778,1.0,0,0.694444444444444,1.0,0,1.0,1.0,ReadingArea_rsl0-rcl2-esl100-rsm0-rcm69-esm100-rsr0-rcr100-esr100,exr/ReadingArea_rsl0-rcl2-esl100-rsm0-rcm69-esm100-rsr0-rcr100-esr100.exr,ReadingArea_rsl0-rcl2-esl100-rsm0-rcm69-esm100-rsr0-rcr100-esr100.npz,,,,,0,79,79,116,,right,red,0.77,367.6515190601349,368.0823290348053,,2,,EB,5,lightness,readingArea,realistic,75,2023-03-13_16h22.45.063,tripletExp_regina_11082022,2022.2.4,119.73462746217528,
14,12,9,0,0.25,3.10526315789474,0,0.027777777777778,3.10526315789474,0,0.444444444444444,1.0,ReadingArea_rsl0-rcl25-esl310-rsm0-rcm2-esm310-rsr0-rcr44-esr100,exr/ReadingArea_rsl0-rcl25-esl310-rsm0-rcm2-esm310-rsr0-rcr44-esr100.exr,ReadingArea_rsl0-rcl25-esl310-rsm0-rcm2-esm310-rsr0-rcr44-esr100.npz,,,,,0,80,80,40,,right,red,0.84,369.8078789710999,370.1799840927124,,2,,EB,5,lightness,readingArea,realistic,75,2023-03-13_16h22.45.063,tripletExp_regina_11082022,2022.2.4,119.73462746217528,
10,9,6,0,0.694444444444444,1.0,0,0.444444444444444,1.0,0,0.027777777777778,1.0,ReadingArea_rsl0-rcl69-esl100-rsm0-rcm44-esm100-rsr0-rcr2-esr100,exr/ReadingArea_rsl0-rcl69-esl100-rsm0-rcm44-esm100-rsr0-rcr2-esr100.exr,ReadingArea_rsl0-rcl69-esl100-rsm0-rcm44-esm100-rsr0-rcr2-esr100.npz,,,,,0,81,81,35,,left,green,0.57,371.891713142395,372.37746810913086,,2,,EB,5,lightness,readingArea,realistic,75,2023-03-13_16h22.45.063,tripletExp_regina_11082022,2022.2.4,119.73462746217528,
6,11,3,0,0.027777777777778,1.0,0,1.0,1.0,0,0.444444444444444,0.298245614035088,ReadingArea_rsl0-rcl2-esl100-rsm0-rcm100-esm100-rsr0-rcr44-esr29,exr/ReadingArea_rsl0-rcl2-esl100-rsm0-rcm100-esm100-rsr0-rcr44-esr29.exr,ReadingArea_rsl0-rcl2-esl100-rsm0-rcm100-esm100-rsr0-rcr44-esr29.npz,,,,,0,82,82,11,,right,red,0.63,374.0828170776367,374.5977990627289,,2,,EB,5,lightness,readingArea,realistic,75,2023-03-13_16h22.45.063,tripletExp_regina_11082022,2022.2.4,119.73462746217528,
0,8,7,0,0.027777777777778,0.298245614035088,0,0.25,1.0,0,0.111111111111111,1.0,ReadingArea_rsl0-rcl2-esl29-rsm0-rcm25-esm100-rsr0-rcr11-esr100,exr/ReadingArea_rsl0-rcl2-esl29-rsm0-rcm25-esm100-rsr0-rcr11-esr100.exr,ReadingArea_rsl0-rcl2-esl29-rsm0-rcm25-esm100-rsr0-rcr11-esr100.npz,,,,,0,83,83,9,,right,red,0.76,376.3121631145477,376.74772906303406,,2,,EB,5,lightness,readingArea,realistic,75,2023-03-13_16h22.45.063,tripletExp_regina_11082022,2022.2.4,119.73462746217528,
7,2,6,0,0.111111111111111,1.0,0,0.25,0.298245614035088,0,0.027777777777778,1.0,ReadingArea_rsl0-rcl11-esl100-rsm0-rcm25-esm29-rsr0-rcr2-esr100,exr/ReadingArea_rsl0-rcl11-esl100-rsm0-rcm25-esm29-rsr0-rcr2-esr100.exr,ReadingArea_rsl0-rcl11-esl100-rsm0-rcm25-esm29-rsr0-rcr2-esr100.npz,,,,,0,84,84,506,,left,green,0.68,378.45364904403687,378.8620100021362,,2,,EB,5,lightness,readingArea,realistic,75,2023-03-13_16h22.45.063,tripletExp_regina_11082022,2022.2.4,119.73462746217528,
9,12,0,0,0.444444444444444,1.0,0,0.027777777777778,3.10526315789474,0,0.027777777777778,0.298245614035088,ReadingArea_rsl0-rcl44-esl100-rsm0-rcm2-esm310-rsr0-rcr2-esr29,exr/ReadingArea_rsl0-rcl44-esl100-rsm0-rcm2-esm310-rsr0-rcr2-esr29.exr,ReadingArea_rsl0-rcl44-esl100-rsm0-rcm2-esm310-rsr0-rcr2-esr29.npz,,,,,0,85,85,175,,right,red,0.67,380.57273602485657,380.9799780845642,,2,,EB,5,lightness,readingArea,realistic,75,2023-03-13_16h22.45.063,tripletExp_regina_11082022,2022.2.4,119.73462746217528,
9,4,14,0,0.444444444444444,1.0,0,0.694444444444444,0.298245614035088,0,0.25,3.10526315789474,ReadingArea_rsl0-rcl44-esl100-rsm0-rcm69-esm29-rsr0-rcr25-esr310,exr/ReadingArea_rsl0-rcl44-esl100-rsm0-rcm69-esm29-rsr0-rcr25-esr310.exr,ReadingArea_rsl0-rcl44-esl100-rsm0-rcm69-esm29-rsr0-rcr25-esr310.npz,,,,,0,86,86,104,,left,green,0.93,382.6674010753632,383.0436050891876,,2,,EB,5,lightness,readingArea,realistic,75,2023-03-13_16h22.45.063,tripletExp_regina_11082022,2022.2.4,119.73462746217528,
4,12,5,0,0.694444444444444,0.298245614035088,0,0.027777777777778,3.10526315789474,0,1.0,0.298245614035088,ReadingArea_rsl0-rcl69-esl29-rsm0-rcm2-esm310-rsr0-rcr100-esr29,exr/ReadingArea_rsl0-rcl69-esl29-rsm0-rcm2-esm310-rsr0-rcr100-esr29.exr,ReadingArea_rsl0-rcl69-esl29-rsm0-rcm2-esm310-rsr0-rcr100-esr29.npz,,,,,0,87,87,296,,left,green,0.56,384.7311170101166,385.1451699733734,,2,,EB,5,lightness,readingArea,realistic,75,2023-03-13_16h22.45.063,tripletExp_regina_11082022,2022.2.4,119.73462746217528,
12,7,1,0,0.027777777777778,3.10526315789474,0,0.111111111111111,1.0,0,0.111111111111111,0.298245614035088,ReadingArea_rsl0-rcl2-esl310-rsm0-rcm11-esm100-rsr0-rcr11-esr29,exr/ReadingArea_rsl0-rcl2-esl310-rsm0-rcm11-esm100-rsr0-rcr11-esr29.exr,ReadingArea_rsl0-rcl2-esl310-rsm0-rcm11-esm100-rsr0-rcr11-esr29.npz,,,,,0,88,88,264,,left,green,0.93,386.85679292678833,387.3232719898224,,2,,EB,5,lightness,readingArea,realistic,75,2023-03-13_16h22.45.063,tripletExp_regina_11082022,2022.2.4,119.73462746217528,
13,10,7,0,0.111111111111111,3.10526315789474,0,0.694444444444444,1.0,0,0.111111111111111,1.0,ReadingArea_rsl0-rcl11-esl310-rsm0-rcm69-esm100-rsr0-rcr11-esr100,exr/ReadingArea_rsl0-rcl11-esl310-rsm0-rcm69-esm100-rsr0-rcr11-esr100.exr,ReadingArea_rsl0-rcl11-esl310-rsm0-rcm69-esm100-rsr0-rcr11-esr100.npz,,,,,0,89,89,385,,left,green,0.72,389.01628398895264,389.4845690727234,,2,,EB,5,lightness,readingArea,realistic,75,2023-03-13_16h22.45.063,tripletExp_regina_11082022,2022.2.4,119.73462746217528,
2,7,11,0,0.25,0.298245614035088,0,0.111111111111111,1.0,0,1.0,1.0,ReadingArea_rsl0-rcl25-esl29-rsm0-rcm11-esm100-rsr0-rcr100-esr100,exr/ReadingArea_rsl0-rcl25-esl29-rsm0-rcm11-esm100-rsr0-rcr100-esr100.exr,ReadingArea_rsl0-rcl25-esl29-rsm0-rcm11-esm100-rsr0-rcr100-esr100.npz,,,,,0,90,90,194,,left,green,0.61,391.2037451267242,391.687607049942,,2,,EB,5,lightness,readingArea,realistic,75,2023-03-13_16h22.45.063,tripletExp_regina_11082022,2022.2.4,119.73462746217528,
13,0,9,0,0.111111111111111,3.10526315789474,0,0.027777777777778,0.298245614035088,0,0.444444444444444,1.0,ReadingArea_rsl0-rcl11-esl310-rsm0-rcm2-esm29-rsr0-rcr44-esr100,exr/ReadingArea_rsl0-rcl11-esl310-rsm0-rcm2-esm29-rsr0-rcr44-esr100.exr,ReadingArea_rsl0-rcl11-esl310-rsm0-rcm2-esm29-rsr0-rcr44-esr100.npz,,,,,0,91,91,373,,left,green,0.77,393.3999590873718,393.784255027771,,2,,EB,5,lightness,readingArea,realistic,75,2023-03-13_16h22.45.063,tripletExp_regina_11082022,2022.2.4,119.73462746217528,
4,7,10,0,0.694444444444444,0.298245614035088,0,0.111111111111111,1.0,0,0.694444444444444,1.0,ReadingArea_rsl0-rcl69-esl29-rsm0-rcm11-esm100-rsr0-rcr69-esr100,exr/ReadingArea_rsl0-rcl69-esl29-rsm0-rcm11-esm100-rsr0-rcr69-esr100.exr,ReadingArea_rsl0-rcl69-esl29-rsm0-rcm11-esm100-rsr0-rcr69-esr100.npz,,,,,0,92,92,8,,left,green,0.56,395.47556614875793,395.9136950969696,,2,,EB,5,lightness,readingArea,realistic,75,2023-03-13_16h22.45.063,tripletExp_regina_11082022,2022.2.4,119.73462746217528,
14,9,12,0,0.25,3.10526315789474,0,0.444444444444444,1.0,0,0.027777777777778,3.10526315789474,ReadingArea_rsl0-rcl25-esl310-rsm0-rcm44-esm100-rsr0-rcr2-esr310,exr/ReadingArea_rsl0-rcl25-esl310-rsm0-rcm44-esm100-rsr0-rcr2-esr310.exr,ReadingArea_rsl0-rcl25-esl310-rsm0-rcm44-esm100-rsr0-rcr2-esr310.npz,,,,,0,93,93,378,,left,green,0.56,397.6102240085602,398.01842498779297,,2,,EB,5,lightness,readingArea,realistic,75,2023-03-13_16h22.45.063,tripletExp_regina_11082022,2022.2.4,119.73462746217528,
2,11,14,0,0.25,0.298245614035088,0,1.0,1.0,0,0.25,3.10526315789474,ReadingArea_rsl0-rcl25-esl29-rsm0-rcm100-esm100-rsr0-rcr25-esr310,exr/ReadingArea_rsl0-rcl25-esl29-rsm0-rcm100-esm100-rsr0-rcr25-esr310.exr,ReadingArea_rsl0-rcl25-esl29-rsm0-rcm100-esm100-rsr0-rcr25-esr310.npz,,,,,0,94,94,534,,right,red,0.57,399.7377450466156,400.349377155304,,2,,EB,5,lightness,readingArea,realistic,75,2023-03-13_16h22.45.063,tripletExp_regina_11082022,2022.2.4,119.73462746217528,
3,0,4,0,0.444444444444444,0.298245614035088,0,0.027777777777778,0.298245614035088,0,0.694444444444444,0.298245614035088,ReadingArea_rsl0-rcl44-esl29-rsm0-rcm2-esm29-rsr0-rcr69-esr29,exr/ReadingArea_rsl0-rcl44-esl29-rsm0-rcm2-esm29-rsr0-rcr69-esr29.exr,ReadingArea_rsl0-rcl44-esl29-rsm0-rcm2-esm29-rsr0-rcr69-esr29.npz,,,,,0,95,95,111,,left,green,0.75,402.0315890312195,402.5316710472107,,2,,EB,5,lightness,readingArea,realistic,75,2023-03-13_16h22.45.063,tripletExp_regina_11082022,2022.2.4,119.73462746217528,
13,1,7,0,0.111111111111111,3.10526315789474,0,0.111111111111111,0.298245614035088,0,0.111111111111111,1.0,ReadingArea_rsl0-rcl11-esl310-rsm0-rcm11-esm29-rsr0-rcr11-esr100,exr/ReadingArea_rsl0-rcl11-esl310-rsm0-rcm11-esm29-rsr0-rcr11-esr100.exr,ReadingArea_rsl0-rcl11-esl310-rsm0-rcm11-esm29-rsr0-rcr11-esr100.npz,,,,,0,96,96,206,,right,red,0.72,404.239511013031,404.657662153244,,2,,EB,5,lightness,readingArea,realistic,75,2023-03-13_16h22.45.063,tripletExp_regina_11082022,2022.2.4,119.73462746217528,
8,11,1,0,0.25,1.0,0,1.0,1.0,0,0.111111111111111,0.298245614035088,ReadingArea_rsl0-rcl25-esl100-rsm0-rcm100-esm100-rsr0-rcr11-esr29,exr/ReadingArea_rsl0-rcl25-esl100-rsm0-rcm100-esm100-rsr0-rcr11-esr29.exr,ReadingArea_rsl0-rcl25-esl100-rsm0-rcm100-esm100-rsr0-rcr11-esr29.npz,,,,,0,97,97,132,,left,green,0.66,406.3754110336304,406.8594160079956,,2,,EB,5,lightness,readingArea,realistic,75,2023-03-13_16h22.45.063,tripletExp_regina_11082022,2022.2.4,119.73462746217528,
6,9,5,0,0.027777777777778,1.0,0,0.444444444444444,1.0,0,1.0,0.298245614035088,ReadingArea_rsl0-rcl2-esl100-rsm0-rcm44-esm100-rsr0-rcr100-esr29,exr/ReadingArea_rsl0-rcl2-esl100-rsm0-rcm44-esm100-rsr0-rcr100-esr29.exr,ReadingArea_rsl0-rcl2-esl100-rsm0-rcm44-esm100-rsr0-rcr100-esr29.npz,,,,,0,98,98,29,,right,red,0.65,408.5797441005707,,,2,,EB,5,lightness,readingArea,realistic,75,2023-03-13_16h22.45.063,tripletExp_regina_11082022,2022.2.4,119.73462746217528,
0,8,6,0,0.027777777777778,0.298245614035088,0,0.25,1.0,0,0.027777777777778,1.0,ReadingArea_rsl0-rcl2-esl29-rsm0-rcm25-esm100-rsr0-rcr2-esr100,exr/ReadingArea_rsl0-rcl2-esl29-rsm0-rcm25-esm100-rsr0-rcr2-esr100.exr,ReadingArea_rsl0-rcl2-esl29-rsm0-rcm25-esm100-rsr0-rcr2-esr100.npz,,,,,0,99,99,92,,right,red,1.02,410.7898049354553,411.23571705818176,,2,,EB,5,lightness,readingArea,realistic,75,2023-03-13_16h22.45.063,tripletExp_regina_11082022,2022.2.4,119.73462746217528,
7,3,0,0,0.111111111111111,1.0,0,0.444444444444444,0.298245614035088,0,0.027777777777778,0.298245614035088,ReadingArea_rsl0-rcl11-esl100-rsm0-rcm44-esm29-rsr0-rcr2-esr29,exr/ReadingArea_rsl0-rcl11-esl100-rsm0-rcm44-esm29-rsr0-rcr2-esr29.exr,ReadingArea_rsl0-rcl11-esl100-rsm0-rcm44-esm29-rsr0-rcr2-esr29.npz,,,,,0,100,100,318,,left,green,0.75,412.9392039775848,413.37371802330017,,2,,EB,5,lightness,readingArea,realistic,75,2023-03-13_16h22.45.063,tripletExp_regina_11082022,2022.2.4,119.73462746217528,
9,3,8,0,0.444444444444444,1.0,0,0.444444444444444,0.298245614035088,0,0.25,1.0,ReadingArea_rsl0-rcl44-esl100-rsm0-rcm44-esm29-rsr0-rcr25-esr100,exr/ReadingArea_rsl0-rcl44-esl100-rsm0-rcm44-esm29-rsr0-rcr25-esr100.exr,ReadingArea_rsl0-rcl44-esl100-rsm0-rcm44-esm29-rsr0-rcr25-esr100.npz,,,,,0,101,101,530,,right,red,0.96,415.0650939941406,415.501452922821,,2,,EB,5,lightness,readingArea,realistic,75,2023-03-13_16h22.45.063,tripletExp_regina_11082022,2022.2.4,119.73462746217528,
3,9,13,0,0.444444444444444,0.298245614035088,0,0.444444444444444,1.0,0,0.111111111111111,3.10526315789474,ReadingArea_rsl0-rcl44-esl29-rsm0-rcm44-esm100-rsr0-rcr11-esr310,exr/ReadingArea_rsl0-rcl44-esl29-rsm0-rcm44-esm100-rsr0-rcr11-esr310.exr,ReadingArea_rsl0-rcl44-esl29-rsm0-rcm44-esm100-rsr0-rcr11-esr310.npz,,,,,0,102,102,341,,right,red,0.92,417.2215759754181,417.6410450935364,,2,,EB,5,lightness,readingArea,realistic,75,2023-03-13_16h22.45.063,tripletExp_regina_11082022,2022.2.4,119.73462746217528,
8,9,6,0,0.25,1.0,0,0.444444444444444,1.0,0,0.027777777777778,1.0,ReadingArea_rsl0-rcl25-esl100-rsm0-rcm44-esm100-rsr0-rcr2-esr100,exr/ReadingArea_rsl0-rcl25-esl100-rsm0-rcm44-esm100-rsr0-rcr2-esr100.exr,ReadingArea_rsl0-rcl25-esl100-rsm0-rcm44-esm100-rsr0-rcr2-esr100.npz,,,,,0,103,103,3,,left,green,0.62,419.3615219593048,419.8218801021576,,2,,EB,5,lightness,readingArea,realistic,75,2023-03-13_16h22.45.063,tripletExp_regina_11082022,2022.2.4,119.73462746217528,
13,6,1,0,0.111111111111111,3.10526315789474,0,0.027777777777778,1.0,0,0.111111111111111,0.298245614035088,ReadingArea_rsl0-rcl11-esl310-rsm0-rcm2-esm100-rsr0-rcr11-esr29,exr/ReadingArea_rsl0-rcl11-esl310-rsm0-rcm2-esm100-rsr0-rcr11-esr29.exr,ReadingArea_rsl0-rcl11-esl310-rsm0-rcm2-esm100-rsr0-rcr11-esr29.npz,,,,,0,104,104,486,,right,red,0.69,421.5317299365997,422.1117241382599,,2,,EB,5,lightness,readingArea,realistic,75,2023-03-13_16h22.45.063,tripletExp_regina_11082022,2022.2.4,119.73462746217528,
6,11,14,0,0.027777777777778,1.0,0,1.0,1.0,0,0.25,3.10526315789474,ReadingArea_rsl0-rcl2-esl100-rsm0-rcm100-esm100-rsr0-rcr25-esr310,exr/ReadingArea_rsl0-rcl2-esl100-rsm0-rcm100-esm100-rsr0-rcr25-esr310.exr,ReadingArea_rsl0-rcl2-esl100-rsm0-rcm100-esm100-rsr0-rcr25-esr310.npz,,,,,0,105,105,262,,right,red,0.68,423.8083851337433,424.2523720264435,,2,,EB,5,lightness,readingArea,realistic,75,2023-03-13_16h22.45.063,tripletExp_regina_11082022,2022.2.4,119.73462746217528,
2,1,12,0,0.25,0.298245614035088,0,0.111111111111111,0.298245614035088,0,0.027777777777778,3.10526315789474,ReadingArea_rsl0-rcl25-esl29-rsm0-rcm11-esm29-rsr0-rcr2-esr310,exr/ReadingArea_rsl0-rcl25-esl29-rsm0-rcm11-esm29-rsr0-rcr2-esr310.exr,ReadingArea_rsl0-rcl25-esl29-rsm0-rcm11-esm29-rsr0-rcr2-esr310.npz,,,,,0,106,106,12,,right,red,0.73,425.9541079998016,426.40634512901306,,2,,EB,5,lightness,readingArea,realistic,75,2023-03-13_16h22.45.063,tripletExp_regina_11082022,2022.2.4,119.73462746217528,
6,0,14,0,0.027777777777778,1.0,0,0.027777777777778,0.298245614035088,0,0.25,3.10526315789474,ReadingArea_rsl0-rcl2-esl100-rsm0-rcm2-esm29-rsr0-rcr25-esr310,exr/ReadingArea_rsl0-rcl2-esl100-rsm0-rcm2-esm29-rsr0-rcr25-esr310.exr,ReadingArea_rsl0-rcl2-esl100-rsm0-rcm2-esm29-rsr0-rcr25-esr310.npz,,,,,0,107,107,169,,left,green,0.65,428.10027408599854,428.5245749950409,,2,,EB,5,lightness,readingArea,realistic,75,2023-03-13_16h22.45.063,tripletExp_regina_11082022,2022.2.4,119.73462746217528,
14,1,13,0,0.25,3.10526315789474,0,0.111111111111111,0.298245614035088,0,0.111111111111111,3.10526315789474,ReadingArea_rsl0-rcl25-esl310-rsm0-rcm11-esm29-rsr0-rcr11-esr310,exr/ReadingArea_rsl0-rcl25-esl310-rsm0-rcm11-esm29-rsr0-rcr11-esr310.exr,ReadingArea_rsl0-rcl25-esl310-rsm0-rcm11-esm29-rsr0-rcr11-esr310.npz,,,,,0,108,108,265,,right,red,0.66,430.2149889469147,430.67571115493774,,2,,EB,5,lightness,readingArea,realistic,75,2023-03-13_16h22.45.063,tripletExp_regina_11082022,2022.2.4,119.73462746217528,
13,3,7,0,0.111111111111111,3.10526315789474,0,0.444444444444444,0.298245614035088,0,0.111111111111111,1.0,ReadingArea_rsl0-rcl11-esl310-rsm0-rcm44-esm29-rsr0-rcr11-esr100,exr/ReadingArea_rsl0-rcl11-esl310-rsm0-rcm44-esm29-rsr0-rcr11-esr100.exr,ReadingArea_rsl0-rcl11-esl310-rsm0-rcm44-esm29-rsr0-rcr11-esr100.npz,,,,,0,109,109,497,,left,green,1.0,432.3821270465851,432.897362947464,,2,,EB,5,lightness,readingArea,realistic,75,2023-03-13_16h22.45.063,tripletExp_regina_11082022,2022.2.4,119.73462746217528,
8,2,0,0,0.25,1.0,0,0.25,0.298245614035088,0,0.027777777777778,0.298245614035088,ReadingArea_rsl0-rcl25-esl100-rsm0-rcm25-esm29-rsr0-rcr2-esr29,exr/ReadingArea_rsl0-rcl25-esl100-rsm0-rcm25-esm29-rsr0-rcr2-esr29.exr,ReadingArea_rsl0-rcl25-esl100-rsm0-rcm25-esm29-rsr0-rcr2-esr29.npz,,,,,0,110,110,574,,left,green,0.69,434.5882830619812,435.0690829753876,,2,,EB,5,lightness,readingArea,realistic,75,2023-03-13_16h22.45.063,tripletExp_regina_11082022,2022.2.4,119.73462746217528,
6,0,10,0,0.027777777777778,1.0,0,0.027777777777778,0.298245614035088,0,0.694444444444444,1.0,ReadingArea_rsl0-rcl2-esl100-rsm0-rcm2-esm29-rsr0-rcr69-esr100,exr/ReadingArea_rsl0-rcl2-esl100-rsm0-rcm2-esm29-rsr0-rcr69-esr100.exr,ReadingArea_rsl0-rcl2-esl100-rsm0-rcm2-esm29-rsr0-rcr69-esr100.npz,,,,,0,111,111,532,,left,green,0.67,436.7918210029602,,,2,,EB,5,lightness,readingArea,realistic,75,2023-03-13_16h22.45.063,tripletExp_regina_11082022,2022.2.4,119.73462746217528,
10,14,13,0,0.694444444444444,1.0,0,0.25,3.10526315789474,0,0.111111111111111,3.10526315789474,ReadingArea_rsl0-rcl69-esl100-rsm0-rcm25-esm310-rsr0-rcr11-esr310,exr/ReadingArea_rsl0-rcl69-esl100-rsm0-rcm25-esm310-rsr0-rcr11-esr310.exr,ReadingArea_rsl0-rcl69-esl100-rsm0-rcm25-esm310-rsr0-rcr11-esr310.npz,,,,,0,112,112,168,,left,green,0.62,438.894268989563,439.3489100933075,,2,,EB,5,lightness,readingArea,realistic,75,2023-03-13_16h22.45.063,tripletExp_regina_11082022,2022.2.4,119.73462746217528,
5,0,10,0,1.0,0.298245614035088,0,0.027777777777778,0.298245614035088,0,0.694444444444444,1.0,ReadingArea_rsl0-rcl100-esl29-rsm0-rcm2-esm29-rsr0-rcr69-esr100,exr/ReadingArea_rsl0-rcl100-esl29-rsm0-rcm2-esm29-rsr0-rcr69-esr100.exr,ReadingArea_rsl0-rcl100-esl29-rsm0-rcm2-esm29-rsr0-rcr69-esr100.npz,,,,,0,113,113,361,,left,green,0.89,441.04829001426697,441.4946479797363,,2,,EB,5,lightness,readingArea,realistic,75,2023-03-13_16h22.45.063,tripletExp_regina_11082022,2022.2.4,119.73462746217528,
13,0,14,0,0.111111111111111,3.10526315789474,0,0.027777777777778,0.298245614035088,0,0.25,3.10526315789474,ReadingArea_rsl0-rcl11-esl310-rsm0-rcm2-esm29-rsr0-rcr25-esr310,exr/ReadingArea_rsl0-rcl11-esl310-rsm0-rcm2-esm29-rsr0-rcr25-esr310.exr,ReadingArea_rsl0-rcl11-esl310-rsm0-rcm2-esm29-rsr0-rcr25-esr310.npz,,,,,0,114,114,278,,left,green,0.89,443.1963701248169,443.7260320186615,,2,,EB,5,lightness,readingArea,realistic,75,2023-03-13_16h22.45.063,tripletExp_regina_11082022,2022.2.4,119.73462746217528,
6,5,13,0,0.027777777777778,1.0,0,1.0,0.298245614035088,0,0.111111111111111,3.10526315789474,ReadingArea_rsl0-rcl2-esl100-rsm0-rcm100-esm29-rsr0-rcr11-esr310,exr/ReadingArea_rsl0-rcl2-esl100-rsm0-rcm100-esm29-rsr0-rcr11-esr310.exr,ReadingArea_rsl0-rcl2-esl100-rsm0-rcm100-esm29-rsr0-rcr11-esr310.npz,,,,,0,115,115,450,,right,red,0.8,445.4435460567474,,,2,,EB,5,lightness,readingArea,realistic,75,2023-03-13_16h22.45.063,tripletExp_regina_11082022,2022.2.4,119.73462746217528,
3,5,7,0,0.444444444444444,0.298245614035088,0,1.0,0.298245614035088,0,0.111111111111111,1.0,ReadingArea_rsl0-rcl44-esl29-rsm0-rcm100-esm29-rsr0-rcr11-esr100,exr/ReadingArea_rsl0-rcl44-esl29-rsm0-rcm100-esm29-rsr0-rcr11-esr100.exr,ReadingArea_rsl0-rcl44-esl29-rsm0-rcm100-esm29-rsr0-rcr11-esr100.npz,,,,,0,116,116,474,,left,green,0.56,447.5790250301361,448.0393440723419,,2,,EB,5,lightness,readingArea,realistic,75,2023-03-13_16h22.45.063,tripletExp_regina_11082022,2022.2.4,119.73462746217528,
6,11,8,0,0.027777777777778,1.0,0,1.0,1.0,0,0.25,1.0,ReadingArea_rsl0-rcl2-esl100-rsm0-rcm100-esm100-rsr0-rcr25-esr100,exr/ReadingArea_rsl0-rcl2-esl100-rsm0-rcm100-esm100-rsr0-rcr25-esr100.exr,ReadingArea_rsl0-rcl2-esl100-rsm0-rcm100-esm100-rsr0-rcr25-esr100.npz,,,,,0,117,117,176,,right,red,1.02,449.7265391349793,450.1727011203766,,2,,EB,5,lightness,readingArea,realistic,75,2023-03-13_16h22.45.063,tripletExp_regina_11082022,2022.2.4,119.73462746217528,
9,7,10,0,0.444444444444444,1.0,0,0.111111111111111,1.0,0,0.694444444444444,1.0,ReadingArea_rsl0-rcl44-esl100-rsm0-rcm11-esm100-rsr0-rcr69-esr100,exr/ReadingArea_rsl0-rcl44-esl100-rsm0-rcm11-esm100-rsr0-rcr69-esr100.exr,ReadingArea_rsl0-rcl44-esl100-rsm0-rcm11-esm100-rsr0-rcr69-esr100.npz,,,,,0,118,118,508,,left,green,2.15,453.62507605552673,454.0535659790039,,2,,EB,5,lightness,readingArea,realistic,75,2023-03-13_16h22.45.063,tripletExp_regina_11082022,2022.2.4,119.73462746217528,
14,0,9,0,0.25,3.10526315789474,0,0.027777777777778,0.298245614035088,0,0.444444444444444,1.0,ReadingArea_rsl0-rcl25-esl310-rsm0-rcm2-esm29-rsr0-rcr44-esr100,exr/ReadingArea_rsl0-rcl25-esl310-rsm0-rcm2-esm29-rsr0-rcr44-esr100.exr,ReadingArea_rsl0-rcl25-esl310-rsm0-rcm2-esm29-rsr0-rcr44-esr100.npz,,,,,0,119,119,90,,right,red,1.07,455.7491669654846,456.168249130249,,2,,EB,5,lightness,readingArea,realistic,75,2023-03-13_16h22.45.063,tripletExp_regina_11082022,2022.2.4,119.73462746217528,
12,6,3,0,0.027777777777778,3.10526315789474,0,0.027777777777778,1.0,0,0.444444444444444,0.298245614035088,ReadingArea_rsl0-rcl2-esl310-rsm0-rcm2-esm100-rsr0-rcr44-esr29,exr/ReadingArea_rsl0-rcl2-esl310-rsm0-rcm2-esm100-rsr0-rcr44-esr29.exr,ReadingArea_rsl0-rcl2-esl310-rsm0-rcm2-esm100-rsr0-rcr44-esr29.npz,,,,,0,120,120,139,,left,green,0.69,457.8546919822693,458.2718999385834,,2,,EB,5,lightness,readingArea,realistic,75,2023-03-13_16h22.45.063,tripletExp_regina_11082022,2022.2.4,119.73462746217528,
14,0,3,0,0.25,3.10526315789474,0,0.027777777777778,0.298245614035088,0,0.444444444444444,0.298245614035088,ReadingArea_rsl0-rcl25-esl310-rsm0-rcm2-esm29-rsr0-rcr44-esr29,exr/ReadingArea_rsl0-rcl25-esl310-rsm0-rcm2-esm29-rsr0-rcr44-esr29.exr,ReadingArea_rsl0-rcl25-esl310-rsm0-rcm2-esm29-rsr0-rcr44-esr29.npz,,,,,0,121,121,75,,right,red,0.76,459.972207069397,460.4067370891571,,2,,EB,5,lightness,readingArea,realistic,75,2023-03-13_16h22.45.063,tripletExp_regina_11082022,2022.2.4,119.73462746217528,
8,10,7,0,0.25,1.0,0,0.694444444444444,1.0,0,0.111111111111111,1.0,ReadingArea_rsl0-rcl25-esl100-rsm0-rcm69-esm100-rsr0-rcr11-esr100,exr/ReadingArea_rsl0-rcl25-esl100-rsm0-rcm69-esm100-rsr0-rcr11-esr100.exr,ReadingArea_rsl0-rcl25-esl100-rsm0-rcm69-esm100-rsr0-rcr11-esr100.npz,,,,,0,122,122,424,,left,green,0.9,462.1245250701904,462.5338439941406,,2,,EB,5,lightness,readingArea,realistic,75,2023-03-13_16h22.45.063,tripletExp_regina_11082022,2022.2.4,119.73462746217528,
8,1,6,0,0.25,1.0,0,0.111111111111111,0.298245614035088,0,0.027777777777778,1.0,ReadingArea_rsl0-rcl25-esl100-rsm0-rcm11-esm29-rsr0-rcr2-esr100,exr/ReadingArea_rsl0-rcl25-esl100-rsm0-rcm11-esm29-rsr0-rcr2-esr100.exr,ReadingArea_rsl0-rcl25-esl100-rsm0-rcm11-esm29-rsr0-rcr2-esr100.npz,,,,,0,123,123,62,,right,red,0.85,464.25256514549255,464.6821279525757,,2,,EB,5,lightness,readingArea,realistic,75,2023-03-13_16h22.45.063,tripletExp_regina_11082022,2022.2.4,119.73462746217528,
10,1,0,0,0.694444444444444,1.0,0,0.111111111111111,0.298245614035088,0,0.027777777777778,0.298245614035088,ReadingArea_rsl0-rcl69-esl100-rsm0-rcm11-esm29-rsr0-rcr2-esr29,exr/ReadingArea_rsl0-rcl69-esl100-rsm0-rcm11-esm29-rsr0-rcr2-esr29.exr,ReadingArea_rsl0-rcl69-esl100-rsm0-rcm11-esm29-rsr0-rcr2-esr29.npz,,,,,0,124,124,276,,right,red,0.7,466.405179977417,,,2,,EB,5,lightness,readingArea,realistic,75,2023-03-13_16h22.45.063,tripletExp_regina_11082022,2022.2.4,119.73462746217528,
14,3,4,0,0.25,3.10526315789474,0,0.444444444444444,0.298245614035088,0,0.694444444444444,0.298245614035088,ReadingArea_rsl0-rcl25-esl310-rsm0-rcm44-esm29-rsr0-rcr69-esr29,exr/ReadingArea_rsl0-rcl25-esl310-rsm0-rcm44-esm29-rsr0-rcr69-esr29.exr,ReadingArea_rsl0-rcl25-esl310-rsm0-rcm44-esm29-rsr0-rcr69-esr29.npz,,,,,0,125,125,127,,right,red,0.95,468.5640959739685,,,2,,EB,5,lightness,readingArea,realistic,75,2023-03-13_16h22.45.063,tripletExp_regina_11082022,2022.2.4,119.73462746217528,
10,13,6,0,0.694444444444444,1.0,0,0.111111111111111,3.10526315789474,0,0.027777777777778,1.0,ReadingArea_rsl0-rcl69-esl100-rsm0-rcm11-esm310-rsr0-rcr2-esr100,exr/ReadingArea_rsl0-rcl69-esl100-rsm0-rcm11-esm310-rsr0-rcr2-esr100.exr,ReadingArea_rsl0-rcl69-esl100-rsm0-rcm11-esm310-rsr0-rcr2-esr100.npz,,,,,0,126,126,351,,left,green,0.57,470.691174030304,471.1167459487915,,2,,EB,5,lightness,readingArea,realistic,75,2023-03-13_16h22.45.063,tripletExp_regina_11082022,2022.2.4,119.73462746217528,
12,6,7,0,0.027777777777778,3.10526315789474,0,0.027777777777778,1.0,0,0.111111111111111,1.0,ReadingArea_rsl0-rcl2-esl310-rsm0-rcm2-esm100-rsr0-rcr11-esr100,exr/ReadingArea_rsl0-rcl2-esl310-rsm0-rcm2-esm100-rsr0-rcr11-esr100.exr,ReadingArea_rsl0-rcl2-esl310-rsm0-rcm2-esm100-rsr0-rcr11-esr100.npz,,,,,0,127,127,308,,left,green,0.67,472.8237240314484,473.3232231140137,,2,,EB,5,lightness,readingArea,realistic,75,2023-03-13_16h22.45.063,tripletExp_regina_11082022,2022.2.4,119.73462746217528,
0,5,12,0,0.027777777777778,0.298245614035088,0,1.0,0.298245614035088,0,0.027777777777778,3.10526315789474,ReadingArea_rsl0-rcl2-esl29-rsm0-rcm100-esm29-rsr0-rcr2-esr310,exr/ReadingArea_rsl0-rcl2-esl29-rsm0-rcm100-esm29-rsr0-rcr2-esr310.exr,ReadingArea_rsl0-rcl2-esl29-rsm0-rcm100-esm29-rsr0-rcr2-esr310.npz,,,,,0,128,128,366,,right,red,0.92,475.0203170776367,475.4788620471954,,2,,EB,5,lightness,readingArea,realistic,75,2023-03-13_16h22.45.063,tripletExp_regina_11082022,2022.2.4,119.73462746217528,
0,4,7,0,0.027777777777778,0.298245614035088,0,0.694444444444444,0.298245614035088,0,0.111111111111111,1.0,ReadingArea_rsl0-rcl2-esl29-rsm0-rcm69-esm29-rsr0-rcr11-esr100,exr/ReadingArea_rsl0-rcl2-esl29-rsm0-rcm69-esm29-rsr0-rcr11-esr100.exr,ReadingArea_rsl0-rcl2-esl29-rsm0-rcm69-esm29-rsr0-rcr11-esr100.npz,,,,,0,129,129,200,,right,red,0.74,477.19339299201965,477.568421125412,,2,,EB,5,lightness,readingArea,realistic,75,2023-03-13_16h22.45.063,tripletExp_regina_11082022,2022.2.4,119.73462746217528,
4,12,6,0,0.694444444444444,0.298245614035088,0,0.027777777777778,3.10526315789474,0,0.027777777777778,1.0,ReadingArea_rsl0-rcl69-esl29-rsm0-rcm2-esm310-rsr0-rcr2-esr100,exr/ReadingArea_rsl0-rcl69-esl29-rsm0-rcm2-esm310-rsr0-rcr2-esr100.exr,ReadingArea_rsl0-rcl69-esl29-rsm0-rcm2-esm310-rsr0-rcr2-esr100.npz,,,,,0,130,130,99,,right,red,0.67,479.2737081050873,,,2,,EB,5,lightness,readingArea,realistic,75,2023-03-13_16h22.45.063,tripletExp_regina_11082022,2022.2.4,119.73462746217528,
7,13,6,0,0.111111111111111,1.0,0,0.111111111111111,3.10526315789474,0,0.027777777777778,1.0,ReadingArea_rsl0-rcl11-esl100-rsm0-rcm11-esm310-rsr0-rcr2-esr100,exr/ReadingArea_rsl0-rcl11-esl100-rsm0-rcm11-esm310-rsr0-rcr2-esr100.exr,ReadingArea_rsl0-rcl11-esl100-rsm0-rcm11-esm310-rsr0-rcr2-esr100.npz,,,,,0,131,131,73,,left,green,0.81,481.4493100643158,,,2,,EB,5,lightness,readingArea,realistic,75,2023-03-13_16h22.45.063,tripletExp_regina_11082022,2022.2.4,119.73462746217528,
1,6,11,0,0.111111111111111,0.298245614035088,0,0.027777777777778,1.0,0,1.0,1.0,ReadingArea_rsl0-rcl11-esl29-rsm0-rcm2-esm100-rsr0-rcr100-esr100,exr/ReadingArea_rsl0-rcl11-esl29-rsm0-rcm2-esm100-rsr0-rcr100-esr100.exr,ReadingArea_rsl0-rcl11-esl29-rsm0-rcm2-esm100-rsr0-rcr100-esr100.npz,,,,,0,132,132,39,,left,green,0.69,483.623064994812,484.0465800762177,,2,,EB,5,lightness,readingArea,realistic,75,2023-03-13_16h22.45.063,tripletExp_regina_11082022,2022.2.4,119.73462746217528,
14,6,12,0,0.25,3.10526315789474,0,0.027777777777778,1.0,0,0.027777777777778,3.10526315789474,ReadingArea_rsl0-rcl25-esl310-rsm0-rcm2-esm100-rsr0-rcr2-esr310,exr/ReadingArea_rsl0-rcl25-esl310-rsm0-rcm2-esm100-rsr0-rcr2-esr310.exr,ReadingArea_rsl0-rcl25-esl310-rsm0-rcm2-esm100-rsr0-rcr2-esr310.npz,,,,,0,133,133,242,,right,red,0.58,485.76628708839417,,,2,,EB,5,lightness,readingArea,realistic,75,2023-03-13_16h22.45.063,tripletExp_regina_11082022,2022.2.4,119.73462746217528,
12,7,2,0,0.027777777777778,3.10526315789474,0,0.111111111111111,1.0,0,0.25,0.298245614035088,ReadingArea_rsl0-rcl2-esl310-rsm0-rcm11-esm100-rsr0-rcr25-esr29,exr/ReadingArea_rsl0-rcl2-esl310-rsm0-rcm11-esm100-rsr0-rcr25-esr29.exr,ReadingArea_rsl0-rcl2-esl310-rsm0-rcm11-esm100-rsr0-rcr25-esr29.npz,,,,,0,134,134,248,,left,green,0.9,487.9115300178528,488.4647221565247,,2,,EB,5,lightness,readingArea,realistic,75,2023-03-13_16h22.45.063,tripletExp_regina_11082022,2022.2.4,119.73462746217528,
1,12,11,0,0.111111111111111,0.298245614035088,0,0.027777777777778,3.10526315789474,0,1.0,1.0,ReadingArea_rsl0-rcl11-esl29-rsm0-rcm2-esm310-rsr0-rcr100-esr100,exr/ReadingArea_rsl0-rcl11-esl29-rsm0-rcm2-esm310-rsr0-rcr100-esr100.exr,ReadingArea_rsl0-rcl11-esl29-rsm0-rcm2-esm310-rsr0-rcr100-esr100.npz,,,,,0,135,135,178,,left,green,1.02,490.1720790863037,490.6511571407318,,2,,EB,5,lightness,readingArea,realistic,75,2023-03-13_16h22.45.063,tripletExp_regina_11082022,2022.2.4,119.73462746217528,
13,10,11,0,0.111111111111111,3.10526315789474,0,0.694444444444444,1.0,0,1.0,1.0,ReadingArea_rsl0-rcl11-esl310-rsm0-rcm69-esm100-rsr0-rcr100-esr100,exr/ReadingArea_rsl0-rcl11-esl310-rsm0-rcm69-esm100-rsr0-rcr100-esr100.exr,ReadingArea_rsl0-rcl11-esl310-rsm0-rcm69-esm100-rsr0-rcr100-esr100.npz,,,,,0,136,136,320,,right,red,0.78,492.364541053772,492.8407919406891,,2,,EB,5,lightness,readingArea,realistic,75,2023-03-13_16h22.45.063,tripletExp_regina_11082022,2022.2.4,119.73462746217528,
8,3,12,0,0.25,1.0,0,0.444444444444444,0.298245614035088,0,0.027777777777778,3.10526315789474,ReadingArea_rsl0-rcl25-esl100-rsm0-rcm44-esm29-rsr0-rcr2-esr310,exr/ReadingArea_rsl0-rcl25-esl100-rsm0-rcm44-esm29-rsr0-rcr2-esr310.exr,ReadingArea_rsl0-rcl25-esl100-rsm0-rcm44-esm29-rsr0-rcr2-esr310.npz,,,,,0,137,137,22,,left,green,0.69,494.54618215560913,494.9743220806122,,2,,EB,5,lightness,readingArea,realistic,75,2023-03-13_16h22.45.063,tripletExp_regina_11082022,2022.2.4,119.73462746217528,
2,0,13,0,0.25,0.298245614035088,0,0.027777777777778,0.298245614035088,0,0.111111111111111,3.10526315789474,ReadingArea_rsl0-rcl25-esl29-rsm0-rcm2-esm29-rsr0-rcr11-esr310,exr/ReadingArea_rsl0-rcl25-esl29-rsm0-rcm2-esm29-rsr0-rcr11-esr310.exr,ReadingArea_rsl0-rcl25-esl29-rsm0-rcm2-esm29-rsr0-rcr11-esr310.npz,,,,,0,138,138,50,,left,green,0.83,496.69430208206177,497.1146910190582,,2,,EB,5,lightness,readingArea,realistic,75,2023-03-13_16h22.45.063,tripletExp_regina_11082022,2022.2.4,119.73462746217528,
3,6,5,0,0.444444444444444,0.298245614035088,0,0.027777777777778,1.0,0,1.0,0.298245614035088,ReadingArea_rsl0-rcl44-esl29-rsm0-rcm2-esm100-rsr0-rcr100-esr29,exr/ReadingArea_rsl0-rcl44-esl29-rsm0-rcm2-esm100-rsr0-rcr100-esr29.exr,ReadingArea_rsl0-rcl44-esl29-rsm0-rcm2-esm100-rsr0-rcr100-esr29.npz,,,,,0,139,139,274,,left,green,0.94,498.83820700645447,499.301213979721,,2,,EB,5,lightness,readingArea,realistic,75,2023-03-13_16h22.45.063,tripletExp_regina_11082022,2022.2.4,119.73462746217528,
1,10,0,0,0.111111111111111,0.298245614035088,0,0.694444444444444,1.0,0,0.027777777777778,0.298245614035088,ReadingArea_rsl0-rcl11-esl29-rsm0-rcm69-esm100-rsr0-rcr2-esr29,exr/ReadingArea_rsl0-rcl11-esl29-rsm0-rcm69-esm100-rsr0-rcr2-esr29.exr,ReadingArea_rsl0-rcl11-esl29-rsm0-rcm69-esm100-rsr0-rcr2-esr29.npz,,,,,0,140,140,196,,left,green,0.81,501.0099060535431,501.46795105934143,,2,,EB,5,lightness,readingArea,realistic,75,2023-03-13_16h22.45.063,tripletExp_regina_11082022,2022.2.4,119.73462746217528,
8,13,2,0,0.25,1.0,0,0.111111111111111,3.10526315789474,0,0.25,0.298245614035088,ReadingArea_rsl0-rcl25-esl100-rsm0-rcm11-esm310-rsr0-rcr25-esr29,exr/ReadingArea_rsl0-rcl25-esl100-rsm0-rcm11-esm310-rsr0-rcr25-esr29.exr,ReadingArea_rsl0-rcl25-esl100-rsm0-rcm11-esm310-rsr0-rcr25-esr29.npz,,,,,0,141,141,376,,left,green,1.04,503.17126393318176,503.5646390914917,,2,,EB,5,lightness,readingArea,realistic,75,2023-03-13_16h22.45.063,tripletExp_regina_11082022,2022.2.4,119.73462746217528,
4,5,9,0,0.694444444444444,0.298245614035088,0,1.0,0.298245614035088,0,0.444444444444444,1.0,ReadingArea_rsl0-rcl69-esl29-rsm0-rcm100-esm29-rsr0-rcr44-esr100,exr/ReadingArea_rsl0-rcl69-esl29-rsm0-rcm100-esm29-rsr0-rcr44-esr100.exr,ReadingArea_rsl0-rcl69-esl29-rsm0-rcm100-esm29-rsr0-rcr44-esr100.npz,,,,,0,142,142,211,,left,green,1.02,505.2734999656677,505.69844913482666,,2,,EB,5,lightness,readingArea,realistic,75,2023-03-13_16h22.45.063,tripletExp_regina_11082022,2022.2.4,119.73462746217528,
9,8,0,0,0.444444444444444,1.0,0,0.25,1.0,0,0.027777777777778,0.298245614035088,ReadingArea_rsl0-rcl44-esl100-rsm0-rcm25-esm100-rsr0-rcr2-esr29,exr/ReadingArea_rsl0-rcl44-esl100-rsm0-rcm25-esm100-rsr0-rcr2-esr29.exr,ReadingArea_rsl0-rcl44-esl100-rsm0-rcm25-esm100-rsr0-rcr2-esr29.npz,,,,,0,143,143,66,,left,green,0.75,507.389209985733,507.76770997047424,,2,,EB,5,lightness,readingArea,realistic,75,2023-03-13_16h22.45.063,tripletExp_regina_11082022,2022.2.4,119.73462746217528,
4,10,9,0,0.694444444444444,0.298245614035088,0,0.694444444444444,1.0,0,0.444444444444444,1.0,ReadingArea_rsl0-rcl69-esl29-rsm0-rcm69-esm100-rsr0-rcr44-esr100,exr/ReadingArea_rsl0-rcl69-esl29-rsm0-rcm69-esm100-rsr0-rcr44-esr100.exr,ReadingArea_rsl0-rcl69-esl29-rsm0-rcm69-esm100-rsr0-rcr44-esr100.npz,,,,,0,144,144,516,,right,red,0.62,509.45800495147705,509.833379983902,,2,,EB,5,lightness,readingArea,realistic,75,2023-03-13_16h22.45.063,tripletExp_regina_11082022,2022.2.4,119.73462746217528,
4,12,7,0,0.694444444444444,0.298245614035088,0,0.027777777777778,3.10526315789474,0,0.111111111111111,1.0,ReadingArea_rsl0-rcl69-esl29-rsm0-rcm2-esm310-rsr0-rcr11-esr100,exr/ReadingArea_rsl0-rcl69-esl29-rsm0-rcm2-esm310-rsr0-rcr11-esr100.exr,ReadingArea_rsl0-rcl69-esl29-rsm0-rcm2-esm310-rsr0-rcr11-esr100.npz,,,,,0,145,145,112,,right,red,0.56,511.5516021251679,511.9752509593964,,2,,EB,5,lightness,readingArea,realistic,75,2023-03-13_16h22.45.063,tripletExp_regina_11082022,2022.2.4,119.73462746217528,
2,12,6,0,0.25,0.298245614035088,0,0.027777777777778,3.10526315789474,0,0.027777777777778,1.0,ReadingArea_rsl0-rcl25-esl29-rsm0-rcm2-esm310-rsr0-rcr2-esr100,exr/ReadingArea_rsl0-rcl25-esl29-rsm0-rcm2-esm310-rsr0-rcr2-esr100.exr,ReadingArea_rsl0-rcl25-esl29-rsm0-rcm2-esm310-rsr0-rcr2-esr100.npz,,,,,0,146,146,400,,left,green,0.99,513.6736199855804,514.1383950710297,,2,,EB,5,lightness,readingArea,realistic,75,2023-03-13_16h22.45.063,tripletExp_regina_11082022,2022.2.4,119.73462746217528,
13,10,12,0,0.111111111111111,3.10526315789474,0,0.694444444444444,1.0,0,0.027777777777778,3.10526315789474,ReadingArea_rsl0-rcl11-esl310-rsm0-rcm69-esm100-rsr0-rcr2-esr310,exr/ReadingArea_rsl0-rcl11-esl310-rsm0-rcm69-esm100-rsr0-rcr2-esr310.exr,ReadingArea_rsl0-rcl11-esl310-rsm0-rcm69-esm100-rsr0-rcr2-esr310.npz,,,,,0,147,147,384,,left,green,0.84,515.845556974411,516.2873849868774,,2,,EB,5,lightness,readingArea,realistic,75,2023-03-13_16h22.45.063,tripletExp_regina_11082022,2022.2.4,119.73462746217528,
12,5,2,0,0.027777777777778,3.10526315789474,0,1.0,0.298245614035088,0,0.25,0.298245614035088,ReadingArea_rsl0-rcl2-esl310-rsm0-rcm100-esm29-rsr0-rcr25-esr29,exr/ReadingArea_rsl0-rcl2-esl310-rsm0-rcm100-esm29-rsr0-rcr25-esr29.exr,ReadingArea_rsl0-rcl2-esl310-rsm0-rcm100-esm29-rsr0-rcr25-esr29.npz,,,,,0,148,148,415,,right,red,0.96,517.987487077713,518.455404996872,,2,,EB,5,lightness,readingArea,realistic,75,2023-03-13_16h22.45.063,tripletExp_regina_11082022,2022.2.4,119.73462746217528,
0,14,10,0,0.027777777777778,0.298245614035088,0,0.25,3.10526315789474,0,0.694444444444444,1.0,ReadingArea_rsl0-rcl2-esl29-rsm0-rcm25-esm310-rsr0-rcr69-esr100,exr/ReadingArea_rsl0-rcl2-esl29-rsm0-rcm25-esm310-rsr0-rcr69-esr100.exr,ReadingArea_rsl0-rcl2-esl29-rsm0-rcm25-esm310-rsr0-rcr69-esr100.npz,,,,,0,149,149,128,,right,red,0.72,520.1717691421509,,,2,,EB,5,lightness,readingArea,realistic,75,2023-03-13_16h22.45.063,tripletExp_regina_11082022,2022.2.4,119.73462746217528,
7,1,9,0,0.111111111111111,1.0,0,0.111111111111111,0.298245614035088,0,0.444444444444444,1.0,ReadingArea_rsl0-rcl11-esl100-rsm0-rcm11-esm29-rsr0-rcr44-esr100,exr/ReadingArea_rsl0-rcl11-esl100-rsm0-rcm11-esm29-rsr0-rcr44-esr100.exr,ReadingArea_rsl0-rcl11-esl100-rsm0-rcm11-esm29-rsr0-rcr44-esr100.npz,,,,,0,150,150,89,,left,green,0.78,580.1540560722351,580.5846271514893,,3,,EB,5,lightness,readingArea,realistic,75,2023-03-13_16h22.45.063,tripletExp_regina_11082022,2022.2.4,119.73462746217528,
9,13,0,0,0.444444444444444,1.0,0,0.111111111111111,3.10526315789474,0,0.027777777777778,0.298245614035088,ReadingArea_rsl0-rcl44-esl100-rsm0-rcm11-esm310-rsr0-rcr2-esr29,exr/ReadingArea_rsl0-rcl44-esl100-rsm0-rcm11-esm310-rsr0-rcr2-esr29.exr,ReadingArea_rsl0-rcl44-esl100-rsm0-rcm11-esm310-rsr0-rcr2-esr29.npz,,,,,0,151,151,205,,left,green,0.54,582.2962830066681,582.8456070423126,,3,,EB,5,lightness,readingArea,realistic,75,2023-03-13_16h22.45.063,tripletExp_regina_11082022,2022.2.4,119.73462746217528,
13,10,3,0,0.111111111111111,3.10526315789474,0,0.694444444444444,1.0,0,0.444444444444444,0.298245614035088,ReadingArea_rsl0-rcl11-esl310-rsm0-rcm69-esm100-rsr0-rcr44-esr29,exr/ReadingArea_rsl0-rcl11-esl310-rsm0-rcm69-esm100-rsr0-rcr44-esr29.exr,ReadingArea_rsl0-rcl11-esl310-rsm0-rcm69-esm100-rsr0-rcr44-esr29.npz,,,,,0,152,152,224,,left,green,1.12,584.538006067276,585.0004940032959,,3,,EB,5,lightness,readingArea,realistic,75,2023-03-13_16h22.45.063,tripletExp_regina_11082022,2022.2.4,119.73462746217528,
0,9,6,0,0.027777777777778,0.298245614035088,0,0.444444444444444,1.0,0,0.027777777777778,1.0,ReadingArea_rsl0-rcl2-esl29-rsm0-rcm44-esm100-rsr0-rcr2-esr100,exr/ReadingArea_rsl0-rcl2-esl29-rsm0-rcm44-esm100-rsr0-rcr2-esr100.exr,ReadingArea_rsl0-rcl2-esl29-rsm0-rcm44-esm100-rsr0-rcr2-esr100.npz,,,,,0,153,153,365,,right,red,1.01,586.6959359645844,587.1532709598541,,3,,EB,5,lightness,readingArea,realistic,75,2023-03-13_16h22.45.063,tripletExp_regina_11082022,2022.2.4,119.73462746217528,
0,8,9,0,0.027777777777778,0.298245614035088,0,0.25,1.0,0,0.444444444444444,1.0,ReadingArea_rsl0-rcl2-esl29-rsm0-rcm25-esm100-rsr0-rcr44-esr100,exr/ReadingArea_rsl0-rcl2-esl29-rsm0-rcm25-esm100-rsr0-rcr44-esr100.exr,ReadingArea_rsl0-rcl2-esl29-rsm0-rcm25-esm100-rsr0-rcr44-esr100.npz,,,,,0,154,154,541,,right,red,0.55,588.8493790626526,,,3,,EB,5,lightness,readingArea,realistic,75,2023-03-13_16h22.45.063,tripletExp_regina_11082022,2022.2.4,119.73462746217528,
12,6,14,0,0.027777777777778,3.10526315789474,0,0.027777777777778,1.0,0,0.25,3.10526315789474,ReadingArea_rsl0-rcl2-esl310-rsm0-rcm2-esm100-rsr0-rcr25-esr310,exr/ReadingArea_rsl0-rcl2-esl310-rsm0-rcm2-esm100-rsr0-rcr25-esr310.exr,ReadingArea_rsl0-rcl2-esl310-rsm0-rcm2-esm100-rsr0-rcr25-esr310.npz,,,,,0,155,155,218,,left,green,0.54,591.0183501243591,591.4385459423065,,3,,EB,5,lightness,readingArea,realistic,75,2023-03-13_16h22.45.063,tripletExp_regina_11082022,2022.2.4,119.73462746217528,
12,1,2,0,0.027777777777778,3.10526315789474,0,0.111111111111111,0.298245614035088,0,0.25,0.298245614035088,ReadingArea_rsl0-rcl2-esl310-rsm0-rcm11-esm29-rsr0-rcr25-esr29,exr/ReadingArea_rsl0-rcl2-esl310-rsm0-rcm11-esm29-rsr0-rcr25-esr29.exr,ReadingArea_rsl0-rcl2-esl310-rsm0-rcm11-esm29-rsr0-rcr25-esr29.npz,,,,,0,156,156,231,,left,green,1.05,593.1388990879059,593.6073350906372,,3,,EB,5,lightness,readingArea,realistic,75,2023-03-13_16h22.45.063,tripletExp_regina_11082022,2022.2.4,119.73462746217528,
1,12,10,0,0.111111111111111,0.298245614035088,0,0.027777777777778,3.10526315789474,0,0.694444444444444,1.0,ReadingArea_rsl0-rcl11-esl29-rsm0-rcm2-esm310-rsr0-rcr69-esr100,exr/ReadingArea_rsl0-rcl11-esl29-rsm0-rcm2-esm310-rsr0-rcr69-esr100.exr,ReadingArea_rsl0-rcl11-esl29-rsm0-rcm2-esm310-rsr0-rcr69-esr100.npz,,,,,0,157,157,567,,left,green,0.81,595.326504945755,595.831680059433,,3,,EB,5,lightness,readingArea,realistic,75,2023-03-13_16h22.45.063,tripletExp_regina_11082022,2022.2.4,119.73462746217528,
7,13,5,0,0.111111111111111,1.0,0,0.111111111111111,3.10526315789474,0,1.0,0.298245614035088,ReadingArea_rsl0-rcl11-esl100-rsm0-rcm11-esm310-rsr0-rcr100-esr29,exr/ReadingArea_rsl0-rcl11-esl100-rsm0-rcm11-esm310-rsr0-rcr100-esr29.exr,ReadingArea_rsl0-rcl11-esl100-rsm0-rcm11-esm310-rsr0-rcr100-esr29.npz,,,,,0,158,158,332,,left,green,0.74,597.5418281555176,598.0638921260834,,3,,EB,5,lightness,readingArea,realistic,75,2023-03-13_16h22.45.063,tripletExp_regina_11082022,2022.2.4,119.73462746217528,
0,5,2,0,0.027777777777778,0.298245614035088,0,1.0,0.298245614035088,0,0.25,0.298245614035088,ReadingArea_rsl0-rcl2-esl29-rsm0-rcm100-esm29-rsr0-rcr25-esr29,exr/ReadingArea_rsl0-rcl2-esl29-rsm0-rcm100-esm29-rsr0-rcr25-esr29.exr,ReadingArea_rsl0-rcl2-esl29-rsm0-rcm100-esm29-rsr0-rcr25-esr29.npz,,,,,0,159,159,25,,right,red,0.79,599.7787389755249,600.2452931404114,,3,,EB,5,lightness,readingArea,realistic,75,2023-03-13_16h22.45.063,tripletExp_regina_11082022,2022.2.4,119.73462746217528,
1,14,0,0,0.111111111111111,0.298245614035088,0,0.25,3.10526315789474,0,0.027777777777778,0.298245614035088,ReadingArea_rsl0-rcl11-esl29-rsm0-rcm25-esm310-rsr0-rcr2-esr29,exr/ReadingArea_rsl0-rcl11-esl29-rsm0-rcm25-esm310-rsr0-rcr2-esr29.exr,ReadingArea_rsl0-rcl11-esl29-rsm0-rcm25-esm310-rsr0-rcr2-esr29.npz,,,,,0,160,160,394,,left,green,0.83,601.9677400588989,,,3,,EB,5,lightness,readingArea,realistic,75,2023-03-13_16h22.45.063,tripletExp_regina_11082022,2022.2.4,119.73462746217528,
10,3,1,0,0.694444444444444,1.0,0,0.444444444444444,0.298245614035088,0,0.111111111111111,0.298245614035088,ReadingArea_rsl0-rcl69-esl100-rsm0-rcm44-esm29-rsr0-rcr11-esr29,exr/ReadingArea_rsl0-rcl69-esl100-rsm0-rcm44-esm29-rsr0-rcr11-esr29.exr,ReadingArea_rsl0-rcl69-esl100-rsm0-rcm44-esm29-rsr0-rcr11-esr29.npz,,,,,0,161,161,420,,left,green,0.76,604.0731871128082,604.5484900474548,,3,,EB,5,lightness,readingArea,realistic,75,2023-03-13_16h22.45.063,tripletExp_regina_11082022,2022.2.4,119.73462746217528,
6,10,8,0,0.027777777777778,1.0,0,0.694444444444444,1.0,0,0.25,1.0,ReadingArea_rsl0-rcl2-esl100-rsm0-rcm69-esm100-rsr0-rcr25-esr100,exr/ReadingArea_rsl0-rcl2-esl100-rsm0-rcm69-esm100-rsr0-rcr25-esr100.exr,ReadingArea_rsl0-rcl2-esl100-rsm0-rcm69-esm100-rsr0-rcr25-esr100.npz,,,,,0,162,162,167,,right,red,0.64,606.2630500793457,606.721076965332,,3,,EB,5,lightness,readingArea,realistic,75,2023-03-13_16h22.45.063,tripletExp_regina_11082022,2022.2.4,119.73462746217528,
2,4,6,0,0.25,0.298245614035088,0,0.694444444444444,0.298245614035088,0,0.027777777777778,1.0,ReadingArea_rsl0-rcl25-esl29-rsm0-rcm69-esm29-rsr0-rcr2-esr100,exr/ReadingArea_rsl0-rcl25-esl29-rsm0-rcm69-esm29-rsr0-rcr2-esr100.exr,ReadingArea_rsl0-rcl25-esl29-rsm0-rcm69-esm29-rsr0-rcr2-esr100.npz,,,,,0,163,163,563,,left,green,0.73,608.4145250320435,608.8955230712891,,3,,EB,5,lightness,readingArea,realistic,75,2023-03-13_16h22.45.063,tripletExp_regina_11082022,2022.2.4,119.73462746217528,
6,1,9,0,0.027777777777778,1.0,0,0.111111111111111,0.298245614035088,0,0.444444444444444,1.0,ReadingArea_rsl0-rcl2-esl100-rsm0-rcm11-esm29-rsr0-rcr44-esr100,exr/ReadingArea_rsl0-rcl2-esl100-rsm0-rcm11-esm29-rsr0-rcr44-esr100.exr,ReadingArea_rsl0-rcl2-esl100-rsm0-rcm11-esm29-rsr0-rcr44-esr100.npz,,,,,0,164,164,74,,left,green,0.73,610.6127581596375,611.0356769561768,,3,,EB,5,lightness,readingArea,realistic,75,2023-03-13_16h22.45.063,tripletExp_regina_11082022,2022.2.4,119.73462746217528,
8,13,9,0,0.25,1.0,0,0.111111111111111,3.10526315789474,0,0.444444444444444,1.0,ReadingArea_rsl0-rcl25-esl100-rsm0-rcm11-esm310-rsr0-rcr44-esr100,exr/ReadingArea_rsl0-rcl25-esl100-rsm0-rcm11-esm310-rsr0-rcr44-esr100.exr,ReadingArea_rsl0-rcl25-esl100-rsm0-rcm11-esm310-rsr0-rcr44-esr100.npz,,,,,0,165,165,487,,left,green,0.81,612.721451997757,613.1965229511261,,3,,EB,5,lightness,readingArea,realistic,75,2023-03-13_16h22.45.063,tripletExp_regina_11082022,2022.2.4,119.73462746217528,
3,4,11,0,0.444444444444444,0.298245614035088,0,0.694444444444444,0.298245614035088,0,1.0,1.0,ReadingArea_rsl0-rcl44-esl29-rsm0-rcm69-esm29-rsr0-rcr100-esr100,exr/ReadingArea_rsl0-rcl44-esl29-rsm0-rcm69-esm29-rsr0-rcr100-esr100.exr,ReadingArea_rsl0-rcl44-esl29-rsm0-rcm69-esm29-rsr0-rcr100-esr100.npz,,,,,0,166,166,207,,,green,0.81,620.3593511581421,,,3,619.3847259044647,EB,5,lightness,readingArea,realistic,75,2023-03-13_16h22.45.063,tripletExp_regina_11082022,2022.2.4,119.73462746217528,
10,6,13,0,0.694444444444444,1.0,0,0.027777777777778,1.0,0,0.111111111111111,3.10526315789474,ReadingArea_rsl0-rcl69-esl100-rsm0-rcm2-esm100-rsr0-rcr11-esr310,exr/ReadingArea_rsl0-rcl69-esl100-rsm0-rcm2-esm100-rsr0-rcr11-esr310.exr,ReadingArea_rsl0-rcl69-esl100-rsm0-rcm2-esm100-rsr0-rcr11-esr310.npz,,,,,0,167,167,41,,,green,0.81,626.3800399303436,626.8022351264954,,3,626.383597946167,EB,5,lightness,readingArea,realistic,75,2023-03-13_16h22.45.063,tripletExp_regina_11082022,2022.2.4,119.73462746217528,
14,8,1,0,0.25,3.10526315789474,0,0.25,1.0,0,0.111111111111111,0.298245614035088,ReadingArea_rsl0-rcl25-esl310-rsm0-rcm25-esm100-rsr0-rcr11-esr29,exr/ReadingArea_rsl0-rcl25-esl310-rsm0-rcm25-esm100-rsr0-rcr11-esr29.exr,ReadingArea_rsl0-rcl25-esl310-rsm0-rcm25-esm100-rsr0-rcr11-esr29.npz,,,,,0,168,168,141,,,green,0.81,632.0439150333405,632.5081930160522,,3,631.6573348999024,EB,5,lightness,readingArea,realistic,75,2023-03-13_16h22.45.063,tripletExp_regina_11082022,2022.2.4,119.73462746217528,
7,4,2,0,0.111111111111111,1.0,0,0.694444444444444,0.298245614035088,0,0.25,0.298245614035088,ReadingArea_rsl0-rcl11-esl100-rsm0-rcm69-esm29-rsr0-rcr25-esr29,exr/ReadingArea_rsl0-rcl11-esl100-rsm0-rcm69-esm29-rsr0-rcr25-esr29.exr,ReadingArea_rsl0-rcl11-esl100-rsm0-rcm69-esm29-rsr0-rcr25-esr29.npz,,,,,0,169,169,146,,,green,0.81,637.7291030883789,638.2476949691772,,3,637.3158908843994,EB,5,lightness,readingArea,realistic,75,2023-03-13_16h22.45.063,tripletExp_regina_11082022,2022.2.4,119.73462746217528,
0,12,7,0,0.027777777777778,0.298245614035088,0,0.027777777777778,3.10526315789474,0,0.111111111111111,1.0,ReadingArea_rsl0-rcl2-esl29-rsm0-rcm2-esm310-rsr0-rcr11-esr100,exr/ReadingArea_rsl0-rcl2-esl29-rsm0-rcm2-esm310-rsr0-rcr11-esr100.exr,ReadingArea_rsl0-rcl2-esl29-rsm0-rcm2-esm310-rsr0-rcr11-esr100.npz,,,,,0,170,170,481,,right,red,2.84,641.6940519809723,642.2183260917664,,3,,EB,5,lightness,readingArea,realistic,75,2023-03-13_16h22.45.063,tripletExp_regina_11082022,2022.2.4,119.73462746217528,
0,1,8,0,0.027777777777778,0.298245614035088,0,0.111111111111111,0.298245614035088,0,0.25,1.0,ReadingArea_rsl0-rcl2-esl29-rsm0-rcm11-esm29-rsr0-rcr25-esr100,exr/ReadingArea_rsl0-rcl2-esl29-rsm0-rcm11-esm29-rsr0-rcr25-esr100.exr,ReadingArea_rsl0-rcl2-esl29-rsm0-rcm11-esm29-rsr0-rcr25-esr100.npz,,,,,0,171,171,107,,left,green,2.35,645.7000789642334,646.1801681518555,,3,,EB,5,lightness,readingArea,realistic,75,2023-03-13_16h22.45.063,tripletExp_regina_11082022,2022.2.4,119.73462746217528,
6,10,9,0,0.027777777777778,1.0,0,0.694444444444444,1.0,0,0.444444444444444,1.0,ReadingArea_rsl0-rcl2-esl100-rsm0-rcm69-esm100-rsr0-rcr44-esr100,exr/ReadingArea_rsl0-rcl2-esl100-rsm0-rcm69-esm100-rsr0-rcr44-esr100.exr,ReadingArea_rsl0-rcl2-esl100-rsm0-rcm69-esm100-rsr0-rcr44-esr100.npz,,,,,0,172,172,148,,right,red,0.89,647.8929779529572,,,3,,EB,5,lightness,readingArea,realistic,75,2023-03-13_16h22.45.063,tripletExp_regina_11082022,2022.2.4,119.73462746217528,
10,11,12,0,0.694444444444444,1.0,0,1.0,1.0,0,0.027777777777778,3.10526315789474,ReadingArea_rsl0-rcl69-esl100-rsm0-rcm100-esm100-rsr0-rcr2-esr310,exr/ReadingArea_rsl0-rcl69-esl100-rsm0-rcm100-esm100-rsr0-rcr2-esr310.exr,ReadingArea_rsl0-rcl69-esl100-rsm0-rcm100-esm100-rsr0-rcr2-esr310.npz,,,,,0,173,173,533,,left,green,0.69,650.044930934906,650.5371561050415,,3,,EB,5,lightness,readingArea,realistic,75,2023-03-13_16h22.45.063,tripletExp_regina_11082022,2022.2.4,119.73462746217528,
6,4,2,0,0.027777777777778,1.0,0,0.694444444444444,0.298245614035088,0,0.25,0.298245614035088,ReadingArea_rsl0-rcl2-esl100-rsm0-rcm69-esm29-rsr0-rcr25-esr29,exr/ReadingArea_rsl0-rcl2-esl100-rsm0-rcm69-esm29-rsr0-rcr25-esr29.exr,ReadingArea_rsl0-rcl2-esl100-rsm0-rcm69-esm29-rsr0-rcr25-esr29.npz,,,,,0,174,174,134,,right,red,0.86,652.2475900650024,652.7050380706787,,3,,EB,5,lightness,readingArea,realistic,75,2023-03-13_16h22.45.063,tripletExp_regina_11082022,2022.2.4,119.73462746217528,
5,7,14,0,1.0,0.298245614035088,0,0.111111111111111,1.0,0,0.25,3.10526315789474,ReadingArea_rsl0-rcl100-esl29-rsm0-rcm11-esm100-rsr0-rcr25-esr310,exr/ReadingArea_rsl0-rcl100-esl29-rsm0-rcm11-esm100-rsr0-rcr25-esr310.exr,ReadingArea_rsl0-rcl100-esl29-rsm0-rcm11-esm100-rsr0-rcr25-esr310.npz,,,,,0,175,175,210,,left,green,1.01,654.3964130878448,654.8239629268646,,3,,EB,5,lightness,readingArea,realistic,75,2023-03-13_16h22.45.063,tripletExp_regina_11082022,2022.2.4,119.73462746217528,
9,0,3,0,0.444444444444444,1.0,0,0.027777777777778,0.298245614035088,0,0.444444444444444,0.298245614035088,ReadingArea_rsl0-rcl44-esl100-rsm0-rcm2-esm29-rsr0-rcr44-esr29,exr/ReadingArea_rsl0-rcl44-esl100-rsm0-rcm2-esm29-rsr0-rcr44-esr29.exr,ReadingArea_rsl0-rcl44-esl100-rsm0-rcm2-esm29-rsr0-rcr44-esr29.npz,,,,,0,176,176,2,,right,red,0.76,656.5269069671631,656.9620540142059,,3,,EB,5,lightness,readingArea,realistic,75,2023-03-13_16h22.45.063,tripletExp_regina_11082022,2022.2.4,119.73462746217528,
8,4,2,0,0.25,1.0,0,0.694444444444444,0.298245614035088,0,0.25,0.298245614035088,ReadingArea_rsl0-rcl25-esl100-rsm0-rcm69-esm29-rsr0-rcr25-esr29,exr/ReadingArea_rsl0-rcl25-esl100-rsm0-rcm69-esm29-rsr0-rcr25-esr29.exr,ReadingArea_rsl0-rcl25-esl100-rsm0-rcm69-esm29-rsr0-rcr25-esr29.npz,,,,,0,177,177,184,,left,green,0.85,658.6510090827942,659.1252970695496,,3,,EB,5,lightness,readingArea,realistic,75,2023-03-13_16h22.45.063,tripletExp_regina_11082022,2022.2.4,119.73462746217528,
11,12,2,0,1.0,1.0,0,0.027777777777778,3.10526315789474,0,0.25,0.298245614035088,ReadingArea_rsl0-rcl100-esl100-rsm0-rcm2-esm310-rsr0-rcr25-esr29,exr/ReadingArea_rsl0-rcl100-esl100-rsm0-rcm2-esm310-rsr0-rcr25-esr29.exr,ReadingArea_rsl0-rcl100-esl100-rsm0-rcm2-esm310-rsr0-rcr25-esr29.npz,,,,,0,178,178,423,,right,red,0.81,660.8329501152039,661.3052000999451,,3,,EB,5,lightness,readingArea,realistic,75,2023-03-13_16h22.45.063,tripletExp_regina_11082022,2022.2.4,119.73462746217528,
0,9,10,0,0.027777777777778,0.298245614035088,0,0.444444444444444,1.0,0,0.694444444444444,1.0,ReadingArea_rsl0-rcl2-esl29-rsm0-rcm44-esm100-rsr0-rcr69-esr100,exr/ReadingArea_rsl0-rcl2-esl29-rsm0-rcm44-esm100-rsr0-rcr69-esr100.exr,ReadingArea_rsl0-rcl2-esl29-rsm0-rcm44-esm100-rsr0-rcr69-esr100.npz,,,,,0,179,179,434,,right,red,0.74,663.013041973114,663.4683940410614,,3,,EB,5,lightness,readingArea,realistic,75,2023-03-13_16h22.45.063,tripletExp_regina_11082022,2022.2.4,119.73462746217528,
2,6,10,0,0.25,0.298245614035088,0,0.027777777777778,1.0,0,0.694444444444444,1.0,ReadingArea_rsl0-rcl25-esl29-rsm0-rcm2-esm100-rsr0-rcr69-esr100,exr/ReadingArea_rsl0-rcl25-esl29-rsm0-rcm2-esm100-rsr0-rcr69-esr100.exr,ReadingArea_rsl0-rcl25-esl29-rsm0-rcm2-esm100-rsr0-rcr69-esr100.npz,,,,,0,180,180,42,,left,green,0.68,665.1721680164337,665.6204690933228,,3,,EB,5,lightness,readingArea,realistic,75,2023-03-13_16h22.45.063,tripletExp_regina_11082022,2022.2.4,119.73462746217528,
12,8,6,0,0.027777777777778,3.10526315789474,0,0.25,1.0,0,0.027777777777778,1.0,ReadingArea_rsl0-rcl2-esl310-rsm0-rcm25-esm100-rsr0-rcr2-esr100,exr/ReadingArea_rsl0-rcl2-esl310-rsm0-rcm25-esm100-rsr0-rcr2-esr100.exr,ReadingArea_rsl0-rcl2-esl310-rsm0-rcm25-esm100-rsr0-rcr2-esr100.npz,,,,,0,181,181,281,,left,green,1.24,667.3280050754547,667.8056960105896,,3,,EB,5,lightness,readingArea,realistic,75,2023-03-13_16h22.45.063,tripletExp_regina_11082022,2022.2.4,119.73462746217528,
13,11,8,0,0.111111111111111,3.10526315789474,0,1.0,1.0,0,0.25,1.0,ReadingArea_rsl0-rcl11-esl310-rsm0-rcm100-esm100-rsr0-rcr25-esr100,exr/ReadingArea_rsl0-rcl11-esl310-rsm0-rcm100-esm100-rsr0-rcr25-esr100.exr,ReadingArea_rsl0-rcl11-esl310-rsm0-rcm100-esm100-rsr0-rcr25-esr100.npz,,,,,0,182,182,410,,right,red,1.31,669.5241260528564,669.9429550170898,,3,,EB,5,lightness,readingArea,realistic,75,2023-03-13_16h22.45.063,tripletExp_regina_11082022,2022.2.4,119.73462746217528,
10,1,13,0,0.694444444444444,1.0,0,0.111111111111111,0.298245614035088,0,0.111111111111111,3.10526315789474,ReadingArea_rsl0-rcl69-esl100-rsm0-rcm11-esm29-rsr0-rcr11-esr310,exr/ReadingArea_rsl0-rcl69-esl100-rsm0-rcm11-esm29-rsr0-rcr11-esr310.exr,ReadingArea_rsl0-rcl69-esl100-rsm0-rcm11-esm29-rsr0-rcr11-esr310.npz,,,,,0,183,183,45,,right,red,0.85,671.6320941448212,672.0144381523132,,3,,EB,5,lightness,readingArea,realistic,75,2023-03-13_16h22.45.063,tripletExp_regina_11082022,2022.2.4,119.73462746217528,
10,3,0,0,0.694444444444444,1.0,0,0.444444444444444,0.298245614035088,0,0.027777777777778,0.298245614035088,ReadingArea_rsl0-rcl69-esl100-rsm0-rcm44-esm29-rsr0-rcr2-esr29,exr/ReadingArea_rsl0-rcl69-esl100-rsm0-rcm44-esm29-rsr0-rcr2-esr29.exr,ReadingArea_rsl0-rcl69-esl100-rsm0-rcm44-esm29-rsr0-rcr2-esr29.npz,,,,,0,184,184,203,,left,green,0.79,673.7172601222992,674.1543009281158,,3,,EB,5,lightness,readingArea,realistic,75,2023-03-13_16h22.45.063,tripletExp_regina_11082022,2022.2.4,119.73462746217528,
12,14,8,0,0.027777777777778,3.10526315789474,0,0.25,3.10526315789474,0,0.25,1.0,ReadingArea_rsl0-rcl2-esl310-rsm0-rcm25-esm310-rsr0-rcr25-esr100,exr/ReadingArea_rsl0-rcl2-esl310-rsm0-rcm25-esm310-rsr0-rcr25-esr100.exr,ReadingArea_rsl0-rcl2-esl310-rsm0-rcm25-esm310-rsr0-rcr25-esr100.npz,,,,,0,185,185,466,,right,red,0.71,675.8796391487122,676.3023800849915,,3,,EB,5,lightness,readingArea,realistic,75,2023-03-13_16h22.45.063,tripletExp_regina_11082022,2022.2.4,119.73462746217528,
2,14,1,0,0.25,0.298245614035088,0,0.25,3.10526315789474,0,0.111111111111111,0.298245614035088,ReadingArea_rsl0-rcl25-esl29-rsm0-rcm25-esm310-rsr0-rcr11-esr29,exr/ReadingArea_rsl0-rcl25-esl29-rsm0-rcm25-esm310-rsr0-rcr11-esr29.exr,ReadingArea_rsl0-rcl25-esl29-rsm0-rcm25-esm310-rsr0-rcr11-esr29.npz,,,,,0,186,186,579,,left,green,1.12,678.0065641403198,678.5158021450043,,3,,EB,5,lightness,readingArea,realistic,75,2023-03-13_16h22.45.063,tripletExp_regina_11082022,2022.2.4,119.73462746217528,
11,4,0,0,1.0,1.0,0,0.694444444444444,0.298245614035088,0,0.027777777777778,0.298245614035088,ReadingArea_rsl0-rcl100-esl100-rsm0-rcm69-esm29-rsr0-rcr2-esr29,exr/ReadingArea_rsl0-rcl100-esl100-rsm0-rcm69-esm29-rsr0-rcr2-esr29.exr,ReadingArea_rsl0-rcl100-esl100-rsm0-rcm69-esm29-rsr0-rcr2-esr29.npz,,,,,0,187,187,219,,left,green,1.15,680.203024148941,680.6613099575043,,3,,EB,5,lightness,readingArea,realistic,75,2023-03-13_16h22.45.063,tripletExp_regina_11082022,2022.2.4,119.73462746217528,
1,7,2,0,0.111111111111111,0.298245614035088,0,0.111111111111111,1.0,0,0.25,0.298245614035088,ReadingArea_rsl0-rcl11-esl29-rsm0-rcm11-esm100-rsr0-rcr25-esr29,exr/ReadingArea_rsl0-rcl11-esl29-rsm0-rcm11-esm100-rsr0-rcr25-esr29.exr,ReadingArea_rsl0-rcl11-esl29-rsm0-rcm11-esm100-rsr0-rcr25-esr29.npz,,,,,0,188,188,162,,right,red,0.82,682.3655860424042,682.8293581008911,,3,,EB,5,lightness,readingArea,realistic,75,2023-03-13_16h22.45.063,tripletExp_regina_11082022,2022.2.4,119.73462746217528,
8,12,3,0,0.25,1.0,0,0.027777777777778,3.10526315789474,0,0.444444444444444,0.298245614035088,ReadingArea_rsl0-rcl25-esl100-rsm0-rcm2-esm310-rsr0-rcr44-esr29,exr/ReadingArea_rsl0-rcl25-esl100-rsm0-rcm2-esm310-rsr0-rcr44-esr29.exr,ReadingArea_rsl0-rcl25-esl100-rsm0-rcm2-esm310-rsr0-rcr44-esr29.npz,,,,,0,189,189,6,,left,green,1.04,684.5438480377197,685.0093159675598,,3,,EB,5,lightness,readingArea,realistic,75,2023-03-13_16h22.45.063,tripletExp_regina_11082022,2022.2.4,119.73462746217528,
11,12,1,0,1.0,1.0,0,0.027777777777778,3.10526315789474,0,0.111111111111111,0.298245614035088,ReadingArea_rsl0-rcl100-esl100-rsm0-rcm2-esm310-rsr0-rcr11-esr29,exr/ReadingArea_rsl0-rcl100-esl100-rsm0-rcm2-esm310-rsr0-rcr11-esr29.exr,ReadingArea_rsl0-rcl100-esl100-rsm0-rcm2-esm310-rsr0-rcr11-esr29.npz,,,,,0,190,190,140,,right,red,0.73,686.7180531024933,687.2103741168976,,3,,EB,5,lightness,readingArea,realistic,75,2023-03-13_16h22.45.063,tripletExp_regina_11082022,2022.2.4,119.73462746217528,
6,11,1,0,0.027777777777778,1.0,0,1.0,1.0,0,0.111111111111111,0.298245614035088,ReadingArea_rsl0-rcl2-esl100-rsm0-rcm100-esm100-rsr0-rcr11-esr29,exr/ReadingArea_rsl0-rcl2-esl100-rsm0-rcm100-esm100-rsr0-rcr11-esr29.exr,ReadingArea_rsl0-rcl2-esl100-rsm0-rcm100-esm100-rsr0-rcr11-esr29.npz,,,,,0,191,191,436,,right,red,1.13,688.9119961261749,689.4082880020142,,3,,EB,5,lightness,readingArea,realistic,75,2023-03-13_16h22.45.063,tripletExp_regina_11082022,2022.2.4,119.73462746217528,
5,2,8,0,1.0,0.298245614035088,0,0.25,0.298245614035088,0,0.25,1.0,ReadingArea_rsl0-rcl100-esl29-rsm0-rcm25-esm29-rsr0-rcr25-esr100,exr/ReadingArea_rsl0-rcl100-esl29-rsm0-rcm25-esm29-rsr0-rcr25-esr100.exr,ReadingArea_rsl0-rcl100-esl29-rsm0-rcm25-esm29-rsr0-rcr25-esr100.npz,,,,,0,192,192,538,,right,red,0.75,691.1076769828796,691.544506072998,,3,,EB,5,lightness,readingArea,realistic,75,2023-03-13_16h22.45.063,tripletExp_regina_11082022,2022.2.4,119.73462746217528,
3,7,8,0,0.444444444444444,0.298245614035088,0,0.111111111111111,1.0,0,0.25,1.0,ReadingArea_rsl0-rcl44-esl29-rsm0-rcm11-esm100-rsr0-rcr25-esr100,exr/ReadingArea_rsl0-rcl44-esl29-rsm0-rcm11-esm100-rsr0-rcr25-esr100.exr,ReadingArea_rsl0-rcl44-esl29-rsm0-rcm11-esm100-rsr0-rcr25-esr100.npz,,,,,0,193,193,246,,left,green,0.68,693.2382860183716,693.6716160774231,,3,,EB,5,lightness,readingArea,realistic,75,2023-03-13_16h22.45.063,tripletExp_regina_11082022,2022.2.4,119.73462746217528,
9,14,7,0,0.444444444444444,1.0,0,0.25,3.10526315789474,0,0.111111111111111,1.0,ReadingArea_rsl0-rcl44-esl100-rsm0-rcm25-esm310-rsr0-rcr11-esr100,exr/ReadingArea_rsl0-rcl44-esl100-rsm0-rcm25-esm310-rsr0-rcr11-esr100.exr,ReadingArea_rsl0-rcl44-esl100-rsm0-rcm25-esm310-rsr0-rcr11-esr100.npz,,,,,0,194,194,44,,left,green,0.76,695.3812730312347,695.7641890048981,,3,,EB,5,lightness,readingArea,realistic,75,2023-03-13_16h22.45.063,tripletExp_regina_11082022,2022.2.4,119.73462746217528,
10,0,14,0,0.694444444444444,1.0,0,0.027777777777778,0.298245614035088,0,0.25,3.10526315789474,ReadingArea_rsl0-rcl69-esl100-rsm0-rcm2-esm29-rsr0-rcr25-esr310,exr/ReadingArea_rsl0-rcl69-esl100-rsm0-rcm2-esm29-rsr0-rcr25-esr310.exr,ReadingArea_rsl0-rcl69-esl100-rsm0-rcm2-esm29-rsr0-rcr25-esr310.npz,,,,,0,195,195,95,,left,green,1.21,697.4668409824371,697.9808950424194,,3,,EB,5,lightness,readingArea,realistic,75,2023-03-13_16h22.45.063,tripletExp_regina_11082022,2022.2.4,119.73462746217528,
8,9,1,0,0.25,1.0,0,0.444444444444444,1.0,0,0.111111111111111,0.298245614035088,ReadingArea_rsl0-rcl25-esl100-rsm0-rcm44-esm100-rsr0-rcr11-esr29,exr/ReadingArea_rsl0-rcl25-esl100-rsm0-rcm44-esm100-rsr0-rcr11-esr29.exr,ReadingArea_rsl0-rcl25-esl100-rsm0-rcm44-esm100-rsr0-rcr11-esr29.npz,,,,,0,196,196,266,,left,green,0.74,699.6810810565948,700.1132371425629,,3,,EB,5,lightness,readingArea,realistic,75,2023-03-13_16h22.45.063,tripletExp_regina_11082022,2022.2.4,119.73462746217528,
2,1,14,0,0.25,0.298245614035088,0,0.111111111111111,0.298245614035088,0,0.25,3.10526315789474,ReadingArea_rsl0-rcl25-esl29-rsm0-rcm11-esm29-rsr0-rcr25-esr310,exr/ReadingArea_rsl0-rcl25-esl29-rsm0-rcm11-esm29-rsr0-rcr25-esr310.exr,ReadingArea_rsl0-rcl25-esl29-rsm0-rcm11-esm29-rsr0-rcr25-esr310.npz,,,,,0,197,197,59,,left,green,0.61,701.8365910053253,702.3189120292664,,3,,EB,5,lightness,readingArea,realistic,75,2023-03-13_16h22.45.063,tripletExp_regina_11082022,2022.2.4,119.73462746217528,
14,5,10,0,0.25,3.10526315789474,0,1.0,0.298245614035088,0,0.694444444444444,1.0,ReadingArea_rsl0-rcl25-esl310-rsm0-rcm100-esm29-rsr0-rcr69-esr100,exr/ReadingArea_rsl0-rcl25-esl310-rsm0-rcm100-esm29-rsr0-rcr69-esr100.exr,ReadingArea_rsl0-rcl25-esl310-rsm0-rcm100-esm29-rsr0-rcr69-esr100.npz,,,,,0,198,198,170,,right,red,3.14,705.7791690826416,706.2065970897675,,3,,EB,5,lightness,readingArea,realistic,75,2023-03-13_16h22.45.063,tripletExp_regina_11082022,2022.2.4,119.73462746217528,
10,6,8,0,0.694444444444444,1.0,0,0.027777777777778,1.0,0,0.25,1.0,ReadingArea_rsl0-rcl69-esl100-rsm0-rcm2-esm100-rsr0-rcr25-esr100,exr/ReadingArea_rsl0-rcl69-esl100-rsm0-rcm2-esm100-rsr0-rcr25-esr100.exr,ReadingArea_rsl0-rcl69-esl100-rsm0-rcm2-esm100-rsr0-rcr25-esr100.npz,,,,,0,199,199,145,,right,red,1.02,707.8961420059204,708.3550391197205,,3,,EB,5,lightness,readingArea,realistic,75,2023-03-13_16h22.45.063,tripletExp_regina_11082022,2022.2.4,119.73462746217528,
3,6,13,0,0.444444444444444,0.298245614035088,0,0.027777777777778,1.0,0,0.111111111111111,3.10526315789474,ReadingArea_rsl0-rcl44-esl29-rsm0-rcm2-esm100-rsr0-rcr11-esr310,exr/ReadingArea_rsl0-rcl44-esl29-rsm0-rcm2-esm100-rsr0-rcr11-esr310.exr,ReadingArea_rsl0-rcl44-esl29-rsm0-rcm2-esm100-rsr0-rcr11-esr310.npz,,,,,0,200,200,449,,left,green,0.92,710.0606729984283,710.4839429855347,,3,,EB,5,lightness,readingArea,realistic,75,2023-03-13_16h22.45.063,tripletExp_regina_11082022,2022.2.4,119.73462746217528,
12,3,5,0,0.027777777777778,3.10526315789474,0,0.444444444444444,0.298245614035088,0,1.0,0.298245614035088,ReadingArea_rsl0-rcl2-esl310-rsm0-rcm44-esm29-rsr0-rcr100-esr29,exr/ReadingArea_rsl0-rcl2-esl310-rsm0-rcm44-esm29-rsr0-rcr100-esr29.exr,ReadingArea_rsl0-rcl2-esl310-rsm0-rcm44-esm29-rsr0-rcr100-esr29.npz,,,,,0,201,201,188,,right,red,1.16,712.2029359340668,,,3,,EB,5,lightness,readingArea,realistic,75,2023-03-13_16h22.45.063,tripletExp_regina_11082022,2022.2.4,119.73462746217528,
3,14,12,0,0.444444444444444,0.298245614035088,0,0.25,3.10526315789474,0,0.027777777777778,3.10526315789474,ReadingArea_rsl0-rcl44-esl29-rsm0-rcm25-esm310-rsr0-rcr2-esr310,exr/ReadingArea_rsl0-rcl44-esl29-rsm0-rcm25-esm310-rsr0-rcr2-esr310.exr,ReadingArea_rsl0-rcl44-esl29-rsm0-rcm25-esm310-rsr0-rcr2-esr310.npz,,,,,0,202,202,336,,left,green,0.72,714.3518800735474,714.8419020175934,,3,,EB,5,lightness,readingArea,realistic,75,2023-03-13_16h22.45.063,tripletExp_regina_11082022,2022.2.4,119.73462746217528,
