index_left,index_middle,index_right,reflectance_surround_left,reflectance_center_left,emission_spot_left,reflectance_surround_middle,reflectance_center_middle,emission_spot_middle,reflectance_surround_right,reflectance_center_right,emission_spot_right,ImageName,ImageExr,ImageNpy,trials_2.thisRepN,trials_2.thisTrialN,trials_2.thisN,trials_2.thisIndex,trials.thisRepN,trials.thisTrialN,trials.thisN,trials.thisIndex,sound_1.started,BB_Trial.resp,BB_Trial.color,BB_Trial.rt,text.started,text.stopped,block,participant,session,L/B,scene,condition,nTrialsPerBlock,date,expName,psychopyVersion,frameRate,Unnamed: 40
5,14,8,0,1.0,0.298245614035088,0,0.25,3.10526315789474,0,0.25,1.0,ReadingArea_rsl0-rcl100-esl29-rsm0-rcm25-esm310-rsr0-rcr25-esr100,exr/ReadingArea_rsl0-rcl100-esl29-rsm0-rcm25-esm310-rsr0-rcr25-esr100.exr,ReadingArea_rsl0-rcl100-esl29-rsm0-rcm25-esm310-rsr0-rcr25-esr100.npz,,,,,0,0,0,14,56.33150398731232,left,green,2.34,66.27833199501038,66.64722394943237,1,1,3,lightness,readingArea,realistic,75,2023-03-24_13h59.06.517,tripletExp_regina_11082022,2022.2.4,120.29506579324745,
5,4,12,0,1.0,0.298245614035088,0,0.694444444444444,0.298245614035088,0,0.027777777777778,3.10526315789474,ReadingArea_rsl0-rcl100-esl29-rsm0-rcm69-esm29-rsr0-rcr2-esr310,exr/ReadingArea_rsl0-rcl100-esl29-rsm0-rcm69-esm29-rsr0-rcr2-esr310.exr,ReadingArea_rsl0-rcl100-esl29-rsm0-rcm69-esm29-rsr0-rcr2-esr310.npz,,,,,0,1,1,82,,left,green,0.77,68.35960483551025,68.85446000099182,1,1,3,lightness,readingArea,realistic,75,2023-03-24_13h59.06.517,tripletExp_regina_11082022,2022.2.4,120.29506579324745,
3,13,10,0,0.444444444444444,0.298245614035088,0,0.111111111111111,3.10526315789474,0,0.694444444444444,1.0,ReadingArea_rsl0-rcl44-esl29-rsm0-rcm11-esm310-rsr0-rcr69-esr100,exr/ReadingArea_rsl0-rcl44-esl29-rsm0-rcm11-esm310-rsr0-rcr69-esr100.exr,ReadingArea_rsl0-rcl44-esl29-rsm0-rcm11-esm310-rsr0-rcr69-esr100.npz,,,,,0,2,2,416,,left,green,1.39,70.56259393692017,70.93825697898865,1,1,3,lightness,readingArea,realistic,75,2023-03-24_13h59.06.517,tripletExp_regina_11082022,2022.2.4,120.29506579324745,
6,3,13,0,0.027777777777778,1.0,0,0.444444444444444,0.298245614035088,0,0.111111111111111,3.10526315789474,ReadingArea_rsl0-rcl2-esl100-rsm0-rcm44-esm29-rsr0-rcr11-esr310,exr/ReadingArea_rsl0-rcl2-esl100-rsm0-rcm44-esm29-rsr0-rcr11-esr310.exr,ReadingArea_rsl0-rcl2-esl100-rsm0-rcm44-esm29-rsr0-rcr11-esr310.npz,,,,,0,3,3,228,,right,red,0.7,72.66201186180115,73.09349989891052,1,1,3,lightness,readingArea,realistic,75,2023-03-24_13h59.06.517,tripletExp_regina_11082022,2022.2.4,120.29506579324745,
2,1,8,0,0.25,0.298245614035088,0,0.111111111111111,0.298245614035088,0,0.25,1.0,ReadingArea_rsl0-rcl25-esl29-rsm0-rcm11-esm29-rsr0-rcr25-esr100,exr/ReadingArea_rsl0-rcl25-esl29-rsm0-rcm11-esm29-rsr0-rcr25-esr100.exr,ReadingArea_rsl0-rcl25-esl29-rsm0-rcm11-esm29-rsr0-rcr25-esr100.npz,,,,,0,4,4,125,,left,green,1.02,74.79439783096313,75.26120090484619,1,1,3,lightness,readingArea,realistic,75,2023-03-24_13h59.06.517,tripletExp_regina_11082022,2022.2.4,120.29506579324745,
8,7,12,0,0.25,1.0,0,0.111111111111111,1.0,0,0.027777777777778,3.10526315789474,ReadingArea_rsl0-rcl25-esl100-rsm0-rcm11-esm100-rsr0-rcr2-esr310,exr/ReadingArea_rsl0-rcl25-esl100-rsm0-rcm11-esm100-rsr0-rcr2-esr310.exr,ReadingArea_rsl0-rcl25-esl100-rsm0-rcm11-esm100-rsr0-rcr2-esr310.npz,,,,,0,5,5,471,,right,red,1.28,76.9844720363617,,1,1,3,lightness,readingArea,realistic,75,2023-03-24_13h59.06.517,tripletExp_regina_11082022,2022.2.4,120.29506579324745,
5,3,2,0,1.0,0.298245614035088,0,0.444444444444444,0.298245614035088,0,0.25,0.298245614035088,ReadingArea_rsl0-rcl100-esl29-rsm0-rcm44-esm29-rsr0-rcr25-esr29,exr/ReadingArea_rsl0-rcl100-esl29-rsm0-rcm44-esm29-rsr0-rcr25-esr29.exr,ReadingArea_rsl0-rcl100-esl29-rsm0-rcm44-esm29-rsr0-rcr25-esr29.npz,,,,,0,6,6,143,,right,red,1.21,79.13471698760986,,1,1,3,lightness,readingArea,realistic,75,2023-03-24_13h59.06.517,tripletExp_regina_11082022,2022.2.4,120.29506579324745,
12,5,14,0,0.027777777777778,3.10526315789474,0,1.0,0.298245614035088,0,0.25,3.10526315789474,ReadingArea_rsl0-rcl2-esl310-rsm0-rcm100-esm29-rsr0-rcr25-esr310,exr/ReadingArea_rsl0-rcl2-esl310-rsm0-rcm100-esm29-rsr0-rcr25-esr310.exr,ReadingArea_rsl0-rcl2-esl310-rsm0-rcm100-esm29-rsr0-rcr25-esr310.npz,,,,,0,7,7,193,,right,red,1.24,81.35428285598755,81.72295904159546,1,1,3,lightness,readingArea,realistic,75,2023-03-24_13h59.06.517,tripletExp_regina_11082022,2022.2.4,120.29506579324745,
2,11,5,0,0.25,0.298245614035088,0,1.0,1.0,0,1.0,0.298245614035088,ReadingArea_rsl0-rcl25-esl29-rsm0-rcm100-esm100-rsr0-rcr100-esr29,exr/ReadingArea_rsl0-rcl25-esl29-rsm0-rcm100-esm100-rsr0-rcr100-esr29.exr,ReadingArea_rsl0-rcl25-esl29-rsm0-rcm100-esm100-rsr0-rcr100-esr29.npz,,,,,0,8,8,491,,right,red,0.92,83.43121099472046,83.80572485923767,1,1,3,lightness,readingArea,realistic,75,2023-03-24_13h59.06.517,tripletExp_regina_11082022,2022.2.4,120.29506579324745,
10,0,3,0,0.694444444444444,1.0,0,0.027777777777778,0.298245614035088,0,0.444444444444444,0.298245614035088,ReadingArea_rsl0-rcl69-esl100-rsm0-rcm2-esm29-rsr0-rcr44-esr29,exr/ReadingArea_rsl0-rcl69-esl100-rsm0-rcm2-esm29-rsr0-rcr44-esr29.exr,ReadingArea_rsl0-rcl69-esl100-rsm0-rcm2-esm29-rsr0-rcr44-esr29.npz,,,,,0,9,9,87,,right,red,0.85,85.50084495544434,85.86677503585815,1,1,3,lightness,readingArea,realistic,75,2023-03-24_13h59.06.517,tripletExp_regina_11082022,2022.2.4,120.29506579324745,
13,2,9,0,0.111111111111111,3.10526315789474,0,0.25,0.298245614035088,0,0.444444444444444,1.0,ReadingArea_rsl0-rcl11-esl310-rsm0-rcm25-esm29-rsr0-rcr44-esr100,exr/ReadingArea_rsl0-rcl11-esl310-rsm0-rcm25-esm29-rsr0-rcr44-esr100.exr,ReadingArea_rsl0-rcl11-esl310-rsm0-rcm25-esm29-rsr0-rcr44-esr100.npz,,,,,0,10,10,457,,left,green,0.95,87.58713984489441,87.98160886764526,1,1,3,lightness,readingArea,realistic,75,2023-03-24_13h59.06.517,tripletExp_regina_11082022,2022.2.4,120.29506579324745,
13,3,14,0,0.111111111111111,3.10526315789474,0,0.444444444444444,0.298245614035088,0,0.25,3.10526315789474,ReadingArea_rsl0-rcl11-esl310-rsm0-rcm44-esm29-rsr0-rcr25-esr310,exr/ReadingArea_rsl0-rcl11-esl310-rsm0-rcm44-esm29-rsr0-rcr25-esr310.exr,ReadingArea_rsl0-rcl11-esl310-rsm0-rcm44-esm29-rsr0-rcr25-esr310.npz,,,,,0,11,11,38,,left,green,0.69,89.692391872406,90.17892599105836,1,1,3,lightness,readingArea,realistic,75,2023-03-24_13h59.06.517,tripletExp_regina_11082022,2022.2.4,120.29506579324745,
2,4,10,0,0.25,0.298245614035088,0,0.694444444444444,0.298245614035088,0,0.694444444444444,1.0,ReadingArea_rsl0-rcl25-esl29-rsm0-rcm69-esm29-rsr0-rcr69-esr100,exr/ReadingArea_rsl0-rcl25-esl29-rsm0-rcm69-esm29-rsr0-rcr69-esr100.exr,ReadingArea_rsl0-rcl25-esl29-rsm0-rcm69-esm29-rsr0-rcr69-esr100.npz,,,,,0,12,12,174,,left,green,3.0,93.67687892913818,94.1007559299469,1,1,3,lightness,readingArea,realistic,75,2023-03-24_13h59.06.517,tripletExp_regina_11082022,2022.2.4,120.29506579324745,
4,5,1,0,0.694444444444444,0.298245614035088,0,1.0,0.298245614035088,0,0.111111111111111,0.298245614035088,ReadingArea_rsl0-rcl69-esl29-rsm0-rcm100-esm29-rsr0-rcr11-esr29,exr/ReadingArea_rsl0-rcl69-esl29-rsm0-rcm100-esm29-rsr0-rcr11-esr29.exr,ReadingArea_rsl0-rcl69-esl29-rsm0-rcm100-esm29-rsr0-rcr11-esr29.npz,,,,,0,13,13,240,,left,green,0.98,95.78643202781676,,1,1,3,lightness,readingArea,realistic,75,2023-03-24_13h59.06.517,tripletExp_regina_11082022,2022.2.4,120.29506579324745,
10,3,0,0,0.694444444444444,1.0,0,0.444444444444444,0.298245614035088,0,0.027777777777778,0.298245614035088,ReadingArea_rsl0-rcl69-esl100-rsm0-rcm44-esm29-rsr0-rcr2-esr29,exr/ReadingArea_rsl0-rcl69-esl100-rsm0-rcm44-esm29-rsr0-rcr2-esr29.exr,ReadingArea_rsl0-rcl69-esl100-rsm0-rcm44-esm29-rsr0-rcr2-esr29.npz,,,,,0,14,14,203,,right,red,2.99,99.6606240272522,100.03631281852722,1,1,3,lightness,readingArea,realistic,75,2023-03-24_13h59.06.517,tripletExp_regina_11082022,2022.2.4,120.29506579324745,
10,12,9,0,0.694444444444444,1.0,0,0.027777777777778,3.10526315789474,0,0.444444444444444,1.0,ReadingArea_rsl0-rcl69-esl100-rsm0-rcm2-esm310-rsr0-rcr44-esr100,exr/ReadingArea_rsl0-rcl69-esl100-rsm0-rcm2-esm310-rsr0-rcr44-esr100.exr,ReadingArea_rsl0-rcl69-esl100-rsm0-rcm2-esm310-rsr0-rcr44-esr100.npz,,,,,0,15,15,405,,right,red,1.1,101.74222493171692,102.10666394233704,1,1,3,lightness,readingArea,realistic,75,2023-03-24_13h59.06.517,tripletExp_regina_11082022,2022.2.4,120.29506579324745,
1,14,6,0,0.111111111111111,0.298245614035088,0,0.25,3.10526315789474,0,0.027777777777778,1.0,ReadingArea_rsl0-rcl11-esl29-rsm0-rcm25-esm310-rsr0-rcr2-esr100,exr/ReadingArea_rsl0-rcl11-esl29-rsm0-rcm25-esm310-rsr0-rcr2-esr100.exr,ReadingArea_rsl0-rcl11-esl29-rsm0-rcm25-esm310-rsr0-rcr2-esr100.npz,,,,,0,16,16,475,,left,green,1.14,103.80818104743958,104.161936044693,1,1,3,lightness,readingArea,realistic,75,2023-03-24_13h59.06.517,tripletExp_regina_11082022,2022.2.4,120.29506579324745,
1,12,10,0,0.111111111111111,0.298245614035088,0,0.027777777777778,3.10526315789474,0,0.694444444444444,1.0,ReadingArea_rsl0-rcl11-esl29-rsm0-rcm2-esm310-rsr0-rcr69-esr100,exr/ReadingArea_rsl0-rcl11-esl29-rsm0-rcm2-esm310-rsr0-rcr69-esr100.exr,ReadingArea_rsl0-rcl11-esl29-rsm0-rcm2-esm310-rsr0-rcr69-esr100.npz,,,,,0,17,17,567,,left,green,2.21,107.64221501350404,108.07122802734376,1,1,3,lightness,readingArea,realistic,75,2023-03-24_13h59.06.517,tripletExp_regina_11082022,2022.2.4,120.29506579324745,
4,3,9,0,0.694444444444444,0.298245614035088,0,0.444444444444444,0.298245614035088,0,0.444444444444444,1.0,ReadingArea_rsl0-rcl69-esl29-rsm0-rcm44-esm29-rsr0-rcr44-esr100,exr/ReadingArea_rsl0-rcl69-esl29-rsm0-rcm44-esm29-rsr0-rcr44-esr100.exr,ReadingArea_rsl0-rcl69-esl29-rsm0-rcm44-esm29-rsr0-rcr44-esr100.npz,,,,,0,18,18,451,,left,green,0.94,109.77936601638794,110.15312886238098,1,1,3,lightness,readingArea,realistic,75,2023-03-24_13h59.06.517,tripletExp_regina_11082022,2022.2.4,120.29506579324745,
5,3,10,0,1.0,0.298245614035088,0,0.444444444444444,0.298245614035088,0,0.694444444444444,1.0,ReadingArea_rsl0-rcl100-esl29-rsm0-rcm44-esm29-rsr0-rcr69-esr100,exr/ReadingArea_rsl0-rcl100-esl29-rsm0-rcm44-esm29-rsr0-rcr69-esr100.exr,ReadingArea_rsl0-rcl100-esl29-rsm0-rcm44-esm29-rsr0-rcr69-esr100.npz,,,,,0,19,19,546,,left,green,0.83,111.86346697807312,112.21436786651611,1,1,3,lightness,readingArea,realistic,75,2023-03-24_13h59.06.517,tripletExp_regina_11082022,2022.2.4,120.29506579324745,
4,8,7,0,0.694444444444444,0.298245614035088,0,0.25,1.0,0,0.111111111111111,1.0,ReadingArea_rsl0-rcl69-esl29-rsm0-rcm25-esm100-rsr0-rcr11-esr100,exr/ReadingArea_rsl0-rcl69-esl29-rsm0-rcm25-esm100-rsr0-rcr11-esr100.exr,ReadingArea_rsl0-rcl69-esl29-rsm0-rcm25-esm100-rsr0-rcr11-esr100.npz,,,,,0,20,20,461,,left,green,0.79,113.90806603431702,114.28117394447328,1,1,3,lightness,readingArea,realistic,75,2023-03-24_13h59.06.517,tripletExp_regina_11082022,2022.2.4,120.29506579324745,
0,9,10,0,0.027777777777778,0.298245614035088,0,0.444444444444444,1.0,0,0.694444444444444,1.0,ReadingArea_rsl0-rcl2-esl29-rsm0-rcm44-esm100-rsr0-rcr69-esr100,exr/ReadingArea_rsl0-rcl2-esl29-rsm0-rcm44-esm100-rsr0-rcr69-esr100.exr,ReadingArea_rsl0-rcl2-esl29-rsm0-rcm44-esm100-rsr0-rcr69-esr100.npz,,,,,0,21,21,434,,right,red,0.82,116.0035319328308,116.38711881637572,1,1,3,lightness,readingArea,realistic,75,2023-03-24_13h59.06.517,tripletExp_regina_11082022,2022.2.4,120.29506579324745,
4,2,5,0,0.694444444444444,0.298245614035088,0,0.25,0.298245614035088,0,1.0,0.298245614035088,ReadingArea_rsl0-rcl69-esl29-rsm0-rcm25-esm29-rsr0-rcr100-esr29,exr/ReadingArea_rsl0-rcl69-esl29-rsm0-rcm25-esm29-rsr0-rcr100-esr29.exr,ReadingArea_rsl0-rcl69-esl29-rsm0-rcm25-esm29-rsr0-rcr100-esr29.npz,,,,,0,22,22,101,,left,green,2.47,119.84805488586426,120.26304984092712,1,1,3,lightness,readingArea,realistic,75,2023-03-24_13h59.06.517,tripletExp_regina_11082022,2022.2.4,120.29506579324745,
14,5,13,0,0.25,3.10526315789474,0,1.0,0.298245614035088,0,0.111111111111111,3.10526315789474,ReadingArea_rsl0-rcl25-esl310-rsm0-rcm100-esm29-rsr0-rcr11-esr310,exr/ReadingArea_rsl0-rcl25-esl310-rsm0-rcm100-esm29-rsr0-rcr11-esr310.exr,ReadingArea_rsl0-rcl25-esl310-rsm0-rcm100-esm29-rsr0-rcr11-esr310.npz,,,,,0,23,23,524,,right,red,0.94,121.97775197029114,122.44567203521729,1,1,3,lightness,readingArea,realistic,75,2023-03-24_13h59.06.517,tripletExp_regina_11082022,2022.2.4,120.29506579324745,
5,13,6,0,1.0,0.298245614035088,0,0.111111111111111,3.10526315789474,0,0.027777777777778,1.0,ReadingArea_rsl0-rcl100-esl29-rsm0-rcm11-esm310-rsr0-rcr2-esr100,exr/ReadingArea_rsl0-rcl100-esl29-rsm0-rcm11-esm310-rsr0-rcr2-esr100.exr,ReadingArea_rsl0-rcl100-esl29-rsm0-rcm11-esm310-rsr0-rcr2-esr100.npz,,,,,0,24,24,263,,left,green,0.8,124.13256692886353,,1,1,3,lightness,readingArea,realistic,75,2023-03-24_13h59.06.517,tripletExp_regina_11082022,2022.2.4,120.29506579324745,
14,0,5,0,0.25,3.10526315789474,0,0.027777777777778,0.298245614035088,0,1.0,0.298245614035088,ReadingArea_rsl0-rcl25-esl310-rsm0-rcm2-esm29-rsr0-rcr100-esr29,exr/ReadingArea_rsl0-rcl25-esl310-rsm0-rcm2-esm29-rsr0-rcr100-esr29.exr,ReadingArea_rsl0-rcl25-esl310-rsm0-rcm2-esm29-rsr0-rcr100-esr29.npz,,,,,0,25,25,418,,right,red,0.97,126.23018097877502,126.58201885223389,1,1,3,lightness,readingArea,realistic,75,2023-03-24_13h59.06.517,tripletExp_regina_11082022,2022.2.4,120.29506579324745,
14,12,10,0,0.25,3.10526315789474,0,0.027777777777778,3.10526315789474,0,0.694444444444444,1.0,ReadingArea_rsl0-rcl25-esl310-rsm0-rcm2-esm310-rsr0-rcr69-esr100,exr/ReadingArea_rsl0-rcl25-esl310-rsm0-rcm2-esm310-rsr0-rcr69-esr100.exr,ReadingArea_rsl0-rcl25-esl310-rsm0-rcm2-esm310-rsr0-rcr69-esr100.npz,,,,,0,26,26,331,,right,red,3.88,131.85629987716675,132.22069096565247,1,1,3,lightness,readingArea,realistic,75,2023-03-24_13h59.06.517,tripletExp_regina_11082022,2022.2.4,120.29506579324745,
2,10,6,0,0.25,0.298245614035088,0,0.694444444444444,1.0,0,0.027777777777778,1.0,ReadingArea_rsl0-rcl25-esl29-rsm0-rcm69-esm100-rsr0-rcr2-esr100,exr/ReadingArea_rsl0-rcl25-esl29-rsm0-rcm69-esm100-rsr0-rcr2-esr100.exr,ReadingArea_rsl0-rcl25-esl29-rsm0-rcm69-esm100-rsr0-rcr2-esr100.npz,,,,,0,27,27,4,,left,green,0.94,133.92152285575867,134.29145693778992,1,1,3,lightness,readingArea,realistic,75,2023-03-24_13h59.06.517,tripletExp_regina_11082022,2022.2.4,120.29506579324745,
10,7,4,0,0.694444444444444,1.0,0,0.111111111111111,1.0,0,0.694444444444444,0.298245614035088,ReadingArea_rsl0-rcl69-esl100-rsm0-rcm11-esm100-rsr0-rcr69-esr29,exr/ReadingArea_rsl0-rcl69-esl100-rsm0-rcm11-esm100-rsr0-rcr69-esr29.exr,ReadingArea_rsl0-rcl69-esl100-rsm0-rcm11-esm100-rsr0-rcr69-esr29.npz,,,,,0,28,28,223,,right,red,0.77,136.00787687301636,136.40387988090515,1,1,3,lightness,readingArea,realistic,75,2023-03-24_13h59.06.517,tripletExp_regina_11082022,2022.2.4,120.29506579324745,
13,0,8,0,0.111111111111111,3.10526315789474,0,0.027777777777778,0.298245614035088,0,0.25,1.0,ReadingArea_rsl0-rcl11-esl310-rsm0-rcm2-esm29-rsr0-rcr25-esr100,exr/ReadingArea_rsl0-rcl11-esl310-rsm0-rcm2-esm29-rsr0-rcr25-esr100.exr,ReadingArea_rsl0-rcl11-esl310-rsm0-rcm2-esm29-rsr0-rcr25-esr100.npz,,,,,0,29,29,249,,left,green,0.99,138.11366391181946,138.48373889923096,1,1,3,lightness,readingArea,realistic,75,2023-03-24_13h59.06.517,tripletExp_regina_11082022,2022.2.4,120.29506579324745,
7,9,3,0,0.111111111111111,1.0,0,0.444444444444444,1.0,0,0.444444444444444,0.298245614035088,ReadingArea_rsl0-rcl11-esl100-rsm0-rcm44-esm100-rsr0-rcr44-esr29,exr/ReadingArea_rsl0-rcl11-esl100-rsm0-rcm44-esm100-rsr0-rcr44-esr29.exr,ReadingArea_rsl0-rcl11-esl100-rsm0-rcm44-esm100-rsr0-rcr44-esr29.npz,,,,,0,30,30,311,,right,red,1.07,140.19035291671753,140.56289100646973,1,1,3,lightness,readingArea,realistic,75,2023-03-24_13h59.06.517,tripletExp_regina_11082022,2022.2.4,120.29506579324745,
2,6,10,0,0.25,0.298245614035088,0,0.027777777777778,1.0,0,0.694444444444444,1.0,ReadingArea_rsl0-rcl25-esl29-rsm0-rcm2-esm100-rsr0-rcr69-esr100,exr/ReadingArea_rsl0-rcl25-esl29-rsm0-rcm2-esm100-rsr0-rcr69-esr100.exr,ReadingArea_rsl0-rcl25-esl29-rsm0-rcm2-esm100-rsr0-rcr69-esr100.npz,,,,,0,31,31,42,,left,green,0.94,142.2618339061737,142.6215329170227,1,1,3,lightness,readingArea,realistic,75,2023-03-24_13h59.06.517,tripletExp_regina_11082022,2022.2.4,120.29506579324745,
14,6,2,0,0.25,3.10526315789474,0,0.027777777777778,1.0,0,0.25,0.298245614035088,ReadingArea_rsl0-rcl25-esl310-rsm0-rcm2-esm100-rsr0-rcr25-esr29,exr/ReadingArea_rsl0-rcl25-esl310-rsm0-rcm2-esm100-rsr0-rcr25-esr29.exr,ReadingArea_rsl0-rcl25-esl310-rsm0-rcm2-esm100-rsr0-rcr25-esr29.npz,,,,,0,32,32,272,,right,red,0.83,144.34280681610107,144.70660305023193,1,1,3,lightness,readingArea,realistic,75,2023-03-24_13h59.06.517,tripletExp_regina_11082022,2022.2.4,120.29506579324745,
9,6,14,0,0.444444444444444,1.0,0,0.027777777777778,1.0,0,0.25,3.10526315789474,ReadingArea_rsl0-rcl44-esl100-rsm0-rcm2-esm100-rsr0-rcr25-esr310,exr/ReadingArea_rsl0-rcl44-esl100-rsm0-rcm2-esm100-rsr0-rcr25-esr310.exr,ReadingArea_rsl0-rcl44-esl100-rsm0-rcm2-esm100-rsr0-rcr25-esr310.npz,,,,,0,33,33,213,,left,green,1.04,146.42202997207642,146.81329989433289,1,1,3,lightness,readingArea,realistic,75,2023-03-24_13h59.06.517,tripletExp_regina_11082022,2022.2.4,120.29506579324745,
0,1,7,0,0.027777777777778,0.298245614035088,0,0.111111111111111,0.298245614035088,0,0.111111111111111,1.0,ReadingArea_rsl0-rcl2-esl29-rsm0-rcm11-esm29-rsr0-rcr11-esr100,exr/ReadingArea_rsl0-rcl2-esl29-rsm0-rcm11-esm29-rsr0-rcr11-esr100.exr,ReadingArea_rsl0-rcl2-esl29-rsm0-rcm11-esm29-rsr0-rcr11-esr100.npz,,,,,0,34,34,243,,left,green,2.89,150.2676248550415,150.63450503349304,1,1,3,lightness,readingArea,realistic,75,2023-03-24_13h59.06.517,tripletExp_regina_11082022,2022.2.4,120.29506579324745,
6,1,9,0,0.027777777777778,1.0,0,0.111111111111111,0.298245614035088,0,0.444444444444444,1.0,ReadingArea_rsl0-rcl2-esl100-rsm0-rcm11-esm29-rsr0-rcr44-esr100,exr/ReadingArea_rsl0-rcl2-esl100-rsm0-rcm11-esm29-rsr0-rcr44-esr100.exr,ReadingArea_rsl0-rcl2-esl100-rsm0-rcm11-esm29-rsr0-rcr44-esr100.npz,,,,,0,35,35,74,,left,green,0.85,152.35007882118225,152.73402881622314,1,1,3,lightness,readingArea,realistic,75,2023-03-24_13h59.06.517,tripletExp_regina_11082022,2022.2.4,120.29506579324745,
7,8,11,0,0.111111111111111,1.0,0,0.25,1.0,0,1.0,1.0,ReadingArea_rsl0-rcl11-esl100-rsm0-rcm25-esm100-rsr0-rcr100-esr100,exr/ReadingArea_rsl0-rcl11-esl100-rsm0-rcm25-esm100-rsr0-rcr100-esr100.exr,ReadingArea_rsl0-rcl11-esl100-rsm0-rcm25-esm100-rsr0-rcr100-esr100.npz,,,,,0,36,36,363,,left,green,2.34,156.19577503204346,,1,1,3,lightness,readingArea,realistic,75,2023-03-24_13h59.06.517,tripletExp_regina_11082022,2022.2.4,120.29506579324745,
12,9,11,0,0.027777777777778,3.10526315789474,0,0.444444444444444,1.0,0,1.0,1.0,ReadingArea_rsl0-rcl2-esl310-rsm0-rcm44-esm100-rsr0-rcr100-esr100,exr/ReadingArea_rsl0-rcl2-esl310-rsm0-rcm44-esm100-rsr0-rcr100-esr100.exr,ReadingArea_rsl0-rcl2-esl310-rsm0-rcm44-esm100-rsr0-rcr100-esr100.npz,,,,,0,37,37,18,,right,red,0.92,158.289715051651,158.69377088546753,1,1,3,lightness,readingArea,realistic,75,2023-03-24_13h59.06.517,tripletExp_regina_11082022,2022.2.4,120.29506579324745,
2,1,13,0,0.25,0.298245614035088,0,0.111111111111111,0.298245614035088,0,0.111111111111111,3.10526315789474,ReadingArea_rsl0-rcl25-esl29-rsm0-rcm11-esm29-rsr0-rcr11-esr310,exr/ReadingArea_rsl0-rcl25-esl29-rsm0-rcm11-esm29-rsr0-rcr11-esr310.exr,ReadingArea_rsl0-rcl25-esl29-rsm0-rcm11-esm29-rsr0-rcr11-esr310.npz,,,,,0,38,38,290,,left,green,0.9,160.38035082817078,160.7669758796692,1,1,3,lightness,readingArea,realistic,75,2023-03-24_13h59.06.517,tripletExp_regina_11082022,2022.2.4,120.29506579324745,
8,9,13,0,0.25,1.0,0,0.444444444444444,1.0,0,0.111111111111111,3.10526315789474,ReadingArea_rsl0-rcl25-esl100-rsm0-rcm44-esm100-rsr0-rcr11-esr310,exr/ReadingArea_rsl0-rcl25-esl100-rsm0-rcm44-esm100-rsr0-rcr11-esr310.exr,ReadingArea_rsl0-rcl25-esl100-rsm0-rcm44-esm100-rsr0-rcr11-esr310.npz,,,,,0,39,39,519,,left,green,1.07,162.45995903015137,162.8300759792328,1,1,3,lightness,readingArea,realistic,75,2023-03-24_13h59.06.517,tripletExp_regina_11082022,2022.2.4,120.29506579324745,
6,2,5,0,0.027777777777778,1.0,0,0.25,0.298245614035088,0,1.0,0.298245614035088,ReadingArea_rsl0-rcl2-esl100-rsm0-rcm25-esm29-rsr0-rcr100-esr29,exr/ReadingArea_rsl0-rcl2-esl100-rsm0-rcm25-esm29-rsr0-rcr100-esr29.exr,ReadingArea_rsl0-rcl2-esl100-rsm0-rcm25-esm29-rsr0-rcr100-esr29.npz,,,,,0,40,40,504,,left,green,1.01,164.53282284736633,164.90552282333374,1,1,3,lightness,readingArea,realistic,75,2023-03-24_13h59.06.517,tripletExp_regina_11082022,2022.2.4,120.29506579324745,
14,4,7,0,0.25,3.10526315789474,0,0.694444444444444,0.298245614035088,0,0.111111111111111,1.0,ReadingArea_rsl0-rcl25-esl310-rsm0-rcm69-esm29-rsr0-rcr11-esr100,exr/ReadingArea_rsl0-rcl25-esl310-rsm0-rcm69-esm29-rsr0-rcr11-esr100.exr,ReadingArea_rsl0-rcl25-esl310-rsm0-rcm69-esm29-rsr0-rcr11-esr100.npz,,,,,0,41,41,136,,right,red,1.08,166.5923948287964,166.98600482940674,1,1,3,lightness,readingArea,realistic,75,2023-03-24_13h59.06.517,tripletExp_regina_11082022,2022.2.4,120.29506579324745,
10,4,13,0,0.694444444444444,1.0,0,0.694444444444444,0.298245614035088,0,0.111111111111111,3.10526315789474,ReadingArea_rsl0-rcl69-esl100-rsm0-rcm69-esm29-rsr0-rcr11-esr310,exr/ReadingArea_rsl0-rcl69-esl100-rsm0-rcm69-esm29-rsr0-rcr11-esr310.exr,ReadingArea_rsl0-rcl69-esl100-rsm0-rcm69-esm29-rsr0-rcr11-esr310.npz,,,,,0,42,42,24,,right,red,1.01,168.6757378578186,169.06828594207764,1,1,3,lightness,readingArea,realistic,75,2023-03-24_13h59.06.517,tripletExp_regina_11082022,2022.2.4,120.29506579324745,
0,12,7,0,0.027777777777778,0.298245614035088,0,0.027777777777778,3.10526315789474,0,0.111111111111111,1.0,ReadingArea_rsl0-rcl2-esl29-rsm0-rcm2-esm310-rsr0-rcr11-esr100,exr/ReadingArea_rsl0-rcl2-esl29-rsm0-rcm2-esm310-rsr0-rcr11-esr100.exr,ReadingArea_rsl0-rcl2-esl29-rsm0-rcm2-esm310-rsr0-rcr11-esr100.npz,,,,,0,43,43,481,,right,red,0.76,170.7852098941803,171.1661410331726,1,1,3,lightness,readingArea,realistic,75,2023-03-24_13h59.06.517,tripletExp_regina_11082022,2022.2.4,120.29506579324745,
2,9,12,0,0.25,0.298245614035088,0,0.444444444444444,1.0,0,0.027777777777778,3.10526315789474,ReadingArea_rsl0-rcl25-esl29-rsm0-rcm44-esm100-rsr0-rcr2-esr310,exr/ReadingArea_rsl0-rcl25-esl29-rsm0-rcm44-esm100-rsr0-rcr2-esr310.exr,ReadingArea_rsl0-rcl25-esl29-rsm0-rcm44-esm100-rsr0-rcr2-esr310.npz,,,,,0,44,44,354,,left,green,2.78,174.6274299621582,175.00296688079834,1,1,3,lightness,readingArea,realistic,75,2023-03-24_13h59.06.517,tripletExp_regina_11082022,2022.2.4,120.29506579324745,
14,3,4,0,0.25,3.10526315789474,0,0.444444444444444,0.298245614035088,0,0.694444444444444,0.298245614035088,ReadingArea_rsl0-rcl25-esl310-rsm0-rcm44-esm29-rsr0-rcr69-esr29,exr/ReadingArea_rsl0-rcl25-esl310-rsm0-rcm44-esm29-rsr0-rcr69-esr29.exr,ReadingArea_rsl0-rcl25-esl310-rsm0-rcm44-esm29-rsr0-rcr69-esr29.npz,,,,,0,45,45,127,,right,red,0.82,176.71438789367676,177.09160900115967,1,1,3,lightness,readingArea,realistic,75,2023-03-24_13h59.06.517,tripletExp_regina_11082022,2022.2.4,120.29506579324745,
2,14,8,0,0.25,0.298245614035088,0,0.25,3.10526315789474,0,0.25,1.0,ReadingArea_rsl0-rcl25-esl29-rsm0-rcm25-esm310-rsr0-rcr25-esr100,exr/ReadingArea_rsl0-rcl25-esl29-rsm0-rcm25-esm310-rsr0-rcr25-esr100.exr,ReadingArea_rsl0-rcl25-esl29-rsm0-rcm25-esm310-rsr0-rcr25-esr100.npz,,,,,0,46,46,255,,right,red,0.92,178.80501890182495,179.1815128326416,1,1,3,lightness,readingArea,realistic,75,2023-03-24_13h59.06.517,tripletExp_regina_11082022,2022.2.4,120.29506579324745,
4,14,1,0,0.694444444444444,0.298245614035088,0,0.25,3.10526315789474,0,0.111111111111111,0.298245614035088,ReadingArea_rsl0-rcl69-esl29-rsm0-rcm25-esm310-rsr0-rcr11-esr29,exr/ReadingArea_rsl0-rcl69-esl29-rsm0-rcm25-esm310-rsr0-rcr11-esr29.exr,ReadingArea_rsl0-rcl69-esl29-rsm0-rcm25-esm310-rsr0-rcr11-esr29.npz,,,,,0,47,47,477,,left,green,0.67,180.9034488201141,181.2783088684082,1,1,3,lightness,readingArea,realistic,75,2023-03-24_13h59.06.517,tripletExp_regina_11082022,2022.2.4,120.29506579324745,
10,3,1,0,0.694444444444444,1.0,0,0.444444444444444,0.298245614035088,0,0.111111111111111,0.298245614035088,ReadingArea_rsl0-rcl69-esl100-rsm0-rcm44-esm29-rsr0-rcr11-esr29,exr/ReadingArea_rsl0-rcl69-esl100-rsm0-rcm44-esm29-rsr0-rcr11-esr29.exr,ReadingArea_rsl0-rcl69-esl100-rsm0-rcm44-esm29-rsr0-rcr11-esr29.npz,,,,,0,48,48,420,,right,red,2.08,184.7696778774261,185.12841391563416,1,1,3,lightness,readingArea,realistic,75,2023-03-24_13h59.06.517,tripletExp_regina_11082022,2022.2.4,120.29506579324745,
2,9,8,0,0.25,0.298245614035088,0,0.444444444444444,1.0,0,0.25,1.0,ReadingArea_rsl0-rcl25-esl29-rsm0-rcm44-esm100-rsr0-rcr25-esr100,exr/ReadingArea_rsl0-rcl25-esl29-rsm0-rcm44-esm100-rsr0-rcr25-esr100.exr,ReadingArea_rsl0-rcl25-esl29-rsm0-rcm44-esm100-rsr0-rcr25-esr100.npz,,,,,0,49,49,407,,right,red,0.65,186.82815599441528,187.1873688697815,1,1,3,lightness,readingArea,realistic,75,2023-03-24_13h59.06.517,tripletExp_regina_11082022,2022.2.4,120.29506579324745,
8,10,9,0,0.25,1.0,0,0.694444444444444,1.0,0,0.444444444444444,1.0,ReadingArea_rsl0-rcl25-esl100-rsm0-rcm69-esm100-rsr0-rcr44-esr100,exr/ReadingArea_rsl0-rcl25-esl100-rsm0-rcm69-esm100-rsr0-rcr44-esr100.exr,ReadingArea_rsl0-rcl25-esl100-rsm0-rcm69-esm100-rsr0-rcr44-esr100.npz,,,,,0,50,50,342,,right,red,0.92,188.9116148948669,189.29901790618896,1,1,3,lightness,readingArea,realistic,75,2023-03-24_13h59.06.517,tripletExp_regina_11082022,2022.2.4,120.29506579324745,
9,8,7,0,0.444444444444444,1.0,0,0.25,1.0,0,0.111111111111111,1.0,ReadingArea_rsl0-rcl44-esl100-rsm0-rcm25-esm100-rsr0-rcr11-esr100,exr/ReadingArea_rsl0-rcl44-esl100-rsm0-rcm25-esm100-rsr0-rcr11-esr100.exr,ReadingArea_rsl0-rcl44-esl100-rsm0-rcm25-esm100-rsr0-rcr11-esr100.npz,,,,,0,51,51,368,,left,green,2.93,192.79444694519043,193.15628385543823,1,1,3,lightness,readingArea,realistic,75,2023-03-24_13h59.06.517,tripletExp_regina_11082022,2022.2.4,120.29506579324745,
2,3,6,0,0.25,0.298245614035088,0,0.444444444444444,0.298245614035088,0,0.027777777777778,1.0,ReadingArea_rsl0-rcl25-esl29-rsm0-rcm44-esm29-rsr0-rcr2-esr100,exr/ReadingArea_rsl0-rcl25-esl29-rsm0-rcm44-esm29-rsr0-rcr2-esr100.exr,ReadingArea_rsl0-rcl25-esl29-rsm0-rcm44-esm29-rsr0-rcr2-esr100.npz,,,,,0,52,52,357,,left,green,0.83,194.8755419254303,195.25686287879944,1,1,3,lightness,readingArea,realistic,75,2023-03-24_13h59.06.517,tripletExp_regina_11082022,2022.2.4,120.29506579324745,
11,0,12,0,1.0,1.0,0,0.027777777777778,0.298245614035088,0,0.027777777777778,3.10526315789474,ReadingArea_rsl0-rcl100-esl100-rsm0-rcm2-esm29-rsr0-rcr2-esr310,exr/ReadingArea_rsl0-rcl100-esl100-rsm0-rcm2-esm29-rsr0-rcr2-esr310.exr,ReadingArea_rsl0-rcl100-esl100-rsm0-rcm2-esm29-rsr0-rcr2-esr310.npz,,,,,0,53,53,166,,right,red,0.87,196.97303104400635,197.35756301879883,1,1,3,lightness,readingArea,realistic,75,2023-03-24_13h59.06.517,tripletExp_regina_11082022,2022.2.4,120.29506579324745,
8,1,10,0,0.25,1.0,0,0.111111111111111,0.298245614035088,0,0.694444444444444,1.0,ReadingArea_rsl0-rcl25-esl100-rsm0-rcm11-esm29-rsr0-rcr69-esr100,exr/ReadingArea_rsl0-rcl25-esl100-rsm0-rcm11-esm29-rsr0-rcr69-esr100.exr,ReadingArea_rsl0-rcl25-esl100-rsm0-rcm11-esm29-rsr0-rcr69-esr100.npz,,,,,0,54,54,442,,left,green,1.05,199.04447484016416,,1,1,3,lightness,readingArea,realistic,75,2023-03-24_13h59.06.517,tripletExp_regina_11082022,2022.2.4,120.29506579324745,
13,3,7,0,0.111111111111111,3.10526315789474,0,0.444444444444444,0.298245614035088,0,0.111111111111111,1.0,ReadingArea_rsl0-rcl11-esl310-rsm0-rcm44-esm29-rsr0-rcr11-esr100,exr/ReadingArea_rsl0-rcl11-esl310-rsm0-rcm44-esm29-rsr0-rcr11-esr100.exr,ReadingArea_rsl0-rcl11-esl310-rsm0-rcm44-esm29-rsr0-rcr11-esr100.npz,,,,,0,55,55,497,,right,red,1.07,201.1445698738098,,1,1,3,lightness,readingArea,realistic,75,2023-03-24_13h59.06.517,tripletExp_regina_11082022,2022.2.4,120.29506579324745,
1,6,11,0,0.111111111111111,0.298245614035088,0,0.027777777777778,1.0,0,1.0,1.0,ReadingArea_rsl0-rcl11-esl29-rsm0-rcm2-esm100-rsr0-rcr100-esr100,exr/ReadingArea_rsl0-rcl11-esl29-rsm0-rcm2-esm100-rsr0-rcr100-esr100.exr,ReadingArea_rsl0-rcl11-esl29-rsm0-rcm2-esm100-rsr0-rcr100-esr100.npz,,,,,0,56,56,39,,left,green,0.67,203.2472338676453,203.6332278251648,1,1,3,lightness,readingArea,realistic,75,2023-03-24_13h59.06.517,tripletExp_regina_11082022,2022.2.4,120.29506579324745,
3,9,10,0,0.444444444444444,0.298245614035088,0,0.444444444444444,1.0,0,0.694444444444444,1.0,ReadingArea_rsl0-rcl44-esl29-rsm0-rcm44-esm100-rsr0-rcr69-esr100,exr/ReadingArea_rsl0-rcl44-esl29-rsm0-rcm44-esm100-rsr0-rcr69-esr100.exr,ReadingArea_rsl0-rcl44-esl29-rsm0-rcm44-esm100-rsr0-rcr69-esr100.npz,,,,,0,57,57,581,,right,red,0.75,205.32882499694824,,1,1,3,lightness,readingArea,realistic,75,2023-03-24_13h59.06.517,tripletExp_regina_11082022,2022.2.4,120.29506579324745,
1,5,7,0,0.111111111111111,0.298245614035088,0,1.0,0.298245614035088,0,0.111111111111111,1.0,ReadingArea_rsl0-rcl11-esl29-rsm0-rcm100-esm29-rsr0-rcr11-esr100,exr/ReadingArea_rsl0-rcl11-esl29-rsm0-rcm100-esm29-rsr0-rcr11-esr100.exr,ReadingArea_rsl0-rcl11-esl29-rsm0-rcm100-esm29-rsr0-rcr11-esr100.npz,,,,,0,58,58,197,,right,red,0.69,207.42413687706,207.78228998184204,1,1,3,lightness,readingArea,realistic,75,2023-03-24_13h59.06.517,tripletExp_regina_11082022,2022.2.4,120.29506579324745,
1,7,2,0,0.111111111111111,0.298245614035088,0,0.111111111111111,1.0,0,0.25,0.298245614035088,ReadingArea_rsl0-rcl11-esl29-rsm0-rcm11-esm100-rsr0-rcr25-esr29,exr/ReadingArea_rsl0-rcl11-esl29-rsm0-rcm11-esm100-rsr0-rcr25-esr29.exr,ReadingArea_rsl0-rcl11-esl29-rsm0-rcm11-esm100-rsr0-rcr25-esr29.npz,,,,,0,59,59,162,,right,red,1.16,209.47828197479248,209.8631539344788,1,1,3,lightness,readingArea,realistic,75,2023-03-24_13h59.06.517,tripletExp_regina_11082022,2022.2.4,120.29506579324745,
3,12,6,0,0.444444444444444,0.298245614035088,0,0.027777777777778,3.10526315789474,0,0.027777777777778,1.0,ReadingArea_rsl0-rcl44-esl29-rsm0-rcm2-esm310-rsr0-rcr2-esr100,exr/ReadingArea_rsl0-rcl44-esl29-rsm0-rcm2-esm310-rsr0-rcr2-esr100.exr,ReadingArea_rsl0-rcl44-esl29-rsm0-rcm2-esm310-rsr0-rcr2-esr100.npz,,,,,0,60,60,353,,left,green,1.29,211.57371401786804,211.9518439769745,1,1,3,lightness,readingArea,realistic,75,2023-03-24_13h59.06.517,tripletExp_regina_11082022,2022.2.4,120.29506579324745,
6,12,7,0,0.027777777777778,1.0,0,0.027777777777778,3.10526315789474,0,0.111111111111111,1.0,ReadingArea_rsl0-rcl2-esl100-rsm0-rcm2-esm310-rsr0-rcr11-esr100,exr/ReadingArea_rsl0-rcl2-esl100-rsm0-rcm2-esm310-rsr0-rcr11-esr100.exr,ReadingArea_rsl0-rcl2-esl100-rsm0-rcm2-esm310-rsr0-rcr11-esr100.npz,,,,,0,61,61,157,,right,red,0.96,213.6724219322205,214.0305938720703,1,1,3,lightness,readingArea,realistic,75,2023-03-24_13h59.06.517,tripletExp_regina_11082022,2022.2.4,120.29506579324745,
4,8,0,0,0.694444444444444,0.298245614035088,0,0.25,1.0,0,0.027777777777778,0.298245614035088,ReadingArea_rsl0-rcl69-esl29-rsm0-rcm25-esm100-rsr0-rcr2-esr29,exr/ReadingArea_rsl0-rcl69-esl29-rsm0-rcm25-esm100-rsr0-rcr2-esr29.exr,ReadingArea_rsl0-rcl69-esl29-rsm0-rcm25-esm100-rsr0-rcr2-esr29.npz,,,,,0,62,62,137,,left,green,0.91,215.7206509113312,216.10269784927368,1,1,3,lightness,readingArea,realistic,75,2023-03-24_13h59.06.517,tripletExp_regina_11082022,2022.2.4,120.29506579324745,
3,7,0,0,0.444444444444444,0.298245614035088,0,0.111111111111111,1.0,0,0.027777777777778,0.298245614035088,ReadingArea_rsl0-rcl44-esl29-rsm0-rcm11-esm100-rsr0-rcr2-esr29,exr/ReadingArea_rsl0-rcl44-esl29-rsm0-rcm11-esm100-rsr0-rcr2-esr29.exr,ReadingArea_rsl0-rcl44-esl29-rsm0-rcm11-esm100-rsr0-rcr2-esr29.npz,,,,,0,63,63,327,,left,green,0.88,217.7927680015564,218.15845203399653,1,1,3,lightness,readingArea,realistic,75,2023-03-24_13h59.06.517,tripletExp_regina_11082022,2022.2.4,120.29506579324745,
0,13,1,0,0.027777777777778,0.298245614035088,0,0.111111111111111,3.10526315789474,0,0.111111111111111,0.298245614035088,ReadingArea_rsl0-rcl2-esl29-rsm0-rcm11-esm310-rsr0-rcr11-esr29,exr/ReadingArea_rsl0-rcl2-esl29-rsm0-rcm11-esm310-rsr0-rcr11-esr29.exr,ReadingArea_rsl0-rcl2-esl29-rsm0-rcm11-esm310-rsr0-rcr11-esr29.npz,,,,,0,64,64,458,,right,red,0.86,219.8503348827362,220.2425639629364,1,1,3,lightness,readingArea,realistic,75,2023-03-24_13h59.06.517,tripletExp_regina_11082022,2022.2.4,120.29506579324745,
6,4,13,0,0.027777777777778,1.0,0,0.694444444444444,0.298245614035088,0,0.111111111111111,3.10526315789474,ReadingArea_rsl0-rcl2-esl100-rsm0-rcm69-esm29-rsr0-rcr11-esr310,exr/ReadingArea_rsl0-rcl2-esl100-rsm0-rcm69-esm29-rsr0-rcr11-esr310.exr,ReadingArea_rsl0-rcl2-esl100-rsm0-rcm69-esm29-rsr0-rcr11-esr310.npz,,,,,0,65,65,202,,right,red,0.75,221.93109488487244,,1,1,3,lightness,readingArea,realistic,75,2023-03-24_13h59.06.517,tripletExp_regina_11082022,2022.2.4,120.29506579324745,
12,13,7,0,0.027777777777778,3.10526315789474,0,0.111111111111111,3.10526315789474,0,0.111111111111111,1.0,ReadingArea_rsl0-rcl2-esl310-rsm0-rcm11-esm310-rsr0-rcr11-esr100,exr/ReadingArea_rsl0-rcl2-esl310-rsm0-rcm11-esm310-rsr0-rcr11-esr100.exr,ReadingArea_rsl0-rcl2-esl310-rsm0-rcm11-esm310-rsr0-rcr11-esr100.npz,,,,,0,66,66,408,,right,red,1.01,224.01503586769104,,1,1,3,lightness,readingArea,realistic,75,2023-03-24_13h59.06.517,tripletExp_regina_11082022,2022.2.4,120.29506579324745,
5,13,7,0,1.0,0.298245614035088,0,0.111111111111111,3.10526315789474,0,0.111111111111111,1.0,ReadingArea_rsl0-rcl100-esl29-rsm0-rcm11-esm310-rsr0-rcr11-esr100,exr/ReadingArea_rsl0-rcl100-esl29-rsm0-rcm11-esm310-rsr0-rcr11-esr100.exr,ReadingArea_rsl0-rcl100-esl29-rsm0-rcm11-esm310-rsr0-rcr11-esr100.npz,,,,,0,67,67,189,,left,green,0.65,226.1221480369568,226.49060487747192,1,1,3,lightness,readingArea,realistic,75,2023-03-24_13h59.06.517,tripletExp_regina_11082022,2022.2.4,120.29506579324745,
0,8,6,0,0.027777777777778,0.298245614035088,0,0.25,1.0,0,0.027777777777778,1.0,ReadingArea_rsl0-rcl2-esl29-rsm0-rcm25-esm100-rsr0-rcr2-esr100,exr/ReadingArea_rsl0-rcl2-esl29-rsm0-rcm25-esm100-rsr0-rcr2-esr100.exr,ReadingArea_rsl0-rcl2-esl29-rsm0-rcm25-esm100-rsr0-rcr2-esr100.npz,,,,,0,68,68,92,,right,red,2.49,229.9810869693756,230.3525869846344,1,1,3,lightness,readingArea,realistic,75,2023-03-24_13h59.06.517,tripletExp_regina_11082022,2022.2.4,120.29506579324745,
7,2,6,0,0.111111111111111,1.0,0,0.25,0.298245614035088,0,0.027777777777778,1.0,ReadingArea_rsl0-rcl11-esl100-rsm0-rcm25-esm29-rsr0-rcr2-esr100,exr/ReadingArea_rsl0-rcl11-esl100-rsm0-rcm25-esm29-rsr0-rcr2-esr100.exr,ReadingArea_rsl0-rcl11-esl100-rsm0-rcm25-esm29-rsr0-rcr2-esr100.npz,,,,,0,69,69,506,,left,green,0.78,232.0705988407135,232.4427309036255,1,1,3,lightness,readingArea,realistic,75,2023-03-24_13h59.06.517,tripletExp_regina_11082022,2022.2.4,120.29506579324745,
8,11,1,0,0.25,1.0,0,1.0,1.0,0,0.111111111111111,0.298245614035088,ReadingArea_rsl0-rcl25-esl100-rsm0-rcm100-esm100-rsr0-rcr11-esr29,exr/ReadingArea_rsl0-rcl25-esl100-rsm0-rcm100-esm100-rsr0-rcr11-esr29.exr,ReadingArea_rsl0-rcl25-esl100-rsm0-rcm100-esm100-rsr0-rcr11-esr29.npz,,,,,0,70,70,132,,left,green,0.77,234.1427960395813,234.55519795417783,1,1,3,lightness,readingArea,realistic,75,2023-03-24_13h59.06.517,tripletExp_regina_11082022,2022.2.4,120.29506579324745,
14,12,9,0,0.25,3.10526315789474,0,0.027777777777778,3.10526315789474,0,0.444444444444444,1.0,ReadingArea_rsl0-rcl25-esl310-rsm0-rcm2-esm310-rsr0-rcr44-esr100,exr/ReadingArea_rsl0-rcl25-esl310-rsm0-rcm2-esm310-rsr0-rcr44-esr100.exr,ReadingArea_rsl0-rcl25-esl310-rsm0-rcm2-esm310-rsr0-rcr44-esr100.npz,,,,,0,71,71,40,,right,red,1.01,236.2621660232544,236.6217279434204,1,1,3,lightness,readingArea,realistic,75,2023-03-24_13h59.06.517,tripletExp_regina_11082022,2022.2.4,120.29506579324745,
8,6,0,0,0.25,1.0,0,0.027777777777778,1.0,0,0.027777777777778,0.298245614035088,ReadingArea_rsl0-rcl25-esl100-rsm0-rcm2-esm100-rsr0-rcr2-esr29,exr/ReadingArea_rsl0-rcl25-esl100-rsm0-rcm2-esm100-rsr0-rcr2-esr29.exr,ReadingArea_rsl0-rcl25-esl100-rsm0-rcm2-esm100-rsr0-rcr2-esr29.npz,,,,,0,72,72,187,,right,red,1.1,238.33312582969663,238.7159278392792,1,1,3,lightness,readingArea,realistic,75,2023-03-24_13h59.06.517,tripletExp_regina_11082022,2022.2.4,120.29506579324745,
6,0,14,0,0.027777777777778,1.0,0,0.027777777777778,0.298245614035088,0,0.25,3.10526315789474,ReadingArea_rsl0-rcl2-esl100-rsm0-rcm2-esm29-rsr0-rcr25-esr310,exr/ReadingArea_rsl0-rcl2-esl100-rsm0-rcm2-esm29-rsr0-rcr25-esr310.exr,ReadingArea_rsl0-rcl2-esl100-rsm0-rcm2-esm29-rsr0-rcr25-esr310.npz,,,,,0,73,73,169,,left,green,0.74,240.41082882881165,240.79767489433289,1,1,3,lightness,readingArea,realistic,75,2023-03-24_13h59.06.517,tripletExp_regina_11082022,2022.2.4,120.29506579324745,
4,3,1,0,0.694444444444444,0.298245614035088,0,0.444444444444444,0.298245614035088,0,0.111111111111111,0.298245614035088,ReadingArea_rsl0-rcl69-esl29-rsm0-rcm44-esm29-rsr0-rcr11-esr29,exr/ReadingArea_rsl0-rcl69-esl29-rsm0-rcm44-esm29-rsr0-rcr11-esr29.exr,ReadingArea_rsl0-rcl69-esl29-rsm0-rcm44-esm29-rsr0-rcr11-esr29.npz,,,,,0,74,74,60,,left,green,0.75,242.50695490837097,242.70805287361145,1,1,3,lightness,readingArea,realistic,75,2023-03-24_13h59.06.517,tripletExp_regina_11082022,2022.2.4,120.29506579324745,
8,2,0,0,0.25,1.0,0,0.25,0.298245614035088,0,0.027777777777778,0.298245614035088,ReadingArea_rsl0-rcl25-esl100-rsm0-rcm25-esm29-rsr0-rcr2-esr29,exr/ReadingArea_rsl0-rcl25-esl100-rsm0-rcm25-esm29-rsr0-rcr2-esr29.exr,ReadingArea_rsl0-rcl25-esl100-rsm0-rcm25-esm29-rsr0-rcr2-esr29.npz,,,,,0,75,75,574,,left,green,0.96,248.75010204315183,249.13083481788635,2,1,3,lightness,readingArea,realistic,75,2023-03-24_13h59.06.517,tripletExp_regina_11082022,2022.2.4,120.29506579324745,
12,7,1,0,0.027777777777778,3.10526315789474,0,0.111111111111111,1.0,0,0.111111111111111,0.298245614035088,ReadingArea_rsl0-rcl2-esl310-rsm0-rcm11-esm100-rsr0-rcr11-esr29,exr/ReadingArea_rsl0-rcl2-esl310-rsm0-rcm11-esm100-rsr0-rcr11-esr29.exr,ReadingArea_rsl0-rcl2-esl310-rsm0-rcm11-esm100-rsr0-rcr11-esr29.npz,,,,,0,76,76,264,,left,green,2.04,252.5969219207764,252.9738049507141,2,1,3,lightness,readingArea,realistic,75,2023-03-24_13h59.06.517,tripletExp_regina_11082022,2022.2.4,120.29506579324745,
7,14,3,0,0.111111111111111,1.0,0,0.25,3.10526315789474,0,0.444444444444444,0.298245614035088,ReadingArea_rsl0-rcl11-esl100-rsm0-rcm25-esm310-rsr0-rcr44-esr29,exr/ReadingArea_rsl0-rcl11-esl100-rsm0-rcm25-esm310-rsr0-rcr44-esr29.exr,ReadingArea_rsl0-rcl11-esl100-rsm0-rcm25-esm310-rsr0-rcr44-esr29.npz,,,,,0,77,77,103,,right,red,0.74,254.6946699619293,,2,1,3,lightness,readingArea,realistic,75,2023-03-24_13h59.06.517,tripletExp_regina_11082022,2022.2.4,120.29506579324745,
13,10,12,0,0.111111111111111,3.10526315789474,0,0.694444444444444,1.0,0,0.027777777777778,3.10526315789474,ReadingArea_rsl0-rcl11-esl310-rsm0-rcm69-esm100-rsr0-rcr2-esr310,exr/ReadingArea_rsl0-rcl11-esl310-rsm0-rcm69-esm100-rsr0-rcr2-esr310.exr,ReadingArea_rsl0-rcl11-esl310-rsm0-rcm69-esm100-rsr0-rcr2-esr310.npz,,,,,0,78,78,384,,left,green,0.85,256.7818989753723,257.2862329483032,2,1,3,lightness,readingArea,realistic,75,2023-03-24_13h59.06.517,tripletExp_regina_11082022,2022.2.4,120.29506579324745,
3,8,1,0,0.444444444444444,0.298245614035088,0,0.25,1.0,0,0.111111111111111,0.298245614035088,ReadingArea_rsl0-rcl44-esl29-rsm0-rcm25-esm100-rsr0-rcr11-esr29,exr/ReadingArea_rsl0-rcl44-esl29-rsm0-rcm25-esm100-rsr0-rcr11-esr29.exr,ReadingArea_rsl0-rcl44-esl29-rsm0-rcm25-esm100-rsr0-rcr11-esr29.npz,,,,,0,79,79,230,,left,green,1.01,258.9956169128418,,2,1,3,lightness,readingArea,realistic,75,2023-03-24_13h59.06.517,tripletExp_regina_11082022,2022.2.4,120.29506579324745,
13,6,2,0,0.111111111111111,3.10526315789474,0,0.027777777777778,1.0,0,0.25,0.298245614035088,ReadingArea_rsl0-rcl11-esl310-rsm0-rcm2-esm100-rsr0-rcr25-esr29,exr/ReadingArea_rsl0-rcl11-esl310-rsm0-rcm2-esm100-rsr0-rcr25-esr29.exr,ReadingArea_rsl0-rcl11-esl310-rsm0-rcm2-esm100-rsr0-rcr25-esr29.npz,,,,,0,80,80,115,,right,red,0.97,261.0751819610596,261.4550440311432,2,1,3,lightness,readingArea,realistic,75,2023-03-24_13h59.06.517,tripletExp_regina_11082022,2022.2.4,120.29506579324745,
0,8,3,0,0.027777777777778,0.298245614035088,0,0.25,1.0,0,0.444444444444444,0.298245614035088,ReadingArea_rsl0-rcl2-esl29-rsm0-rcm25-esm100-rsr0-rcr44-esr29,exr/ReadingArea_rsl0-rcl2-esl29-rsm0-rcm25-esm100-rsr0-rcr44-esr29.exr,ReadingArea_rsl0-rcl2-esl29-rsm0-rcm25-esm100-rsr0-rcr44-esr29.npz,,,,,0,81,81,301,,right,red,1.16,263.1426589488983,263.5092918872833,2,1,3,lightness,readingArea,realistic,75,2023-03-24_13h59.06.517,tripletExp_regina_11082022,2022.2.4,120.29506579324745,
3,14,4,0,0.444444444444444,0.298245614035088,0,0.25,3.10526315789474,0,0.694444444444444,0.298245614035088,ReadingArea_rsl0-rcl44-esl29-rsm0-rcm25-esm310-rsr0-rcr69-esr29,exr/ReadingArea_rsl0-rcl44-esl29-rsm0-rcm25-esm310-rsr0-rcr69-esr29.exr,ReadingArea_rsl0-rcl44-esl29-rsm0-rcm25-esm310-rsr0-rcr69-esr29.npz,,,,,0,82,82,537,,right,red,0.94,265.20502400398254,265.5900650024414,2,1,3,lightness,readingArea,realistic,75,2023-03-24_13h59.06.517,tripletExp_regina_11082022,2022.2.4,120.29506579324745,
5,2,8,0,1.0,0.298245614035088,0,0.25,0.298245614035088,0,0.25,1.0,ReadingArea_rsl0-rcl100-esl29-rsm0-rcm25-esm29-rsr0-rcr25-esr100,exr/ReadingArea_rsl0-rcl100-esl29-rsm0-rcm25-esm29-rsr0-rcr25-esr100.exr,ReadingArea_rsl0-rcl100-esl29-rsm0-rcm25-esm29-rsr0-rcr25-esr100.npz,,,,,0,83,83,538,,right,red,0.74,267.2977948188782,267.7007160186768,2,1,3,lightness,readingArea,realistic,75,2023-03-24_13h59.06.517,tripletExp_regina_11082022,2022.2.4,120.29506579324745,
4,7,10,0,0.694444444444444,0.298245614035088,0,0.111111111111111,1.0,0,0.694444444444444,1.0,ReadingArea_rsl0-rcl69-esl29-rsm0-rcm11-esm100-rsr0-rcr69-esr100,exr/ReadingArea_rsl0-rcl69-esl29-rsm0-rcm11-esm100-rsr0-rcr69-esr100.exr,ReadingArea_rsl0-rcl69-esl29-rsm0-rcm11-esm100-rsr0-rcr69-esr100.npz,,,,,0,84,84,8,,left,green,0.86,269.42173504829407,,2,1,3,lightness,readingArea,realistic,75,2023-03-24_13h59.06.517,tripletExp_regina_11082022,2022.2.4,120.29506579324745,
11,6,14,0,1.0,1.0,0,0.027777777777778,1.0,0,0.25,3.10526315789474,ReadingArea_rsl0-rcl100-esl100-rsm0-rcm2-esm100-rsr0-rcr25-esr310,exr/ReadingArea_rsl0-rcl100-esl100-rsm0-rcm2-esm100-rsr0-rcr25-esr310.exr,ReadingArea_rsl0-rcl100-esl100-rsm0-rcm2-esm100-rsr0-rcr25-esr310.npz,,,,,0,85,85,305,,right,red,0.99,271.4963309764862,271.88055896759033,2,1,3,lightness,readingArea,realistic,75,2023-03-24_13h59.06.517,tripletExp_regina_11082022,2022.2.4,120.29506579324745,
1,12,11,0,0.111111111111111,0.298245614035088,0,0.027777777777778,3.10526315789474,0,1.0,1.0,ReadingArea_rsl0-rcl11-esl29-rsm0-rcm2-esm310-rsr0-rcr100-esr100,exr/ReadingArea_rsl0-rcl11-esl29-rsm0-rcm2-esm310-rsr0-rcr100-esr100.exr,ReadingArea_rsl0-rcl11-esl29-rsm0-rcm2-esm310-rsr0-rcr100-esr100.npz,,,,,0,86,86,178,,left,green,0.72,273.59402799606323,273.96771597862244,2,1,3,lightness,readingArea,realistic,75,2023-03-24_13h59.06.517,tripletExp_regina_11082022,2022.2.4,120.29506579324745,
10,14,4,0,0.694444444444444,1.0,0,0.25,3.10526315789474,0,0.694444444444444,0.298245614035088,ReadingArea_rsl0-rcl69-esl100-rsm0-rcm25-esm310-rsr0-rcr69-esr29,exr/ReadingArea_rsl0-rcl69-esl100-rsm0-rcm25-esm310-rsr0-rcr69-esr29.exr,ReadingArea_rsl0-rcl69-esl100-rsm0-rcm25-esm310-rsr0-rcr69-esr29.npz,,,,,0,87,87,267,,left,green,0.83,275.6709129810333,276.04025292396545,2,1,3,lightness,readingArea,realistic,75,2023-03-24_13h59.06.517,tripletExp_regina_11082022,2022.2.4,120.29506579324745,
3,0,2,0,0.444444444444444,0.298245614035088,0,0.027777777777778,0.298245614035088,0,0.25,0.298245614035088,ReadingArea_rsl0-rcl44-esl29-rsm0-rcm2-esm29-rsr0-rcr25-esr29,exr/ReadingArea_rsl0-rcl44-esl29-rsm0-rcm2-esm29-rsr0-rcr25-esr29.exr,ReadingArea_rsl0-rcl44-esl29-rsm0-rcm2-esm29-rsr0-rcr25-esr29.npz,,,,,0,88,88,334,,right,red,0.97,277.72435188293457,278.10329699516296,2,1,3,lightness,readingArea,realistic,75,2023-03-24_13h59.06.517,tripletExp_regina_11082022,2022.2.4,120.29506579324745,
14,6,12,0,0.25,3.10526315789474,0,0.027777777777778,1.0,0,0.027777777777778,3.10526315789474,ReadingArea_rsl0-rcl25-esl310-rsm0-rcm2-esm100-rsr0-rcr2-esr310,exr/ReadingArea_rsl0-rcl25-esl310-rsm0-rcm2-esm100-rsr0-rcr2-esr310.exr,ReadingArea_rsl0-rcl25-esl310-rsm0-rcm2-esm100-rsr0-rcr2-esr310.npz,,,,,0,89,89,242,,right,red,2.1,281.5862069129944,281.95032691955566,2,1,3,lightness,readingArea,realistic,75,2023-03-24_13h59.06.517,tripletExp_regina_11082022,2022.2.4,120.29506579324745,
6,9,5,0,0.027777777777778,1.0,0,0.444444444444444,1.0,0,1.0,0.298245614035088,ReadingArea_rsl0-rcl2-esl100-rsm0-rcm44-esm100-rsr0-rcr100-esr29,exr/ReadingArea_rsl0-rcl2-esl100-rsm0-rcm44-esm100-rsr0-rcr100-esr29.exr,ReadingArea_rsl0-rcl2-esl100-rsm0-rcm44-esm100-rsr0-rcr100-esr29.npz,,,,,0,90,90,29,,right,red,0.63,283.6572768688202,,2,1,3,lightness,readingArea,realistic,75,2023-03-24_13h59.06.517,tripletExp_regina_11082022,2022.2.4,120.29506579324745,
12,6,8,0,0.027777777777778,3.10526315789474,0,0.027777777777778,1.0,0,0.25,1.0,ReadingArea_rsl0-rcl2-esl310-rsm0-rcm2-esm100-rsr0-rcr25-esr100,exr/ReadingArea_rsl0-rcl2-esl310-rsm0-rcm2-esm100-rsr0-rcr25-esr100.exr,ReadingArea_rsl0-rcl2-esl310-rsm0-rcm2-esm100-rsr0-rcr25-esr100.npz,,,,,0,91,91,540,,left,green,0.6,285.7316529750824,286.0980749130249,2,1,3,lightness,readingArea,realistic,75,2023-03-24_13h59.06.517,tripletExp_regina_11082022,2022.2.4,120.29506579324745,
3,7,9,0,0.444444444444444,0.298245614035088,0,0.111111111111111,1.0,0,0.444444444444444,1.0,ReadingArea_rsl0-rcl44-esl29-rsm0-rcm11-esm100-rsr0-rcr44-esr100,exr/ReadingArea_rsl0-rcl44-esl29-rsm0-rcm11-esm100-rsr0-rcr44-esr100.exr,ReadingArea_rsl0-rcl44-esl29-rsm0-rcm11-esm100-rsr0-rcr44-esr100.npz,,,,,0,92,92,382,,left,green,0.66,287.7962369918823,288.1804709434509,2,1,3,lightness,readingArea,realistic,75,2023-03-24_13h59.06.517,tripletExp_regina_11082022,2022.2.4,120.29506579324745,
8,9,2,0,0.25,1.0,0,0.444444444444444,1.0,0,0.25,0.298245614035088,ReadingArea_rsl0-rcl25-esl100-rsm0-rcm44-esm100-rsr0-rcr25-esr29,exr/ReadingArea_rsl0-rcl25-esl100-rsm0-rcm44-esm100-rsr0-rcr25-esr29.exr,ReadingArea_rsl0-rcl25-esl100-rsm0-rcm44-esm100-rsr0-rcr25-esr29.npz,,,,,0,93,93,559,,left,green,0.71,289.8980669975281,290.27181482315063,2,1,3,lightness,readingArea,realistic,75,2023-03-24_13h59.06.517,tripletExp_regina_11082022,2022.2.4,120.29506579324745,
9,4,11,0,0.444444444444444,1.0,0,0.694444444444444,0.298245614035088,0,1.0,1.0,ReadingArea_rsl0-rcl44-esl100-rsm0-rcm69-esm29-rsr0-rcr100-esr100,exr/ReadingArea_rsl0-rcl44-esl100-rsm0-rcm69-esm29-rsr0-rcr100-esr100.exr,ReadingArea_rsl0-rcl44-esl100-rsm0-rcm69-esm29-rsr0-rcr100-esr100.npz,,,,,0,94,94,133,,left,green,0.56,291.97029304504395,292.3942358493805,2,1,3,lightness,readingArea,realistic,75,2023-03-24_13h59.06.517,tripletExp_regina_11082022,2022.2.4,120.29506579324745,
4,3,10,0,0.694444444444444,0.298245614035088,0,0.444444444444444,0.298245614035088,0,0.694444444444444,1.0,ReadingArea_rsl0-rcl69-esl29-rsm0-rcm44-esm29-rsr0-rcr69-esr100,exr/ReadingArea_rsl0-rcl69-esl29-rsm0-rcm44-esm29-rsr0-rcr69-esr100.exr,ReadingArea_rsl0-rcl69-esl29-rsm0-rcm44-esm29-rsr0-rcr69-esr100.npz,,,,,0,95,95,371,,left,green,0.63,294.1121549606323,294.4993369579315,2,1,3,lightness,readingArea,realistic,75,2023-03-24_13h59.06.517,tripletExp_regina_11082022,2022.2.4,120.29506579324745,
9,4,14,0,0.444444444444444,1.0,0,0.694444444444444,0.298245614035088,0,0.25,3.10526315789474,ReadingArea_rsl0-rcl44-esl100-rsm0-rcm69-esm29-rsr0-rcr25-esr310,exr/ReadingArea_rsl0-rcl44-esl100-rsm0-rcm69-esm29-rsr0-rcr25-esr310.exr,ReadingArea_rsl0-rcl44-esl100-rsm0-rcm69-esm29-rsr0-rcr25-esr310.npz,,,,,0,96,96,104,,left,green,0.61,296.2036609649658,296.58311700820923,2,1,3,lightness,readingArea,realistic,75,2023-03-24_13h59.06.517,tripletExp_regina_11082022,2022.2.4,120.29506579324745,
11,14,2,0,1.0,1.0,0,0.25,3.10526315789474,0,0.25,0.298245614035088,ReadingArea_rsl0-rcl100-esl100-rsm0-rcm25-esm310-rsr0-rcr25-esr29,exr/ReadingArea_rsl0-rcl100-esl100-rsm0-rcm25-esm310-rsr0-rcr25-esr29.exr,ReadingArea_rsl0-rcl100-esl100-rsm0-rcm25-esm310-rsr0-rcr25-esr29.npz,,,,,0,97,97,419,,left,green,0.63,298.2689778804779,298.6737518310547,2,1,3,lightness,readingArea,realistic,75,2023-03-24_13h59.06.517,tripletExp_regina_11082022,2022.2.4,120.29506579324745,
14,3,6,0,0.25,3.10526315789474,0,0.444444444444444,0.298245614035088,0,0.027777777777778,1.0,ReadingArea_rsl0-rcl25-esl310-rsm0-rcm44-esm29-rsr0-rcr2-esr100,exr/ReadingArea_rsl0-rcl25-esl310-rsm0-rcm44-esm29-rsr0-rcr2-esr100.exr,ReadingArea_rsl0-rcl25-esl310-rsm0-rcm44-esm29-rsr0-rcr2-esr100.npz,,,,,0,98,98,244,,right,red,2.52,302.1369638442993,302.5278079509735,2,1,3,lightness,readingArea,realistic,75,2023-03-24_13h59.06.517,tripletExp_regina_11082022,2022.2.4,120.29506579324745,
6,5,0,0,0.027777777777778,1.0,0,1.0,0.298245614035088,0,0.027777777777778,0.298245614035088,ReadingArea_rsl0-rcl2-esl100-rsm0-rcm100-esm29-rsr0-rcr2-esr29,exr/ReadingArea_rsl0-rcl2-esl100-rsm0-rcm100-esm29-rsr0-rcr2-esr29.exr,ReadingArea_rsl0-rcl2-esl100-rsm0-rcm100-esm29-rsr0-rcr2-esr29.npz,,,,,0,99,99,558,,left,green,0.97,304.22288703918457,304.599408864975,2,1,3,lightness,readingArea,realistic,75,2023-03-24_13h59.06.517,tripletExp_regina_11082022,2022.2.4,120.29506579324745,
13,6,0,0,0.111111111111111,3.10526315789474,0,0.027777777777778,1.0,0,0.027777777777778,0.298245614035088,ReadingArea_rsl0-rcl11-esl310-rsm0-rcm2-esm100-rsr0-rcr2-esr29,exr/ReadingArea_rsl0-rcl11-esl310-rsm0-rcm2-esm100-rsr0-rcr2-esr29.exr,ReadingArea_rsl0-rcl11-esl310-rsm0-rcm2-esm100-rsr0-rcr2-esr29.npz,,,,,0,100,100,309,,right,red,0.89,306.2891459465027,306.67651104927063,2,1,3,lightness,readingArea,realistic,75,2023-03-24_13h59.06.517,tripletExp_regina_11082022,2022.2.4,120.29506579324745,
0,9,14,0,0.027777777777778,0.298245614035088,0,0.444444444444444,1.0,0,0.25,3.10526315789474,ReadingArea_rsl0-rcl2-esl29-rsm0-rcm44-esm100-rsr0-rcr25-esr310,exr/ReadingArea_rsl0-rcl2-esl29-rsm0-rcm44-esm100-rsr0-rcr25-esr310.exr,ReadingArea_rsl0-rcl2-esl29-rsm0-rcm44-esm100-rsr0-rcr25-esr310.npz,,,,,0,101,101,433,,right,red,0.73,308.3703649044037,,2,1,3,lightness,readingArea,realistic,75,2023-03-24_13h59.06.517,tripletExp_regina_11082022,2022.2.4,120.29506579324745,
2,6,0,0,0.25,0.298245614035088,0,0.027777777777778,1.0,0,0.027777777777778,0.298245614035088,ReadingArea_rsl0-rcl25-esl29-rsm0-rcm2-esm100-rsr0-rcr2-esr29,exr/ReadingArea_rsl0-rcl25-esl29-rsm0-rcm2-esm100-rsr0-rcr2-esr29.exr,ReadingArea_rsl0-rcl25-esl29-rsm0-rcm2-esm100-rsr0-rcr2-esr29.npz,,,,,0,102,102,525,,right,red,0.93,310.46057391166687,310.8301429748535,2,1,3,lightness,readingArea,realistic,75,2023-03-24_13h59.06.517,tripletExp_regina_11082022,2022.2.4,120.29506579324745,
10,6,8,0,0.694444444444444,1.0,0,0.027777777777778,1.0,0,0.25,1.0,ReadingArea_rsl0-rcl69-esl100-rsm0-rcm2-esm100-rsr0-rcr25-esr100,exr/ReadingArea_rsl0-rcl69-esl100-rsm0-rcm2-esm100-rsr0-rcr25-esr100.exr,ReadingArea_rsl0-rcl69-esl100-rsm0-rcm2-esm100-rsr0-rcr25-esr100.npz,,,,,0,103,103,145,,right,red,0.8,312.5399248600006,313.02541303634644,2,1,3,lightness,readingArea,realistic,75,2023-03-24_13h59.06.517,tripletExp_regina_11082022,2022.2.4,120.29506579324745,
14,10,9,0,0.25,3.10526315789474,0,0.694444444444444,1.0,0,0.444444444444444,1.0,ReadingArea_rsl0-rcl25-esl310-rsm0-rcm69-esm100-rsr0-rcr44-esr100,exr/ReadingArea_rsl0-rcl25-esl310-rsm0-rcm69-esm100-rsr0-rcr44-esr100.exr,ReadingArea_rsl0-rcl25-esl310-rsm0-rcm69-esm100-rsr0-rcr44-esr100.npz,,,,,0,104,104,402,,left,green,0.82,314.72154688835144,315.0966899394989,2,1,3,lightness,readingArea,realistic,75,2023-03-24_13h59.06.517,tripletExp_regina_11082022,2022.2.4,120.29506579324745,
5,12,7,0,1.0,0.298245614035088,0,0.027777777777778,3.10526315789474,0,0.111111111111111,1.0,ReadingArea_rsl0-rcl100-esl29-rsm0-rcm2-esm310-rsr0-rcr11-esr100,exr/ReadingArea_rsl0-rcl100-esl29-rsm0-rcm2-esm310-rsr0-rcr11-esr100.exr,ReadingArea_rsl0-rcl100-esl29-rsm0-rcm2-esm310-rsr0-rcr11-esr100.npz,,,,,0,105,105,447,,right,red,1.1,316.8048849105835,317.204607963562,2,1,3,lightness,readingArea,realistic,75,2023-03-24_13h59.06.517,tripletExp_regina_11082022,2022.2.4,120.29506579324745,
12,3,11,0,0.027777777777778,3.10526315789474,0,0.444444444444444,0.298245614035088,0,1.0,1.0,ReadingArea_rsl0-rcl2-esl310-rsm0-rcm44-esm29-rsr0-rcr100-esr100,exr/ReadingArea_rsl0-rcl2-esl310-rsm0-rcm44-esm29-rsr0-rcr100-esr100.exr,ReadingArea_rsl0-rcl2-esl310-rsm0-rcm44-esm29-rsr0-rcr100-esr100.npz,,,,,0,106,106,83,,left,green,0.89,318.899090051651,319.2831029891968,2,1,3,lightness,readingArea,realistic,75,2023-03-24_13h59.06.517,tripletExp_regina_11082022,2022.2.4,120.29506579324745,
14,2,7,0,0.25,3.10526315789474,0,0.25,0.298245614035088,0,0.111111111111111,1.0,ReadingArea_rsl0-rcl25-esl310-rsm0-rcm25-esm29-rsr0-rcr11-esr100,exr/ReadingArea_rsl0-rcl25-esl310-rsm0-rcm25-esm29-rsr0-rcr11-esr100.exr,ReadingArea_rsl0-rcl25-esl310-rsm0-rcm25-esm29-rsr0-rcr11-esr100.npz,,,,,0,107,107,569,,right,red,0.56,320.9752099514008,321.36705803871155,2,1,3,lightness,readingArea,realistic,75,2023-03-24_13h59.06.517,tripletExp_regina_11082022,2022.2.4,120.29506579324745,
1,5,8,0,0.111111111111111,0.298245614035088,0,1.0,0.298245614035088,0,0.25,1.0,ReadingArea_rsl0-rcl11-esl29-rsm0-rcm100-esm29-rsr0-rcr25-esr100,exr/ReadingArea_rsl0-rcl11-esl29-rsm0-rcm100-esm29-rsr0-rcr25-esr100.exr,ReadingArea_rsl0-rcl11-esl29-rsm0-rcm100-esm29-rsr0-rcr25-esr100.npz,,,,,0,108,108,238,,right,red,0.65,323.0596590042114,323.4496738910675,2,1,3,lightness,readingArea,realistic,75,2023-03-24_13h59.06.517,tripletExp_regina_11082022,2022.2.4,120.29506579324745,
13,10,9,0,0.111111111111111,3.10526315789474,0,0.694444444444444,1.0,0,0.444444444444444,1.0,ReadingArea_rsl0-rcl11-esl310-rsm0-rcm69-esm100-rsr0-rcr44-esr100,exr/ReadingArea_rsl0-rcl11-esl310-rsm0-rcm69-esm100-rsr0-rcr44-esr100.exr,ReadingArea_rsl0-rcl11-esl310-rsm0-rcm69-esm100-rsr0-rcr44-esr100.npz,,,,,0,109,109,330,,right,red,0.86,325.17339992523193,325.5481219291687,2,1,3,lightness,readingArea,realistic,75,2023-03-24_13h59.06.517,tripletExp_regina_11082022,2022.2.4,120.29506579324745,
13,1,4,0,0.111111111111111,3.10526315789474,0,0.111111111111111,0.298245614035088,0,0.694444444444444,0.298245614035088,ReadingArea_rsl0-rcl11-esl310-rsm0-rcm11-esm29-rsr0-rcr69-esr29,exr/ReadingArea_rsl0-rcl11-esl310-rsm0-rcm11-esm29-rsr0-rcr69-esr29.exr,ReadingArea_rsl0-rcl11-esl310-rsm0-rcm11-esm29-rsr0-rcr69-esr29.npz,,,,,0,110,110,396,,right,red,0.81,327.2407729625702,327.6216959953308,2,1,3,lightness,readingArea,realistic,75,2023-03-24_13h59.06.517,tripletExp_regina_11082022,2022.2.4,120.29506579324745,
2,7,11,0,0.25,0.298245614035088,0,0.111111111111111,1.0,0,1.0,1.0,ReadingArea_rsl0-rcl25-esl29-rsm0-rcm11-esm100-rsr0-rcr100-esr100,exr/ReadingArea_rsl0-rcl25-esl29-rsm0-rcm11-esm100-rsr0-rcr100-esr100.exr,ReadingArea_rsl0-rcl25-esl29-rsm0-rcm11-esm100-rsr0-rcr100-esr100.npz,,,,,0,111,111,194,,left,green,0.6,329.31937193870544,329.699697971344,2,1,3,lightness,readingArea,realistic,75,2023-03-24_13h59.06.517,tripletExp_regina_11082022,2022.2.4,120.29506579324745,
5,8,7,0,1.0,0.298245614035088,0,0.25,1.0,0,0.111111111111111,1.0,ReadingArea_rsl0-rcl100-esl29-rsm0-rcm25-esm100-rsr0-rcr11-esr100,exr/ReadingArea_rsl0-rcl100-esl29-rsm0-rcm25-esm100-rsr0-rcr11-esr100.exr,ReadingArea_rsl0-rcl100-esl29-rsm0-rcm25-esm100-rsr0-rcr11-esr100.npz,,,,,0,112,112,36,,left,green,1.24,331.4119508266449,331.8016679286957,2,1,3,lightness,readingArea,realistic,75,2023-03-24_13h59.06.517,tripletExp_regina_11082022,2022.2.4,120.29506579324745,
12,2,9,0,0.027777777777778,3.10526315789474,0,0.25,0.298245614035088,0,0.444444444444444,1.0,ReadingArea_rsl0-rcl2-esl310-rsm0-rcm25-esm29-rsr0-rcr44-esr100,exr/ReadingArea_rsl0-rcl2-esl310-rsm0-rcm25-esm29-rsr0-rcr44-esr100.exr,ReadingArea_rsl0-rcl2-esl310-rsm0-rcm25-esm29-rsr0-rcr44-esr100.npz,,,,,0,113,113,495,,left,green,0.7,333.4934890270233,333.88465905189514,2,1,3,lightness,readingArea,realistic,75,2023-03-24_13h59.06.517,tripletExp_regina_11082022,2022.2.4,120.29506579324745,
7,2,0,0,0.111111111111111,1.0,0,0.25,0.298245614035088,0,0.027777777777778,0.298245614035088,ReadingArea_rsl0-rcl11-esl100-rsm0-rcm25-esm29-rsr0-rcr2-esr29,exr/ReadingArea_rsl0-rcl11-esl100-rsm0-rcm25-esm29-rsr0-rcr2-esr29.exr,ReadingArea_rsl0-rcl11-esl100-rsm0-rcm25-esm29-rsr0-rcr2-esr29.npz,,,,,0,114,114,520,,left,green,0.6,335.6002788543701,335.9836950302124,2,1,3,lightness,readingArea,realistic,75,2023-03-24_13h59.06.517,tripletExp_regina_11082022,2022.2.4,120.29506579324745,
14,0,3,0,0.25,3.10526315789474,0,0.027777777777778,0.298245614035088,0,0.444444444444444,0.298245614035088,ReadingArea_rsl0-rcl25-esl310-rsm0-rcm2-esm29-rsr0-rcr44-esr29,exr/ReadingArea_rsl0-rcl25-esl310-rsm0-rcm2-esm29-rsr0-rcr44-esr29.exr,ReadingArea_rsl0-rcl25-esl310-rsm0-rcm2-esm29-rsr0-rcr44-esr29.npz,,,,,0,115,115,75,,right,red,0.67,337.69783997535706,338.0708210468292,2,1,3,lightness,readingArea,realistic,75,2023-03-24_13h59.06.517,tripletExp_regina_11082022,2022.2.4,120.29506579324745,
14,11,0,0,0.25,3.10526315789474,0,1.0,1.0,0,0.027777777777778,0.298245614035088,ReadingArea_rsl0-rcl25-esl310-rsm0-rcm100-esm100-rsr0-rcr2-esr29,exr/ReadingArea_rsl0-rcl25-esl310-rsm0-rcm100-esm100-rsr0-rcr2-esr29.exr,ReadingArea_rsl0-rcl25-esl310-rsm0-rcm100-esm100-rsr0-rcr2-esr29.npz,,,,,0,116,116,227,,left,green,0.58,339.7610819339752,340.1365399360657,2,1,3,lightness,readingArea,realistic,75,2023-03-24_13h59.06.517,tripletExp_regina_11082022,2022.2.4,120.29506579324745,
14,6,7,0,0.25,3.10526315789474,0,0.027777777777778,1.0,0,0.111111111111111,1.0,ReadingArea_rsl0-rcl25-esl310-rsm0-rcm2-esm100-rsr0-rcr11-esr100,exr/ReadingArea_rsl0-rcl25-esl310-rsm0-rcm2-esm100-rsr0-rcr11-esr100.exr,ReadingArea_rsl0-rcl25-esl310-rsm0-rcm2-esm100-rsr0-rcr11-esr100.npz,,,,,0,117,117,306,,right,red,0.61,341.8308279514313,342.2348339557648,2,1,3,lightness,readingArea,realistic,75,2023-03-24_13h59.06.517,tripletExp_regina_11082022,2022.2.4,120.29506579324745,
13,8,0,0,0.111111111111111,3.10526315789474,0,0.25,1.0,0,0.027777777777778,0.298245614035088,ReadingArea_rsl0-rcl11-esl310-rsm0-rcm25-esm100-rsr0-rcr2-esr29,exr/ReadingArea_rsl0-rcl11-esl310-rsm0-rcm25-esm100-rsr0-rcr2-esr29.exr,ReadingArea_rsl0-rcl11-esl310-rsm0-rcm25-esm100-rsr0-rcr2-esr29.npz,,,,,0,118,118,429,,left,green,0.62,343.93731689453125,344.31453585624695,2,1,3,lightness,readingArea,realistic,75,2023-03-24_13h59.06.517,tripletExp_regina_11082022,2022.2.4,120.29506579324745,
1,14,5,0,0.111111111111111,0.298245614035088,0,0.25,3.10526315789474,0,1.0,0.298245614035088,ReadingArea_rsl0-rcl11-esl29-rsm0-rcm25-esm310-rsr0-rcr100-esr29,exr/ReadingArea_rsl0-rcl11-esl29-rsm0-rcm25-esm310-rsr0-rcr100-esr29.exr,ReadingArea_rsl0-rcl11-esl29-rsm0-rcm25-esm310-rsr0-rcr100-esr29.npz,,,,,0,119,119,509,,right,red,0.63,346.0119998455048,346.3931579589844,2,1,3,lightness,readingArea,realistic,75,2023-03-24_13h59.06.517,tripletExp_regina_11082022,2022.2.4,120.29506579324745,
10,13,1,0,0.694444444444444,1.0,0,0.111111111111111,3.10526315789474,0,0.111111111111111,0.298245614035088,ReadingArea_rsl0-rcl69-esl100-rsm0-rcm11-esm310-rsr0-rcr11-esr29,exr/ReadingArea_rsl0-rcl69-esl100-rsm0-rcm11-esm310-rsr0-rcr11-esr29.exr,ReadingArea_rsl0-rcl69-esl100-rsm0-rcm11-esm310-rsr0-rcr11-esr29.npz,,,,,0,120,120,149,,left,green,0.57,348.0813069343567,348.4532239437103,2,1,3,lightness,readingArea,realistic,75,2023-03-24_13h59.06.517,tripletExp_regina_11082022,2022.2.4,120.29506579324745,
6,0,10,0,0.027777777777778,1.0,0,0.027777777777778,0.298245614035088,0,0.694444444444444,1.0,ReadingArea_rsl0-rcl2-esl100-rsm0-rcm2-esm29-rsr0-rcr69-esr100,exr/ReadingArea_rsl0-rcl2-esl100-rsm0-rcm2-esm29-rsr0-rcr69-esr100.exr,ReadingArea_rsl0-rcl2-esl100-rsm0-rcm2-esm29-rsr0-rcr69-esr100.npz,,,,,0,121,121,532,,left,green,0.52,350.1719698905945,350.5497000217438,2,1,3,lightness,readingArea,realistic,75,2023-03-24_13h59.06.517,tripletExp_regina_11082022,2022.2.4,120.29506579324745,
10,7,3,0,0.694444444444444,1.0,0,0.111111111111111,1.0,0,0.444444444444444,0.298245614035088,ReadingArea_rsl0-rcl69-esl100-rsm0-rcm11-esm100-rsr0-rcr44-esr29,exr/ReadingArea_rsl0-rcl69-esl100-rsm0-rcm11-esm100-rsr0-rcr44-esr29.exr,ReadingArea_rsl0-rcl69-esl100-rsm0-rcm11-esm100-rsr0-rcr44-esr29.npz,,,,,0,122,122,582,,right,red,0.53,352.268828868866,352.64750599861145,2,1,3,lightness,readingArea,realistic,75,2023-03-24_13h59.06.517,tripletExp_regina_11082022,2022.2.4,120.29506579324745,
3,12,4,0,0.444444444444444,0.298245614035088,0,0.027777777777778,3.10526315789474,0,0.694444444444444,0.298245614035088,ReadingArea_rsl0-rcl44-esl29-rsm0-rcm2-esm310-rsr0-rcr69-esr29,exr/ReadingArea_rsl0-rcl44-esl29-rsm0-rcm2-esm310-rsr0-rcr69-esr29.exr,ReadingArea_rsl0-rcl44-esl29-rsm0-rcm2-esm310-rsr0-rcr69-esr29.npz,,,,,0,123,123,426,,left,green,0.74,354.3338439464569,354.7129158973694,2,1,3,lightness,readingArea,realistic,75,2023-03-24_13h59.06.517,tripletExp_regina_11082022,2022.2.4,120.29506579324745,
11,7,8,0,1.0,1.0,0,0.111111111111111,1.0,0,0.25,1.0,ReadingArea_rsl0-rcl100-esl100-rsm0-rcm11-esm100-rsr0-rcr25-esr100,exr/ReadingArea_rsl0-rcl100-esl100-rsm0-rcm11-esm100-rsr0-rcr25-esr100.exr,ReadingArea_rsl0-rcl100-esl100-rsm0-rcm11-esm100-rsr0-rcr25-esr100.npz,,,,,0,124,124,37,,right,red,0.61,356.42774987220764,356.8195300102234,2,1,3,lightness,readingArea,realistic,75,2023-03-24_13h59.06.517,tripletExp_regina_11082022,2022.2.4,120.29506579324745,
5,2,10,0,1.0,0.298245614035088,0,0.25,0.298245614035088,0,0.694444444444444,1.0,ReadingArea_rsl0-rcl100-esl29-rsm0-rcm25-esm29-rsr0-rcr69-esr100,exr/ReadingArea_rsl0-rcl100-esl29-rsm0-rcm25-esm29-rsr0-rcr69-esr100.exr,ReadingArea_rsl0-rcl100-esl29-rsm0-rcm25-esm29-rsr0-rcr69-esr100.npz,,,,,0,125,125,595,,left,green,0.53,358.50940203666687,358.886412858963,2,1,3,lightness,readingArea,realistic,75,2023-03-24_13h59.06.517,tripletExp_regina_11082022,2022.2.4,120.29506579324745,
10,9,6,0,0.694444444444444,1.0,0,0.444444444444444,1.0,0,0.027777777777778,1.0,ReadingArea_rsl0-rcl69-esl100-rsm0-rcm44-esm100-rsr0-rcr2-esr100,exr/ReadingArea_rsl0-rcl69-esl100-rsm0-rcm44-esm100-rsr0-rcr2-esr100.exr,ReadingArea_rsl0-rcl69-esl100-rsm0-rcm44-esm100-rsr0-rcr2-esr100.npz,,,,,0,126,126,35,,left,green,0.58,360.5866048336029,,2,1,3,lightness,readingArea,realistic,75,2023-03-24_13h59.06.517,tripletExp_regina_11082022,2022.2.4,120.29506579324745,
11,7,12,0,1.0,1.0,0,0.111111111111111,1.0,0,0.027777777777778,3.10526315789474,ReadingArea_rsl0-rcl100-esl100-rsm0-rcm11-esm100-rsr0-rcr2-esr310,exr/ReadingArea_rsl0-rcl100-esl100-rsm0-rcm11-esm100-rsr0-rcr2-esr310.exr,ReadingArea_rsl0-rcl100-esl100-rsm0-rcm11-esm100-rsr0-rcr2-esr310.npz,,,,,0,127,127,352,,right,red,0.64,362.70201587677,363.0917398929596,2,1,3,lightness,readingArea,realistic,75,2023-03-24_13h59.06.517,tripletExp_regina_11082022,2022.2.4,120.29506579324745,
0,14,6,0,0.027777777777778,0.298245614035088,0,0.25,3.10526315789474,0,0.027777777777778,1.0,ReadingArea_rsl0-rcl2-esl29-rsm0-rcm25-esm310-rsr0-rcr2-esr100,exr/ReadingArea_rsl0-rcl2-esl29-rsm0-rcm25-esm310-rsr0-rcr2-esr100.exr,ReadingArea_rsl0-rcl2-esl29-rsm0-rcm25-esm310-rsr0-rcr2-esr100.npz,,,,,0,128,128,499,,right,red,0.97,364.8013699054718,365.1881229877472,2,1,3,lightness,readingArea,realistic,75,2023-03-24_13h59.06.517,tripletExp_regina_11082022,2022.2.4,120.29506579324745,
8,0,6,0,0.25,1.0,0,0.027777777777778,0.298245614035088,0,0.027777777777778,1.0,ReadingArea_rsl0-rcl25-esl100-rsm0-rcm2-esm29-rsr0-rcr2-esr100,exr/ReadingArea_rsl0-rcl25-esl100-rsm0-rcm2-esm29-rsr0-rcr2-esr100.exr,ReadingArea_rsl0-rcl25-esl100-rsm0-rcm2-esm29-rsr0-rcr2-esr100.npz,,,,,0,129,129,401,,right,red,0.74,366.8986508846283,367.286504983902,2,1,3,lightness,readingArea,realistic,75,2023-03-24_13h59.06.517,tripletExp_regina_11082022,2022.2.4,120.29506579324745,
4,2,0,0,0.694444444444444,0.298245614035088,0,0.25,0.298245614035088,0,0.027777777777778,0.298245614035088,ReadingArea_rsl0-rcl69-esl29-rsm0-rcm25-esm29-rsr0-rcr2-esr29,exr/ReadingArea_rsl0-rcl69-esl29-rsm0-rcm25-esm29-rsr0-rcr2-esr29.exr,ReadingArea_rsl0-rcl69-esl29-rsm0-rcm25-esm29-rsr0-rcr2-esr29.npz,,,,,0,130,130,71,,left,green,0.69,368.9746148586273,369.3423109054565,2,1,3,lightness,readingArea,realistic,75,2023-03-24_13h59.06.517,tripletExp_regina_11082022,2022.2.4,120.29506579324745,
4,8,10,0,0.694444444444444,0.298245614035088,0,0.25,1.0,0,0.694444444444444,1.0,ReadingArea_rsl0-rcl69-esl29-rsm0-rcm25-esm100-rsr0-rcr69-esr100,exr/ReadingArea_rsl0-rcl69-esl29-rsm0-rcm25-esm100-rsr0-rcr69-esr100.exr,ReadingArea_rsl0-rcl69-esl29-rsm0-rcm25-esm100-rsr0-rcr69-esr100.npz,,,,,0,131,131,221,,left,green,0.94,371.0590319633484,371.55788683891296,2,1,3,lightness,readingArea,realistic,75,2023-03-24_13h59.06.517,tripletExp_regina_11082022,2022.2.4,120.29506579324745,
9,13,6,0,0.444444444444444,1.0,0,0.111111111111111,3.10526315789474,0,0.027777777777778,1.0,ReadingArea_rsl0-rcl44-esl100-rsm0-rcm11-esm310-rsr0-rcr2-esr100,exr/ReadingArea_rsl0-rcl44-esl100-rsm0-rcm11-esm310-rsr0-rcr2-esr100.exr,ReadingArea_rsl0-rcl44-esl100-rsm0-rcm11-esm310-rsr0-rcr2-esr100.npz,,,,,0,132,132,13,,left,green,1.06,373.2772519588471,373.6497769355774,2,1,3,lightness,readingArea,realistic,75,2023-03-24_13h59.06.517,tripletExp_regina_11082022,2022.2.4,120.29506579324745,
9,0,6,0,0.444444444444444,1.0,0,0.027777777777778,0.298245614035088,0,0.027777777777778,1.0,ReadingArea_rsl0-rcl44-esl100-rsm0-rcm2-esm29-rsr0-rcr2-esr100,exr/ReadingArea_rsl0-rcl44-esl100-rsm0-rcm2-esm29-rsr0-rcr2-esr100.exr,ReadingArea_rsl0-rcl44-esl100-rsm0-rcm2-esm29-rsr0-rcr2-esr100.npz,,,,,0,133,133,362,,right,red,0.78,375.3682909011841,375.75959491729736,2,1,3,lightness,readingArea,realistic,75,2023-03-24_13h59.06.517,tripletExp_regina_11082022,2022.2.4,120.29506579324745,
9,11,6,0,0.444444444444444,1.0,0,1.0,1.0,0,0.027777777777778,1.0,ReadingArea_rsl0-rcl44-esl100-rsm0-rcm100-esm100-rsr0-rcr2-esr100,exr/ReadingArea_rsl0-rcl44-esl100-rsm0-rcm100-esm100-rsr0-rcr2-esr100.exr,ReadingArea_rsl0-rcl44-esl100-rsm0-rcm100-esm100-rsr0-rcr2-esr100.npz,,,,,0,134,134,404,,left,green,0.69,377.4691479206085,377.8624918460846,2,1,3,lightness,readingArea,realistic,75,2023-03-24_13h59.06.517,tripletExp_regina_11082022,2022.2.4,120.29506579324745,
4,1,9,0,0.694444444444444,0.298245614035088,0,0.111111111111111,0.298245614035088,0,0.444444444444444,1.0,ReadingArea_rsl0-rcl69-esl29-rsm0-rcm11-esm29-rsr0-rcr44-esr100,exr/ReadingArea_rsl0-rcl69-esl29-rsm0-rcm11-esm29-rsr0-rcr44-esr100.exr,ReadingArea_rsl0-rcl69-esl29-rsm0-rcm11-esm29-rsr0-rcr44-esr100.npz,,,,,0,135,135,7,,left,green,0.85,379.5493218898773,379.9903619289398,2,1,3,lightness,readingArea,realistic,75,2023-03-24_13h59.06.517,tripletExp_regina_11082022,2022.2.4,120.29506579324745,
13,11,10,0,0.111111111111111,3.10526315789474,0,1.0,1.0,0,0.694444444444444,1.0,ReadingArea_rsl0-rcl11-esl310-rsm0-rcm100-esm100-rsr0-rcr69-esr100,exr/ReadingArea_rsl0-rcl11-esl310-rsm0-rcm100-esm100-rsr0-rcr69-esr100.exr,ReadingArea_rsl0-rcl11-esl310-rsm0-rcm100-esm100-rsr0-rcr69-esr100.npz,,,,,0,136,136,577,,right,red,0.97,381.7068898677826,382.1012828350067,2,1,3,lightness,readingArea,realistic,75,2023-03-24_13h59.06.517,tripletExp_regina_11082022,2022.2.4,120.29506579324745,
12,6,14,0,0.027777777777778,3.10526315789474,0,0.027777777777778,1.0,0,0.25,3.10526315789474,ReadingArea_rsl0-rcl2-esl310-rsm0-rcm2-esm100-rsr0-rcr25-esr310,exr/ReadingArea_rsl0-rcl2-esl310-rsm0-rcm2-esm100-rsr0-rcr25-esr310.exr,ReadingArea_rsl0-rcl2-esl310-rsm0-rcm2-esm100-rsr0-rcr25-esr310.npz,,,,,0,137,137,218,,left,green,1.03,383.79562282562256,384.1741209030152,2,1,3,lightness,readingArea,realistic,75,2023-03-24_13h59.06.517,tripletExp_regina_11082022,2022.2.4,120.29506579324745,
13,6,1,0,0.111111111111111,3.10526315789474,0,0.027777777777778,1.0,0,0.111111111111111,0.298245614035088,ReadingArea_rsl0-rcl11-esl310-rsm0-rcm2-esm100-rsr0-rcr11-esr29,exr/ReadingArea_rsl0-rcl11-esl310-rsm0-rcm2-esm100-rsr0-rcr11-esr29.exr,ReadingArea_rsl0-rcl11-esl310-rsm0-rcm2-esm100-rsr0-rcr11-esr29.npz,,,,,0,138,138,486,,right,red,0.91,385.8850388526917,386.2519738674164,2,1,3,lightness,readingArea,realistic,75,2023-03-24_13h59.06.517,tripletExp_regina_11082022,2022.2.4,120.29506579324745,
14,9,12,0,0.25,3.10526315789474,0,0.444444444444444,1.0,0,0.027777777777778,3.10526315789474,ReadingArea_rsl0-rcl25-esl310-rsm0-rcm44-esm100-rsr0-rcr2-esr310,exr/ReadingArea_rsl0-rcl25-esl310-rsm0-rcm44-esm100-rsr0-rcr2-esr310.exr,ReadingArea_rsl0-rcl25-esl310-rsm0-rcm44-esm100-rsr0-rcr2-esr310.npz,,,,,0,139,139,378,,left,green,0.74,387.9625108242035,388.3427059650421,2,1,3,lightness,readingArea,realistic,75,2023-03-24_13h59.06.517,tripletExp_regina_11082022,2022.2.4,120.29506579324745,
0,11,9,0,0.027777777777778,0.298245614035088,0,1.0,1.0,0,0.444444444444444,1.0,ReadingArea_rsl0-rcl2-esl29-rsm0-rcm100-esm100-rsr0-rcr44-esr100,exr/ReadingArea_rsl0-rcl2-esl29-rsm0-rcm100-esm100-rsr0-rcr44-esr100.exr,ReadingArea_rsl0-rcl2-esl29-rsm0-rcm100-esm100-rsr0-rcr44-esr100.npz,,,,,0,140,140,32,,right,red,0.7,390.034539937973,390.4151139259338,2,1,3,lightness,readingArea,realistic,75,2023-03-24_13h59.06.517,tripletExp_regina_11082022,2022.2.4,120.29506579324745,
4,10,11,0,0.694444444444444,0.298245614035088,0,0.694444444444444,1.0,0,1.0,1.0,ReadingArea_rsl0-rcl69-esl29-rsm0-rcm69-esm100-rsr0-rcr100-esr100,exr/ReadingArea_rsl0-rcl69-esl29-rsm0-rcm69-esm100-rsr0-rcr100-esr100.exr,ReadingArea_rsl0-rcl69-esl29-rsm0-rcm69-esm100-rsr0-rcr100-esr100.npz,,,,,0,141,141,180,,right,red,0.76,392.1294138431549,392.4969689846039,2,1,3,lightness,readingArea,realistic,75,2023-03-24_13h59.06.517,tripletExp_regina_11082022,2022.2.4,120.29506579324745,
10,7,13,0,0.694444444444444,1.0,0,0.111111111111111,1.0,0,0.111111111111111,3.10526315789474,ReadingArea_rsl0-rcl69-esl100-rsm0-rcm11-esm100-rsr0-rcr11-esr310,exr/ReadingArea_rsl0-rcl69-esl100-rsm0-rcm11-esm100-rsr0-rcr11-esr310.exr,ReadingArea_rsl0-rcl69-esl100-rsm0-rcm11-esm100-rsr0-rcr11-esr310.npz,,,,,0,142,142,379,,right,red,0.94,394.1854519844055,394.5554509162903,2,1,3,lightness,readingArea,realistic,75,2023-03-24_13h59.06.517,tripletExp_regina_11082022,2022.2.4,120.29506579324745,
9,12,6,0,0.444444444444444,1.0,0,0.027777777777778,3.10526315789474,0,0.027777777777778,1.0,ReadingArea_rsl0-rcl44-esl100-rsm0-rcm2-esm310-rsr0-rcr2-esr100,exr/ReadingArea_rsl0-rcl44-esl100-rsm0-rcm2-esm310-rsr0-rcr2-esr100.exr,ReadingArea_rsl0-rcl44-esl100-rsm0-rcm2-esm310-rsr0-rcr2-esr100.npz,,,,,0,143,143,5,,right,red,0.97,396.251256942749,396.640604019165,2,1,3,lightness,readingArea,realistic,75,2023-03-24_13h59.06.517,tripletExp_regina_11082022,2022.2.4,120.29506579324745,
4,12,6,0,0.694444444444444,0.298245614035088,0,0.027777777777778,3.10526315789474,0,0.027777777777778,1.0,ReadingArea_rsl0-rcl69-esl29-rsm0-rcm2-esm310-rsr0-rcr2-esr100,exr/ReadingArea_rsl0-rcl69-esl29-rsm0-rcm2-esm310-rsr0-rcr2-esr100.exr,ReadingArea_rsl0-rcl69-esl29-rsm0-rcm2-esm310-rsr0-rcr2-esr100.npz,,,,,0,144,144,99,,right,red,2.53,400.1104309558869,400.5051000118256,2,1,3,lightness,readingArea,realistic,75,2023-03-24_13h59.06.517,tripletExp_regina_11082022,2022.2.4,120.29506579324745,
4,11,14,0,0.694444444444444,0.298245614035088,0,1.0,1.0,0,0.25,3.10526315789474,ReadingArea_rsl0-rcl69-esl29-rsm0-rcm100-esm100-rsr0-rcr25-esr310,exr/ReadingArea_rsl0-rcl69-esl29-rsm0-rcm100-esm100-rsr0-rcr25-esr310.exr,ReadingArea_rsl0-rcl69-esl29-rsm0-rcm100-esm100-rsr0-rcr25-esr310.npz,,,,,0,145,145,165,,right,red,0.61,402.1940150260925,402.5628318786621,2,1,3,lightness,readingArea,realistic,75,2023-03-24_13h59.06.517,tripletExp_regina_11082022,2022.2.4,120.29506579324745,
7,4,6,0,0.111111111111111,1.0,0,0.694444444444444,0.298245614035088,0,0.027777777777778,1.0,ReadingArea_rsl0-rcl11-esl100-rsm0-rcm69-esm29-rsr0-rcr2-esr100,exr/ReadingArea_rsl0-rcl11-esl100-rsm0-rcm69-esm29-rsr0-rcr2-esr100.exr,ReadingArea_rsl0-rcl11-esl100-rsm0-rcm69-esm29-rsr0-rcr2-esr100.npz,,,,,0,146,146,528,,left,green,0.79,404.2677309513092,,2,1,3,lightness,readingArea,realistic,75,2023-03-24_13h59.06.517,tripletExp_regina_11082022,2022.2.4,120.29506579324745,
9,11,2,0,0.444444444444444,1.0,0,1.0,1.0,0,0.25,0.298245614035088,ReadingArea_rsl0-rcl44-esl100-rsm0-rcm100-esm100-rsr0-rcr25-esr29,exr/ReadingArea_rsl0-rcl44-esl100-rsm0-rcm100-esm100-rsr0-rcr25-esr29.exr,ReadingArea_rsl0-rcl44-esl100-rsm0-rcm100-esm100-rsr0-rcr25-esr29.npz,,,,,0,147,147,329,,left,green,0.88,406.3803880214691,406.76834988594055,2,1,3,lightness,readingArea,realistic,75,2023-03-24_13h59.06.517,tripletExp_regina_11082022,2022.2.4,120.29506579324745,
4,14,12,0,0.694444444444444,0.298245614035088,0,0.25,3.10526315789474,0,0.027777777777778,3.10526315789474,ReadingArea_rsl0-rcl69-esl29-rsm0-rcm25-esm310-rsr0-rcr2-esr310,exr/ReadingArea_rsl0-rcl69-esl29-rsm0-rcm25-esm310-rsr0-rcr2-esr310.exr,ReadingArea_rsl0-rcl69-esl29-rsm0-rcm25-esm310-rsr0-rcr2-esr310.npz,,,,,0,148,148,392,,left,green,1.09,408.4664738178253,408.85322189331055,2,1,3,lightness,readingArea,realistic,75,2023-03-24_13h59.06.517,tripletExp_regina_11082022,2022.2.4,120.29506579324745,
0,8,14,0,0.027777777777778,0.298245614035088,0,0.25,1.0,0,0.25,3.10526315789474,ReadingArea_rsl0-rcl2-esl29-rsm0-rcm25-esm100-rsr0-rcr25-esr310,exr/ReadingArea_rsl0-rcl2-esl29-rsm0-rcm25-esm100-rsr0-rcr25-esr310.exr,ReadingArea_rsl0-rcl2-esl29-rsm0-rcm25-esm100-rsr0-rcr25-esr310.npz,,,,,0,149,149,114,,left,green,2.76,412.3300268650055,412.5344989299774,2,1,3,lightness,readingArea,realistic,75,2023-03-24_13h59.06.517,tripletExp_regina_11082022,2022.2.4,120.29506579324745,
5,3,4,0,1.0,0.298245614035088,0,0.444444444444444,0.298245614035088,0,0.694444444444444,0.298245614035088,ReadingArea_rsl0-rcl100-esl29-rsm0-rcm44-esm29-rsr0-rcr69-esr29,exr/ReadingArea_rsl0-rcl100-esl29-rsm0-rcm44-esm29-rsr0-rcr69-esr29.exr,ReadingArea_rsl0-rcl100-esl29-rsm0-rcm44-esm29-rsr0-rcr69-esr29.npz,,,,,0,150,150,201,,right,red,0.9,471.9251890182495,472.3107559680939,3,1,3,lightness,readingArea,realistic,75,2023-03-24_13h59.06.517,tripletExp_regina_11082022,2022.2.4,120.29506579324745,
4,12,2,0,0.694444444444444,0.298245614035088,0,0.027777777777778,3.10526315789474,0,0.25,0.298245614035088,ReadingArea_rsl0-rcl69-esl29-rsm0-rcm2-esm310-rsr0-rcr25-esr29,exr/ReadingArea_rsl0-rcl69-esl29-rsm0-rcm2-esm310-rsr0-rcr25-esr29.exr,ReadingArea_rsl0-rcl69-esl29-rsm0-rcm2-esm310-rsr0-rcr25-esr29.npz,,,,,0,151,151,543,,right,red,0.86,474.0338509082794,474.4216320514679,3,1,3,lightness,readingArea,realistic,75,2023-03-24_13h59.06.517,tripletExp_regina_11082022,2022.2.4,120.29506579324745,
13,0,14,0,0.111111111111111,3.10526315789474,0,0.027777777777778,0.298245614035088,0,0.25,3.10526315789474,ReadingArea_rsl0-rcl11-esl310-rsm0-rcm2-esm29-rsr0-rcr25-esr310,exr/ReadingArea_rsl0-rcl11-esl310-rsm0-rcm2-esm29-rsr0-rcr25-esr310.exr,ReadingArea_rsl0-rcl11-esl310-rsm0-rcm2-esm29-rsr0-rcr25-esr310.npz,,,,,0,152,152,278,,left,green,0.67,476.139575958252,476.5225470066071,3,1,3,lightness,readingArea,realistic,75,2023-03-24_13h59.06.517,tripletExp_regina_11082022,2022.2.4,120.29506579324745,
5,11,14,0,1.0,0.298245614035088,0,1.0,1.0,0,0.25,3.10526315789474,ReadingArea_rsl0-rcl100-esl29-rsm0-rcm100-esm100-rsr0-rcr25-esr310,exr/ReadingArea_rsl0-rcl100-esl29-rsm0-rcm100-esm100-rsr0-rcr25-esr310.exr,ReadingArea_rsl0-rcl100-esl29-rsm0-rcm100-esm100-rsr0-rcr25-esr310.npz,,,,,0,153,153,258,,right,red,0.84,478.2353868484497,478.626482963562,3,1,3,lightness,readingArea,realistic,75,2023-03-24_13h59.06.517,tripletExp_regina_11082022,2022.2.4,120.29506579324745,
3,13,12,0,0.444444444444444,0.298245614035088,0,0.111111111111111,3.10526315789474,0,0.027777777777778,3.10526315789474,ReadingArea_rsl0-rcl44-esl29-rsm0-rcm11-esm310-rsr0-rcr2-esr310,exr/ReadingArea_rsl0-rcl44-esl29-rsm0-rcm11-esm310-rsr0-rcr2-esr310.exr,ReadingArea_rsl0-rcl44-esl29-rsm0-rcm11-esm310-rsr0-rcr2-esr310.npz,,,,,0,154,154,34,,left,green,0.73,480.3135368824005,480.6883919239044,3,1,3,lightness,readingArea,realistic,75,2023-03-24_13h59.06.517,tripletExp_regina_11082022,2022.2.4,120.29506579324745,
2,8,7,0,0.25,0.298245614035088,0,0.25,1.0,0,0.111111111111111,1.0,ReadingArea_rsl0-rcl25-esl29-rsm0-rcm25-esm100-rsr0-rcr11-esr100,exr/ReadingArea_rsl0-rcl25-esl29-rsm0-rcm25-esm100-rsr0-rcr11-esr100.exr,ReadingArea_rsl0-rcl25-esl29-rsm0-rcm25-esm100-rsr0-rcr11-esr100.npz,,,,,0,155,155,393,,right,red,0.8,482.389417886734,482.7950768470764,3,1,3,lightness,readingArea,realistic,75,2023-03-24_13h59.06.517,tripletExp_regina_11082022,2022.2.4,120.29506579324745,
0,4,7,0,0.027777777777778,0.298245614035088,0,0.694444444444444,0.298245614035088,0,0.111111111111111,1.0,ReadingArea_rsl0-rcl2-esl29-rsm0-rcm69-esm29-rsr0-rcr11-esr100,exr/ReadingArea_rsl0-rcl2-esl29-rsm0-rcm69-esm29-rsr0-rcr11-esr100.exr,ReadingArea_rsl0-rcl2-esl29-rsm0-rcm69-esm29-rsr0-rcr11-esr100.npz,,,,,0,156,156,200,,right,red,0.86,484.4853370189667,484.8841638565064,3,1,3,lightness,readingArea,realistic,75,2023-03-24_13h59.06.517,tripletExp_regina_11082022,2022.2.4,120.29506579324745,
5,6,0,0,1.0,0.298245614035088,0,0.027777777777778,1.0,0,0.027777777777778,0.298245614035088,ReadingArea_rsl0-rcl100-esl29-rsm0-rcm2-esm100-rsr0-rcr2-esr29,exr/ReadingArea_rsl0-rcl100-esl29-rsm0-rcm2-esm100-rsr0-rcr2-esr29.exr,ReadingArea_rsl0-rcl100-esl29-rsm0-rcm2-esm100-rsr0-rcr2-esr29.npz,,,,,0,157,157,511,,right,red,0.95,486.5970628261566,486.9708378314972,3,1,3,lightness,readingArea,realistic,75,2023-03-24_13h59.06.517,tripletExp_regina_11082022,2022.2.4,120.29506579324745,
10,4,9,0,0.694444444444444,1.0,0,0.694444444444444,0.298245614035088,0,0.444444444444444,1.0,ReadingArea_rsl0-rcl69-esl100-rsm0-rcm69-esm29-rsr0-rcr44-esr100,exr/ReadingArea_rsl0-rcl69-esl100-rsm0-rcm69-esm29-rsr0-rcr44-esr100.exr,ReadingArea_rsl0-rcl69-esl100-rsm0-rcm69-esm29-rsr0-rcr44-esr100.npz,,,,,0,158,158,452,,right,red,2.11,490.4118218421936,490.805184841156,3,1,3,lightness,readingArea,realistic,75,2023-03-24_13h59.06.517,tripletExp_regina_11082022,2022.2.4,120.29506579324745,
0,4,9,0,0.027777777777778,0.298245614035088,0,0.694444444444444,0.298245614035088,0,0.444444444444444,1.0,ReadingArea_rsl0-rcl2-esl29-rsm0-rcm69-esm29-rsr0-rcr44-esr100,exr/ReadingArea_rsl0-rcl2-esl29-rsm0-rcm69-esm29-rsr0-rcr44-esr100.exr,ReadingArea_rsl0-rcl2-esl29-rsm0-rcm69-esm29-rsr0-rcr44-esr100.npz,,,,,0,159,159,21,,right,red,0.7,492.49412393569946,492.86939001083374,3,1,3,lightness,readingArea,realistic,75,2023-03-24_13h59.06.517,tripletExp_regina_11082022,2022.2.4,120.29506579324745,
0,8,7,0,0.027777777777778,0.298245614035088,0,0.25,1.0,0,0.111111111111111,1.0,ReadingArea_rsl0-rcl2-esl29-rsm0-rcm25-esm100-rsr0-rcr11-esr100,exr/ReadingArea_rsl0-rcl2-esl29-rsm0-rcm25-esm100-rsr0-rcr11-esr100.exr,ReadingArea_rsl0-rcl2-esl29-rsm0-rcm25-esm100-rsr0-rcr11-esr100.npz,,,,,0,160,160,9,,right,red,0.82,494.5767889022827,494.9653010368347,3,1,3,lightness,readingArea,realistic,75,2023-03-24_13h59.06.517,tripletExp_regina_11082022,2022.2.4,120.29506579324745,
2,13,0,0,0.25,0.298245614035088,0,0.111111111111111,3.10526315789474,0,0.027777777777778,0.298245614035088,ReadingArea_rsl0-rcl25-esl29-rsm0-rcm11-esm310-rsr0-rcr2-esr29,exr/ReadingArea_rsl0-rcl25-esl29-rsm0-rcm11-esm310-rsr0-rcr2-esr29.exr,ReadingArea_rsl0-rcl25-esl29-rsm0-rcm11-esm310-rsr0-rcr2-esr29.npz,,,,,0,161,161,454,,left,green,0.68,496.65543603897095,497.0477018356323,3,1,3,lightness,readingArea,realistic,75,2023-03-24_13h59.06.517,tripletExp_regina_11082022,2022.2.4,120.29506579324745,
0,14,8,0,0.027777777777778,0.298245614035088,0,0.25,3.10526315789474,0,0.25,1.0,ReadingArea_rsl0-rcl2-esl29-rsm0-rcm25-esm310-rsr0-rcr25-esr100,exr/ReadingArea_rsl0-rcl2-esl29-rsm0-rcm25-esm310-rsr0-rcr25-esr100.exr,ReadingArea_rsl0-rcl2-esl29-rsm0-rcm25-esm310-rsr0-rcr25-esr100.npz,,,,,0,162,162,545,,right,red,0.7,498.74468898773193,499.138326883316,3,1,3,lightness,readingArea,realistic,75,2023-03-24_13h59.06.517,tripletExp_regina_11082022,2022.2.4,120.29506579324745,
3,11,14,0,0.444444444444444,0.298245614035088,0,1.0,1.0,0,0.25,3.10526315789474,ReadingArea_rsl0-rcl44-esl29-rsm0-rcm100-esm100-rsr0-rcr25-esr310,exr/ReadingArea_rsl0-rcl44-esl29-rsm0-rcm100-esm100-rsr0-rcr25-esr310.exr,ReadingArea_rsl0-rcl44-esl29-rsm0-rcm100-esm100-rsr0-rcr25-esr310.npz,,,,,0,163,163,570,,right,red,0.5,500.8431398868561,501.216166973114,3,1,3,lightness,readingArea,realistic,75,2023-03-24_13h59.06.517,tripletExp_regina_11082022,2022.2.4,120.29506579324745,
13,11,2,0,0.111111111111111,3.10526315789474,0,1.0,1.0,0,0.25,0.298245614035088,ReadingArea_rsl0-rcl11-esl310-rsm0-rcm100-esm100-rsr0-rcr25-esr29,exr/ReadingArea_rsl0-rcl11-esl310-rsm0-rcm100-esm100-rsr0-rcr25-esr29.exr,ReadingArea_rsl0-rcl11-esl310-rsm0-rcm100-esm100-rsr0-rcr25-esr29.npz,,,,,0,164,164,55,,left,green,0.56,502.9153079986572,503.2978549003601,3,1,3,lightness,readingArea,realistic,75,2023-03-24_13h59.06.517,tripletExp_regina_11082022,2022.2.4,120.29506579324745,
14,3,2,0,0.25,3.10526315789474,0,0.444444444444444,0.298245614035088,0,0.25,0.298245614035088,ReadingArea_rsl0-rcl25-esl310-rsm0-rcm44-esm29-rsr0-rcr25-esr29,exr/ReadingArea_rsl0-rcl25-esl310-rsm0-rcm44-esm29-rsr0-rcr25-esr29.exr,ReadingArea_rsl0-rcl25-esl310-rsm0-rcm44-esm29-rsr0-rcr25-esr29.npz,,,,,0,165,165,52,,right,red,0.62,504.9997758865357,505.3761858940125,3,1,3,lightness,readingArea,realistic,75,2023-03-24_13h59.06.517,tripletExp_regina_11082022,2022.2.4,120.29506579324745,
14,13,0,0,0.25,3.10526315789474,0,0.111111111111111,3.10526315789474,0,0.027777777777778,0.298245614035088,ReadingArea_rsl0-rcl25-esl310-rsm0-rcm11-esm310-rsr0-rcr2-esr29,exr/ReadingArea_rsl0-rcl25-esl310-rsm0-rcm11-esm310-rsr0-rcr2-esr29.exr,ReadingArea_rsl0-rcl25-esl310-rsm0-rcm11-esm310-rsr0-rcr2-esr29.npz,,,,,0,166,166,417,,left,green,0.65,507.0966260433197,507.4956350326538,3,1,3,lightness,readingArea,realistic,75,2023-03-24_13h59.06.517,tripletExp_regina_11082022,2022.2.4,120.29506579324745,
8,14,3,0,0.25,1.0,0,0.25,3.10526315789474,0,0.444444444444444,0.298245614035088,ReadingArea_rsl0-rcl25-esl100-rsm0-rcm25-esm310-rsr0-rcr44-esr29,exr/ReadingArea_rsl0-rcl25-esl100-rsm0-rcm25-esm310-rsr0-rcr44-esr29.exr,ReadingArea_rsl0-rcl25-esl100-rsm0-rcm25-esm310-rsr0-rcr44-esr29.npz,,,,,0,167,167,503,,left,green,1.09,509.18403792381287,,3,1,3,lightness,readingArea,realistic,75,2023-03-24_13h59.06.517,tripletExp_regina_11082022,2022.2.4,120.29506579324745,
13,6,10,0,0.111111111111111,3.10526315789474,0,0.027777777777778,1.0,0,0.694444444444444,1.0,ReadingArea_rsl0-rcl11-esl310-rsm0-rcm2-esm100-rsr0-rcr69-esr100,exr/ReadingArea_rsl0-rcl11-esl310-rsm0-rcm2-esm100-rsr0-rcr69-esr100.exr,ReadingArea_rsl0-rcl11-esl310-rsm0-rcm2-esm100-rsr0-rcr69-esr100.npz,,,,,0,168,168,593,,left,green,0.8,511.2646269798279,511.6385819911957,3,1,3,lightness,readingArea,realistic,75,2023-03-24_13h59.06.517,tripletExp_regina_11082022,2022.2.4,120.29506579324745,
14,7,1,0,0.25,3.10526315789474,0,0.111111111111111,1.0,0,0.111111111111111,0.298245614035088,ReadingArea_rsl0-rcl25-esl310-rsm0-rcm11-esm100-rsr0-rcr11-esr29,exr/ReadingArea_rsl0-rcl25-esl310-rsm0-rcm11-esm100-rsr0-rcr11-esr29.exr,ReadingArea_rsl0-rcl25-esl310-rsm0-rcm11-esm100-rsr0-rcr11-esr29.npz,,,,,0,169,169,298,,right,red,0.74,513.35400390625,513.7528879642487,3,1,3,lightness,readingArea,realistic,75,2023-03-24_13h59.06.517,tripletExp_regina_11082022,2022.2.4,120.29506579324745,
3,0,4,0,0.444444444444444,0.298245614035088,0,0.027777777777778,0.298245614035088,0,0.694444444444444,0.298245614035088,ReadingArea_rsl0-rcl44-esl29-rsm0-rcm2-esm29-rsr0-rcr69-esr29,exr/ReadingArea_rsl0-rcl44-esl29-rsm0-rcm2-esm29-rsr0-rcr69-esr29.exr,ReadingArea_rsl0-rcl44-esl29-rsm0-rcm2-esm29-rsr0-rcr69-esr29.npz,,,,,0,170,170,111,,left,green,0.6,515.4657859802246,515.8703498840332,3,1,3,lightness,readingArea,realistic,75,2023-03-24_13h59.06.517,tripletExp_regina_11082022,2022.2.4,120.29506579324745,
12,3,0,0,0.027777777777778,3.10526315789474,0,0.444444444444444,0.298245614035088,0,0.027777777777778,0.298245614035088,ReadingArea_rsl0-rcl2-esl310-rsm0-rcm44-esm29-rsr0-rcr2-esr29,exr/ReadingArea_rsl0-rcl2-esl310-rsm0-rcm44-esm29-rsr0-rcr2-esr29.exr,ReadingArea_rsl0-rcl2-esl310-rsm0-rcm44-esm29-rsr0-rcr2-esr29.npz,,,,,0,171,171,502,,left,green,0.77,517.5912280082703,517.9829919338226,3,1,3,lightness,readingArea,realistic,75,2023-03-24_13h59.06.517,tripletExp_regina_11082022,2022.2.4,120.29506579324745,
1,14,8,0,0.111111111111111,0.298245614035088,0,0.25,3.10526315789474,0,0.25,1.0,ReadingArea_rsl0-rcl11-esl29-rsm0-rcm25-esm310-rsr0-rcr25-esr100,exr/ReadingArea_rsl0-rcl11-esl29-rsm0-rcm25-esm310-rsr0-rcr25-esr100.exr,ReadingArea_rsl0-rcl11-esl29-rsm0-rcm25-esm310-rsr0-rcr25-esr100.npz,,,,,0,172,172,108,,right,red,0.5,519.6814570426941,520.0614159107208,3,1,3,lightness,readingArea,realistic,75,2023-03-24_13h59.06.517,tripletExp_regina_11082022,2022.2.4,120.29506579324745,
13,10,7,0,0.111111111111111,3.10526315789474,0,0.694444444444444,1.0,0,0.111111111111111,1.0,ReadingArea_rsl0-rcl11-esl310-rsm0-rcm69-esm100-rsr0-rcr11-esr100,exr/ReadingArea_rsl0-rcl11-esl310-rsm0-rcm69-esm100-rsr0-rcr11-esr100.exr,ReadingArea_rsl0-rcl11-esl310-rsm0-rcm69-esm100-rsr0-rcr11-esr100.npz,,,,,0,173,173,385,,left,green,0.94,521.7738699913025,522.1591980457306,3,1,3,lightness,readingArea,realistic,75,2023-03-24_13h59.06.517,tripletExp_regina_11082022,2022.2.4,120.29506579324745,
3,1,0,0,0.444444444444444,0.298245614035088,0,0.111111111111111,0.298245614035088,0,0.027777777777778,0.298245614035088,ReadingArea_rsl0-rcl44-esl29-rsm0-rcm11-esm29-rsr0-rcr2-esr29,exr/ReadingArea_rsl0-rcl44-esl29-rsm0-rcm11-esm29-rsr0-rcr2-esr29.exr,ReadingArea_rsl0-rcl44-esl29-rsm0-rcm11-esm29-rsr0-rcr2-esr29.npz,,,,,0,174,174,343,,right,red,2.26,525.6324329376221,526.02845287323,3,1,3,lightness,readingArea,realistic,75,2023-03-24_13h59.06.517,tripletExp_regina_11082022,2022.2.4,120.29506579324745,
1,10,0,0,0.111111111111111,0.298245614035088,0,0.694444444444444,1.0,0,0.027777777777778,0.298245614035088,ReadingArea_rsl0-rcl11-esl29-rsm0-rcm69-esm100-rsr0-rcr2-esr29,exr/ReadingArea_rsl0-rcl11-esl29-rsm0-rcm69-esm100-rsr0-rcr2-esr29.exr,ReadingArea_rsl0-rcl11-esl29-rsm0-rcm69-esm100-rsr0-rcr2-esr29.npz,,,,,0,175,175,196,,left,green,0.88,527.7209889888763,,3,1,3,lightness,readingArea,realistic,75,2023-03-24_13h59.06.517,tripletExp_regina_11082022,2022.2.4,120.29506579324745,
8,1,14,0,0.25,1.0,0,0.111111111111111,0.298245614035088,0,0.25,3.10526315789474,ReadingArea_rsl0-rcl25-esl100-rsm0-rcm11-esm29-rsr0-rcr25-esr310,exr/ReadingArea_rsl0-rcl25-esl100-rsm0-rcm11-esm29-rsr0-rcr25-esr310.exr,ReadingArea_rsl0-rcl25-esl100-rsm0-rcm11-esm29-rsr0-rcr25-esr310.npz,,,,,0,176,176,500,,left,green,0.99,529.8345959186554,530.2169890403748,3,1,3,lightness,readingArea,realistic,75,2023-03-24_13h59.06.517,tripletExp_regina_11082022,2022.2.4,120.29506579324745,
2,4,14,0,0.25,0.298245614035088,0,0.694444444444444,0.298245614035088,0,0.25,3.10526315789474,ReadingArea_rsl0-rcl25-esl29-rsm0-rcm69-esm29-rsr0-rcr25-esr310,exr/ReadingArea_rsl0-rcl25-esl29-rsm0-rcm69-esm29-rsr0-rcr25-esr310.exr,ReadingArea_rsl0-rcl25-esl29-rsm0-rcm69-esm29-rsr0-rcr25-esr310.npz,,,,,0,177,177,356,,left,green,1.23,531.9249448776245,532.2999980449677,3,1,3,lightness,readingArea,realistic,75,2023-03-24_13h59.06.517,tripletExp_regina_11082022,2022.2.4,120.29506579324745,
6,7,3,0,0.027777777777778,1.0,0,0.111111111111111,1.0,0,0.444444444444444,0.298245614035088,ReadingArea_rsl0-rcl2-esl100-rsm0-rcm11-esm100-rsr0-rcr44-esr29,exr/ReadingArea_rsl0-rcl2-esl100-rsm0-rcm11-esm100-rsr0-rcr44-esr29.exr,ReadingArea_rsl0-rcl2-esl100-rsm0-rcm11-esm100-rsr0-rcr44-esr29.npz,,,,,0,178,178,47,,right,red,0.72,533.9943268299103,534.3821940422058,3,1,3,lightness,readingArea,realistic,75,2023-03-24_13h59.06.517,tripletExp_regina_11082022,2022.2.4,120.29506579324745,
9,14,7,0,0.444444444444444,1.0,0,0.25,3.10526315789474,0,0.111111111111111,1.0,ReadingArea_rsl0-rcl44-esl100-rsm0-rcm25-esm310-rsr0-rcr11-esr100,exr/ReadingArea_rsl0-rcl44-esl100-rsm0-rcm25-esm310-rsr0-rcr11-esr100.exr,ReadingArea_rsl0-rcl44-esl100-rsm0-rcm25-esm310-rsr0-rcr11-esr100.npz,,,,,0,179,179,44,,left,green,0.58,536.098443031311,536.4930689334869,3,1,3,lightness,readingArea,realistic,75,2023-03-24_13h59.06.517,tripletExp_regina_11082022,2022.2.4,120.29506579324745,
3,9,0,0,0.444444444444444,0.298245614035088,0,0.444444444444444,1.0,0,0.027777777777778,0.298245614035088,ReadingArea_rsl0-rcl44-esl29-rsm0-rcm44-esm100-rsr0-rcr2-esr29,exr/ReadingArea_rsl0-rcl44-esl29-rsm0-rcm44-esm100-rsr0-rcr2-esr29.exr,ReadingArea_rsl0-rcl44-esl29-rsm0-rcm44-esm100-rsr0-rcr2-esr29.npz,,,,,0,180,180,551,,left,green,0.6,538.2084028720856,538.5949828624725,3,1,3,lightness,readingArea,realistic,75,2023-03-24_13h59.06.517,tripletExp_regina_11082022,2022.2.4,120.29506579324745,
14,0,6,0,0.25,3.10526315789474,0,0.027777777777778,0.298245614035088,0,0.027777777777778,1.0,ReadingArea_rsl0-rcl25-esl310-rsm0-rcm2-esm29-rsr0-rcr2-esr100,exr/ReadingArea_rsl0-rcl25-esl310-rsm0-rcm2-esm29-rsr0-rcr2-esr100.exr,ReadingArea_rsl0-rcl25-esl310-rsm0-rcm2-esm29-rsr0-rcr2-esr100.npz,,,,,0,181,181,496,,right,red,0.69,540.3117990493774,540.7056229114532,3,1,3,lightness,readingArea,realistic,75,2023-03-24_13h59.06.517,tripletExp_regina_11082022,2022.2.4,120.29506579324745,
5,2,7,0,1.0,0.298245614035088,0,0.25,0.298245614035088,0,0.111111111111111,1.0,ReadingArea_rsl0-rcl100-esl29-rsm0-rcm25-esm29-rsr0-rcr11-esr100,exr/ReadingArea_rsl0-rcl100-esl29-rsm0-rcm25-esm29-rsr0-rcr11-esr100.exr,ReadingArea_rsl0-rcl100-esl29-rsm0-rcm25-esm29-rsr0-rcr11-esr100.npz,,,,,0,182,182,179,,right,red,0.84,542.4173099994659,542.7894649505615,3,1,3,lightness,readingArea,realistic,75,2023-03-24_13h59.06.517,tripletExp_regina_11082022,2022.2.4,120.29506579324745,
2,8,11,0,0.25,0.298245614035088,0,0.25,1.0,0,1.0,1.0,ReadingArea_rsl0-rcl25-esl29-rsm0-rcm25-esm100-rsr0-rcr100-esr100,exr/ReadingArea_rsl0-rcl25-esl29-rsm0-rcm25-esm100-rsr0-rcr100-esr100.exr,ReadingArea_rsl0-rcl25-esl29-rsm0-rcm25-esm100-rsr0-rcr100-esr100.npz,,,,,0,183,183,225,,left,green,0.96,544.5030138492584,544.9658000469208,3,1,3,lightness,readingArea,realistic,75,2023-03-24_13h59.06.517,tripletExp_regina_11082022,2022.2.4,120.29506579324745,
14,10,13,0,0.25,3.10526315789474,0,0.694444444444444,1.0,0,0.111111111111111,3.10526315789474,ReadingArea_rsl0-rcl25-esl310-rsm0-rcm69-esm100-rsr0-rcr11-esr310,exr/ReadingArea_rsl0-rcl25-esl310-rsm0-rcm69-esm100-rsr0-rcr11-esr310.exr,ReadingArea_rsl0-rcl25-esl310-rsm0-rcm69-esm100-rsr0-rcr11-esr310.npz,,,,,0,184,184,204,,left,green,1.0,546.6652028560638,,3,1,3,lightness,readingArea,realistic,75,2023-03-24_13h59.06.517,tripletExp_regina_11082022,2022.2.4,120.29506579324745,
0,5,2,0,0.027777777777778,0.298245614035088,0,1.0,0.298245614035088,0,0.25,0.298245614035088,ReadingArea_rsl0-rcl2-esl29-rsm0-rcm100-esm29-rsr0-rcr25-esr29,exr/ReadingArea_rsl0-rcl2-esl29-rsm0-rcm100-esm29-rsr0-rcr25-esr29.exr,ReadingArea_rsl0-rcl2-esl29-rsm0-rcm100-esm29-rsr0-rcr25-esr29.npz,,,,,0,185,185,25,,right,red,1.01,548.7776458263397,549.1640739440918,3,1,3,lightness,readingArea,realistic,75,2023-03-24_13h59.06.517,tripletExp_regina_11082022,2022.2.4,120.29506579324745,
2,6,12,0,0.25,0.298245614035088,0,0.027777777777778,1.0,0,0.027777777777778,3.10526315789474,ReadingArea_rsl0-rcl25-esl29-rsm0-rcm2-esm100-rsr0-rcr2-esr310,exr/ReadingArea_rsl0-rcl25-esl29-rsm0-rcm2-esm100-rsr0-rcr2-esr310.exr,ReadingArea_rsl0-rcl25-esl29-rsm0-rcm2-esm100-rsr0-rcr2-esr310.npz,,,,,0,186,186,97,,right,red,1.32,550.88321185112,551.3081479072571,3,1,3,lightness,readingArea,realistic,75,2023-03-24_13h59.06.517,tripletExp_regina_11082022,2022.2.4,120.29506579324745,
10,5,1,0,0.694444444444444,1.0,0,1.0,0.298245614035088,0,0.111111111111111,0.298245614035088,ReadingArea_rsl0-rcl69-esl100-rsm0-rcm100-esm29-rsr0-rcr11-esr29,exr/ReadingArea_rsl0-rcl69-esl100-rsm0-rcm100-esm29-rsr0-rcr11-esr29.exr,ReadingArea_rsl0-rcl69-esl100-rsm0-rcm100-esm29-rsr0-rcr11-esr29.npz,,,,,0,187,187,152,,left,green,0.95,553.0241098403931,553.3926010131836,3,1,3,lightness,readingArea,realistic,75,2023-03-24_13h59.06.517,tripletExp_regina_11082022,2022.2.4,120.29506579324745,
0,7,9,0,0.027777777777778,0.298245614035088,0,0.111111111111111,1.0,0,0.444444444444444,1.0,ReadingArea_rsl0-rcl2-esl29-rsm0-rcm11-esm100-rsr0-rcr44-esr100,exr/ReadingArea_rsl0-rcl2-esl29-rsm0-rcm11-esm100-rsr0-rcr44-esr100.exr,ReadingArea_rsl0-rcl2-esl29-rsm0-rcm11-esm100-rsr0-rcr44-esr100.npz,,,,,0,188,188,463,,left,green,2.59,556.8690118789673,557.2701978683472,3,1,3,lightness,readingArea,realistic,75,2023-03-24_13h59.06.517,tripletExp_regina_11082022,2022.2.4,120.29506579324745,
14,2,6,0,0.25,3.10526315789474,0,0.25,0.298245614035088,0,0.027777777777778,1.0,ReadingArea_rsl0-rcl25-esl310-rsm0-rcm25-esm29-rsr0-rcr2-esr100,exr/ReadingArea_rsl0-rcl25-esl310-rsm0-rcm25-esm29-rsr0-rcr2-esr100.exr,ReadingArea_rsl0-rcl25-esl310-rsm0-rcm25-esm29-rsr0-rcr2-esr100.npz,,,,,0,189,189,350,,right,red,1.07,558.9735779762268,559.3576948642731,3,1,3,lightness,readingArea,realistic,75,2023-03-24_13h59.06.517,tripletExp_regina_11082022,2022.2.4,120.29506579324745,
5,13,12,0,1.0,0.298245614035088,0,0.111111111111111,3.10526315789474,0,0.027777777777778,3.10526315789474,ReadingArea_rsl0-rcl100-esl29-rsm0-rcm11-esm310-rsr0-rcr2-esr310,exr/ReadingArea_rsl0-rcl100-esl29-rsm0-rcm11-esm310-rsr0-rcr2-esr310.exr,ReadingArea_rsl0-rcl100-esl29-rsm0-rcm11-esm310-rsr0-rcr2-esr310.npz,,,,,0,190,190,389,,left,green,0.98,561.0576808452606,561.4555959701538,3,1,3,lightness,readingArea,realistic,75,2023-03-24_13h59.06.517,tripletExp_regina_11082022,2022.2.4,120.29506579324745,
13,11,7,0,0.111111111111111,3.10526315789474,0,1.0,1.0,0,0.111111111111111,1.0,ReadingArea_rsl0-rcl11-esl310-rsm0-rcm100-esm100-rsr0-rcr11-esr100,exr/ReadingArea_rsl0-rcl11-esl310-rsm0-rcm100-esm100-rsr0-rcr11-esr100.exr,ReadingArea_rsl0-rcl11-esl310-rsm0-rcm100-esm100-rsr0-rcr11-esr100.npz,,,,,0,191,191,590,,left,green,0.93,563.1660180091858,563.539137840271,3,1,3,lightness,readingArea,realistic,75,2023-03-24_13h59.06.517,tripletExp_regina_11082022,2022.2.4,120.29506579324745,
1,8,5,0,0.111111111111111,0.298245614035088,0,0.25,1.0,0,1.0,0.298245614035088,ReadingArea_rsl0-rcl11-esl29-rsm0-rcm25-esm100-rsr0-rcr100-esr29,exr/ReadingArea_rsl0-rcl11-esl29-rsm0-rcm25-esm100-rsr0-rcr100-esr29.exr,ReadingArea_rsl0-rcl11-esl29-rsm0-rcm25-esm100-rsr0-rcr100-esr29.npz,,,,,0,192,192,445,,right,red,0.67,565.2251930236816,565.6045980453491,3,1,3,lightness,readingArea,realistic,75,2023-03-24_13h59.06.517,tripletExp_regina_11082022,2022.2.4,120.29506579324745,
7,9,8,0,0.111111111111111,1.0,0,0.444444444444444,1.0,0,0.25,1.0,ReadingArea_rsl0-rcl11-esl100-rsm0-rcm44-esm100-rsr0-rcr25-esr100,exr/ReadingArea_rsl0-rcl11-esl100-rsm0-rcm44-esm100-rsr0-rcr25-esr100.exr,ReadingArea_rsl0-rcl11-esl100-rsm0-rcm44-esm100-rsr0-rcr25-esr100.npz,,,,,0,193,193,515,,right,red,0.66,567.3169620037079,567.7113959789276,3,1,3,lightness,readingArea,realistic,75,2023-03-24_13h59.06.517,tripletExp_regina_11082022,2022.2.4,120.29506579324745,
13,4,7,0,0.111111111111111,3.10526315789474,0,0.694444444444444,0.298245614035088,0,0.111111111111111,1.0,ReadingArea_rsl0-rcl11-esl310-rsm0-rcm69-esm29-rsr0-rcr11-esr100,exr/ReadingArea_rsl0-rcl11-esl310-rsm0-rcm69-esm29-rsr0-rcr11-esr100.exr,ReadingArea_rsl0-rcl11-esl310-rsm0-rcm69-esm29-rsr0-rcr11-esr100.npz,,,,,0,194,194,282,,left,green,1.16,569.4252908229828,569.8071320056915,3,1,3,lightness,readingArea,realistic,75,2023-03-24_13h59.06.517,tripletExp_regina_11082022,2022.2.4,120.29506579324745,
11,4,2,0,1.0,1.0,0,0.694444444444444,0.298245614035088,0,0.25,0.298245614035088,ReadingArea_rsl0-rcl100-esl100-rsm0-rcm69-esm29-rsr0-rcr25-esr29,exr/ReadingArea_rsl0-rcl100-esl100-rsm0-rcm69-esm29-rsr0-rcr25-esr29.exr,ReadingArea_rsl0-rcl100-esl100-rsm0-rcm69-esm29-rsr0-rcr25-esr29.npz,,,,,0,195,195,280,,right,red,2.6,573.2913088798523,573.7073400020599,3,1,3,lightness,readingArea,realistic,75,2023-03-24_13h59.06.517,tripletExp_regina_11082022,2022.2.4,120.29506579324745,
12,1,2,0,0.027777777777778,3.10526315789474,0,0.111111111111111,0.298245614035088,0,0.25,0.298245614035088,ReadingArea_rsl0-rcl2-esl310-rsm0-rcm11-esm29-rsr0-rcr25-esr29,exr/ReadingArea_rsl0-rcl2-esl310-rsm0-rcm11-esm29-rsr0-rcr25-esr29.exr,ReadingArea_rsl0-rcl2-esl310-rsm0-rcm11-esm29-rsr0-rcr25-esr29.npz,,,,,0,196,196,231,,left,green,0.87,575.4013960361481,575.7923610210419,3,1,3,lightness,readingArea,realistic,75,2023-03-24_13h59.06.517,tripletExp_regina_11082022,2022.2.4,120.29506579324745,
10,5,13,0,0.694444444444444,1.0,0,1.0,0.298245614035088,0,0.111111111111111,3.10526315789474,ReadingArea_rsl0-rcl69-esl100-rsm0-rcm100-esm29-rsr0-rcr11-esr310,exr/ReadingArea_rsl0-rcl69-esl100-rsm0-rcm100-esm29-rsr0-rcr11-esr310.exr,ReadingArea_rsl0-rcl69-esl100-rsm0-rcm100-esm29-rsr0-rcr11-esr310.npz,,,,,0,197,197,478,,right,red,1.23,577.4845910072327,577.8564870357513,3,1,3,lightness,readingArea,realistic,75,2023-03-24_13h59.06.517,tripletExp_regina_11082022,2022.2.4,120.29506579324745,
7,10,13,0,0.111111111111111,1.0,0,0.694444444444444,1.0,0,0.111111111111111,3.10526315789474,ReadingArea_rsl0-rcl11-esl100-rsm0-rcm69-esm100-rsr0-rcr11-esr310,exr/ReadingArea_rsl0-rcl11-esl100-rsm0-rcm69-esm100-rsr0-rcr11-esr310.exr,ReadingArea_rsl0-rcl11-esl100-rsm0-rcm69-esm100-rsr0-rcr11-esr310.npz,,,,,0,198,198,446,,right,red,0.9,579.5530998706818,579.9491329193115,3,1,3,lightness,readingArea,realistic,75,2023-03-24_13h59.06.517,tripletExp_regina_11082022,2022.2.4,120.29506579324745,
1,3,12,0,0.111111111111111,0.298245614035088,0,0.444444444444444,0.298245614035088,0,0.027777777777778,3.10526315789474,ReadingArea_rsl0-rcl11-esl29-rsm0-rcm44-esm29-rsr0-rcr2-esr310,exr/ReadingArea_rsl0-rcl11-esl29-rsm0-rcm44-esm29-rsr0-rcr2-esr310.exr,ReadingArea_rsl0-rcl11-esl29-rsm0-rcm44-esm29-rsr0-rcr2-esr310.npz,,,,,0,199,199,323,,right,red,0.8,581.6545560359955,,3,1,3,lightness,readingArea,realistic,75,2023-03-24_13h59.06.517,tripletExp_regina_11082022,2022.2.4,120.29506579324745,
9,0,14,0,0.444444444444444,1.0,0,0.027777777777778,0.298245614035088,0,0.25,3.10526315789474,ReadingArea_rsl0-rcl44-esl100-rsm0-rcm2-esm29-rsr0-rcr25-esr310,exr/ReadingArea_rsl0-rcl44-esl100-rsm0-rcm2-esm29-rsr0-rcr25-esr310.exr,ReadingArea_rsl0-rcl44-esl100-rsm0-rcm2-esm29-rsr0-rcr25-esr310.npz,,,,,0,200,200,550,,right,red,0.74,583.7528719902039,584.1347279548645,3,1,3,lightness,readingArea,realistic,75,2023-03-24_13h59.06.517,tripletExp_regina_11082022,2022.2.4,120.29506579324745,
7,3,5,0,0.111111111111111,1.0,0,0.444444444444444,0.298245614035088,0,1.0,0.298245614035088,ReadingArea_rsl0-rcl11-esl100-rsm0-rcm44-esm29-rsr0-rcr100-esr29,exr/ReadingArea_rsl0-rcl11-esl100-rsm0-rcm44-esm29-rsr0-rcr100-esr29.exr,ReadingArea_rsl0-rcl11-esl100-rsm0-rcm44-esm29-rsr0-rcr100-esr29.npz,,,,,0,201,201,589,,left,green,2.17,587.6181449890137,587.9914858341217,3,1,3,lightness,readingArea,realistic,75,2023-03-24_13h59.06.517,tripletExp_regina_11082022,2022.2.4,120.29506579324745,
13,1,7,0,0.111111111111111,3.10526315789474,0,0.111111111111111,0.298245614035088,0,0.111111111111111,1.0,ReadingArea_rsl0-rcl11-esl310-rsm0-rcm11-esm29-rsr0-rcr11-esr100,exr/ReadingArea_rsl0-rcl11-esl310-rsm0-rcm11-esm29-rsr0-rcr11-esr100.exr,ReadingArea_rsl0-rcl11-esl310-rsm0-rcm11-esm29-rsr0-rcr11-esr100.npz,,,,,0,202,202,206,,right,red,0.65,589.6927828788757,590.1049690246582,3,1,3,lightness,readingArea,realistic,75,2023-03-24_13h59.06.517,tripletExp_regina_11082022,2022.2.4,120.29506579324745,
11,5,3,0,1.0,1.0,0,1.0,0.298245614035088,0,0.444444444444444,0.298245614035088,ReadingArea_rsl0-rcl100-esl100-rsm0-rcm100-esm29-rsr0-rcr44-esr29,exr/ReadingArea_rsl0-rcl100-esl100-rsm0-rcm100-esm29-rsr0-rcr44-esr29.exr,ReadingArea_rsl0-rcl100-esl100-rsm0-rcm100-esm29-rsr0-rcr44-esr29.npz,,,,,0,203,203,172,,right,red,1.06,591.7985470294952,592.1876230239868,3,1,3,lightness,readingArea,realistic,75,2023-03-24_13h59.06.517,tripletExp_regina_11082022,2022.2.4,120.29506579324745,
