index_left,index_middle,index_right,reflectance_surround_left,reflectance_center_left,emission_spot_left,reflectance_surround_middle,reflectance_center_middle,emission_spot_middle,reflectance_surround_right,reflectance_center_right,emission_spot_right,ImageName,ImageExr,ImageNpy,trials_2.thisRepN,trials_2.thisTrialN,trials_2.thisN,trials_2.thisIndex,trials.thisRepN,trials.thisTrialN,trials.thisN,trials.thisIndex,sound_1.started,BB_Trial.resp,BB_Trial.color,BB_Trial.rt,text.started,text.stopped,sound_1.stopped,block,participant,session,L/B,scene,condition,nTrialsPerBlock,date,expName,psychopyVersion,frameRate,Unnamed: 41
3,6,10,2,0.444444444444444,0.298245614035088,2,0.027777777777778,1.0,2,0.694444444444444,1.0,ReadingArea_rsl2-rcl44-esl29-rsm2-rcm2-esm100-rsr2-rcr69-esr100,exr/ReadingArea_rsl2-rcl44-esl29-rsm2-rcm2-esm100-rsr2-rcr69-esr100.exr,ReadingArea_rsl2-rcl44-esl29-rsm2-rcm2-esm100-rsr2-rcr69-esr100.npz,,,,,0,0,0,138,142.16050169467923,left,green,1.38,149.69049096107483,150.18071103096008,81.15175819396973,1,3,8,lightness,readingArea,realistic,75,2023-03-18_16h08.28.545,tripletExp_regina_11082022,2022.2.4,120.2460938619879,
13,9,4,2,0.111111111111111,3.10526315789474,2,0.444444444444444,1.0,2,0.694444444444444,0.298245614035088,ReadingArea_rsl2-rcl11-esl310-rsm2-rcm44-esm100-rsr2-rcr69-esr29,exr/ReadingArea_rsl2-rcl11-esl310-rsm2-rcm44-esm100-rsr2-rcr69-esr29.exr,ReadingArea_rsl2-rcl11-esl310-rsm2-rcm44-esm100-rsr2-rcr69-esr29.npz,,,,,0,1,1,444,,right,red,3.29,153.68701219558716,154.1774001121521,,1,3,8,lightness,readingArea,realistic,75,2023-03-18_16h08.28.545,tripletExp_regina_11082022,2022.2.4,120.2460938619879,
9,0,8,2,0.444444444444444,1.0,2,0.027777777777778,0.298245614035088,2,0.25,1.0,ReadingArea_rsl2-rcl44-esl100-rsm2-rcm2-esm29-rsr2-rcr25-esr100,exr/ReadingArea_rsl2-rcl44-esl100-rsm2-rcm2-esm29-rsr2-rcr25-esr100.exr,ReadingArea_rsl2-rcl44-esl100-rsm2-rcm2-esm29-rsr2-rcr25-esr100.npz,,,,,0,2,2,27,,right,red,1.36,155.87399411201477,156.3230381011963,,1,3,8,lightness,readingArea,realistic,75,2023-03-18_16h08.28.545,tripletExp_regina_11082022,2022.2.4,120.2460938619879,
12,6,2,2,0.027777777777778,3.10526315789474,2,0.027777777777778,1.0,2,0.25,0.298245614035088,ReadingArea_rsl2-rcl2-esl310-rsm2-rcm2-esm100-rsr2-rcr25-esr29,exr/ReadingArea_rsl2-rcl2-esl310-rsm2-rcm2-esm100-rsr2-rcr25-esr29.exr,ReadingArea_rsl2-rcl2-esl310-rsm2-rcm2-esm100-rsr2-rcr25-esr29.npz,,,,,0,3,3,106,,left,green,0.91,158.01735615730286,158.62519812583923,,1,3,8,lightness,readingArea,realistic,75,2023-03-18_16h08.28.545,tripletExp_regina_11082022,2022.2.4,120.2460938619879,
5,14,11,2,1.0,0.298245614035088,2,0.25,3.10526315789474,2,1.0,1.0,ReadingArea_rsl2-rcl100-esl29-rsm2-rcm25-esm310-rsr2-rcr100-esr100,exr/ReadingArea_rsl2-rcl100-esl29-rsm2-rcm25-esm310-rsr2-rcr100-esr100.exr,ReadingArea_rsl2-rcl100-esl29-rsm2-rcm25-esm310-rsr2-rcr100-esr100.npz,,,,,0,4,4,98,,left,green,2.8,162.06883096694946,162.50395011901855,,1,3,8,lightness,readingArea,realistic,75,2023-03-18_16h08.28.545,tripletExp_regina_11082022,2022.2.4,120.2460938619879,
0,8,14,2,0.027777777777778,0.298245614035088,2,0.25,1.0,2,0.25,3.10526315789474,ReadingArea_rsl2-rcl2-esl29-rsm2-rcm25-esm100-rsr2-rcr25-esr310,exr/ReadingArea_rsl2-rcl2-esl29-rsm2-rcm25-esm100-rsr2-rcr25-esr310.exr,ReadingArea_rsl2-rcl2-esl29-rsm2-rcm25-esm100-rsr2-rcr25-esr310.npz,,,,,0,5,5,114,,right,red,0.8,164.19605612754822,164.8554470539093,,1,3,8,lightness,readingArea,realistic,75,2023-03-18_16h08.28.545,tripletExp_regina_11082022,2022.2.4,120.2460938619879,
4,6,3,2,0.694444444444444,0.298245614035088,2,0.027777777777778,1.0,2,0.444444444444444,0.298245614035088,ReadingArea_rsl2-rcl69-esl29-rsm2-rcm2-esm100-rsr2-rcr44-esr29,exr/ReadingArea_rsl2-rcl69-esl29-rsm2-rcm2-esm100-rsr2-rcr44-esr29.exr,ReadingArea_rsl2-rcl69-esl29-rsm2-rcm2-esm100-rsr2-rcr44-esr29.npz,,,,,0,6,6,344,,right,red,1.63,166.57514715194702,167.00363898277283,,1,3,8,lightness,readingArea,realistic,75,2023-03-18_16h08.28.545,tripletExp_regina_11082022,2022.2.4,120.2460938619879,
6,0,4,2,0.027777777777778,1.0,2,0.027777777777778,0.298245614035088,2,0.694444444444444,0.298245614035088,ReadingArea_rsl2-rcl2-esl100-rsm2-rcm2-esm29-rsr2-rcr69-esr29,exr/ReadingArea_rsl2-rcl2-esl100-rsm2-rcm2-esm29-rsr2-rcr69-esr29.exr,ReadingArea_rsl2-rcl2-esl100-rsm2-rcm2-esm29-rsr2-rcr69-esr29.npz,,,,,0,7,7,555,,left,green,0.87,168.69387817382812,169.14135313034058,,1,3,8,lightness,readingArea,realistic,75,2023-03-18_16h08.28.545,tripletExp_regina_11082022,2022.2.4,120.2460938619879,
9,4,14,2,0.444444444444444,1.0,2,0.694444444444444,0.298245614035088,2,0.25,3.10526315789474,ReadingArea_rsl2-rcl44-esl100-rsm2-rcm69-esm29-rsr2-rcr25-esr310,exr/ReadingArea_rsl2-rcl44-esl100-rsm2-rcm69-esm29-rsr2-rcr25-esr310.exr,ReadingArea_rsl2-rcl44-esl100-rsm2-rcm69-esm29-rsr2-rcr25-esr310.npz,,,,,0,8,8,104,,left,green,1.58,170.83505296707153,171.26291608810425,,1,3,8,lightness,readingArea,realistic,75,2023-03-18_16h08.28.545,tripletExp_regina_11082022,2022.2.4,120.2460938619879,
2,4,14,2,0.25,0.298245614035088,2,0.694444444444444,0.298245614035088,2,0.25,3.10526315789474,ReadingArea_rsl2-rcl25-esl29-rsm2-rcm69-esm29-rsr2-rcr25-esr310,exr/ReadingArea_rsl2-rcl25-esl29-rsm2-rcm69-esm29-rsr2-rcr25-esr310.exr,ReadingArea_rsl2-rcl25-esl29-rsm2-rcm69-esm29-rsr2-rcr25-esr310.npz,,,,,0,9,9,356,,right,red,3.6,174.72716403007507,175.27433800697327,,1,3,8,lightness,readingArea,realistic,75,2023-03-18_16h08.28.545,tripletExp_regina_11082022,2022.2.4,120.2460938619879,
2,5,14,2,0.25,0.298245614035088,2,1.0,0.298245614035088,2,0.25,3.10526315789474,ReadingArea_rsl2-rcl25-esl29-rsm2-rcm100-esm29-rsr2-rcr25-esr310,exr/ReadingArea_rsl2-rcl25-esl29-rsm2-rcm100-esm29-rsr2-rcr25-esr310.exr,ReadingArea_rsl2-rcl25-esl29-rsm2-rcm100-esm29-rsr2-rcr25-esr310.npz,,,,,0,10,10,390,,right,red,1.21,176.98016500473022,177.4121310710907,,1,3,8,lightness,readingArea,realistic,75,2023-03-18_16h08.28.545,tripletExp_regina_11082022,2022.2.4,120.2460938619879,
12,4,9,2,0.027777777777778,3.10526315789474,2,0.694444444444444,0.298245614035088,2,0.444444444444444,1.0,ReadingArea_rsl2-rcl2-esl310-rsm2-rcm69-esm29-rsr2-rcr44-esr100,exr/ReadingArea_rsl2-rcl2-esl310-rsm2-rcm69-esm29-rsr2-rcr44-esr100.exr,ReadingArea_rsl2-rcl2-esl310-rsm2-rcm69-esm29-rsr2-rcr44-esr100.npz,,,,,0,11,11,380,,right,red,0.87,179.12234210968018,179.53511714935303,,1,3,8,lightness,readingArea,realistic,75,2023-03-18_16h08.28.545,tripletExp_regina_11082022,2022.2.4,120.2460938619879,
0,9,6,2,0.027777777777778,0.298245614035088,2,0.444444444444444,1.0,2,0.027777777777778,1.0,ReadingArea_rsl2-rcl2-esl29-rsm2-rcm44-esm100-rsr2-rcr2-esr100,exr/ReadingArea_rsl2-rcl2-esl29-rsm2-rcm44-esm100-rsr2-rcr2-esr100.exr,ReadingArea_rsl2-rcl2-esl29-rsm2-rcm44-esm100-rsr2-rcr2-esr100.npz,,,,,0,12,12,365,,right,red,4.26,184.76601696014404,185.21183800697327,,1,3,8,lightness,readingArea,realistic,75,2023-03-18_16h08.28.545,tripletExp_regina_11082022,2022.2.4,120.2460938619879,
9,6,13,2,0.444444444444444,1.0,2,0.027777777777778,1.0,2,0.111111111111111,3.10526315789474,ReadingArea_rsl2-rcl44-esl100-rsm2-rcm2-esm100-rsr2-rcr11-esr310,exr/ReadingArea_rsl2-rcl44-esl100-rsm2-rcm2-esm100-rsr2-rcr11-esr310.exr,ReadingArea_rsl2-rcl44-esl100-rsm2-rcm2-esm100-rsr2-rcr11-esr310.npz,,,,,0,13,13,285,,right,red,2.66,188.68261909484863,189.14178919792167,,1,3,8,lightness,readingArea,realistic,75,2023-03-18_16h08.28.545,tripletExp_regina_11082022,2022.2.4,120.2460938619879,
4,1,13,2,0.694444444444444,0.298245614035088,2,0.111111111111111,0.298245614035088,2,0.111111111111111,3.10526315789474,ReadingArea_rsl2-rcl69-esl29-rsm2-rcm11-esm29-rsr2-rcr11-esr310,exr/ReadingArea_rsl2-rcl69-esl29-rsm2-rcm11-esm29-rsr2-rcr11-esr310.exr,ReadingArea_rsl2-rcl69-esl29-rsm2-rcm11-esm29-rsr2-rcr11-esr310.npz,,,,,0,14,14,565,,right,red,2.07,192.58743405342105,193.02419018745425,,1,3,8,lightness,readingArea,realistic,75,2023-03-18_16h08.28.545,tripletExp_regina_11082022,2022.2.4,120.2460938619879,
2,9,8,2,0.25,0.298245614035088,2,0.444444444444444,1.0,2,0.25,1.0,ReadingArea_rsl2-rcl25-esl29-rsm2-rcm44-esm100-rsr2-rcr25-esr100,exr/ReadingArea_rsl2-rcl25-esl29-rsm2-rcm44-esm100-rsr2-rcr25-esr100.exr,ReadingArea_rsl2-rcl25-esl29-rsm2-rcm44-esm100-rsr2-rcr25-esr100.npz,,,,,0,15,15,407,,right,red,0.94,194.74088215827945,195.17727208137512,,1,3,8,lightness,readingArea,realistic,75,2023-03-18_16h08.28.545,tripletExp_regina_11082022,2022.2.4,120.2460938619879,
9,13,0,2,0.444444444444444,1.0,2,0.111111111111111,3.10526315789474,2,0.027777777777778,0.298245614035088,ReadingArea_rsl2-rcl44-esl100-rsm2-rcm11-esm310-rsr2-rcr2-esr29,exr/ReadingArea_rsl2-rcl44-esl100-rsm2-rcm11-esm310-rsr2-rcr2-esr29.exr,ReadingArea_rsl2-rcl44-esl100-rsm2-rcm11-esm310-rsr2-rcr2-esr29.npz,,,,,0,16,16,205,,left,green,0.71,196.89498710632324,197.3343780040741,,1,3,8,lightness,readingArea,realistic,75,2023-03-18_16h08.28.545,tripletExp_regina_11082022,2022.2.4,120.2460938619879,
7,2,6,2,0.111111111111111,1.0,2,0.25,0.298245614035088,2,0.027777777777778,1.0,ReadingArea_rsl2-rcl11-esl100-rsm2-rcm25-esm29-rsr2-rcr2-esr100,exr/ReadingArea_rsl2-rcl11-esl100-rsm2-rcm25-esm29-rsr2-rcr2-esr100.exr,ReadingArea_rsl2-rcl11-esl100-rsm2-rcm25-esm29-rsr2-rcr2-esr100.npz,,,,,0,17,17,506,,left,green,0.79,199.0364661216736,199.4747560024261,,1,3,8,lightness,readingArea,realistic,75,2023-03-18_16h08.28.545,tripletExp_regina_11082022,2022.2.4,120.2460938619879,
10,11,13,2,0.694444444444444,1.0,2,1.0,1.0,2,0.111111111111111,3.10526315789474,ReadingArea_rsl2-rcl69-esl100-rsm2-rcm100-esm100-rsr2-rcr11-esr310,exr/ReadingArea_rsl2-rcl69-esl100-rsm2-rcm100-esm100-rsr2-rcr11-esr310.exr,ReadingArea_rsl2-rcl69-esl100-rsm2-rcm100-esm100-rsr2-rcr11-esr310.npz,,,,,0,18,18,79,,left,green,0.79,201.17282104492188,201.66736006736755,,1,3,8,lightness,readingArea,realistic,75,2023-03-18_16h08.28.545,tripletExp_regina_11082022,2022.2.4,120.2460938619879,
14,11,3,2,0.25,3.10526315789474,2,1.0,1.0,2,0.444444444444444,0.298245614035088,ReadingArea_rsl2-rcl25-esl310-rsm2-rcm100-esm100-rsr2-rcr44-esr29,exr/ReadingArea_rsl2-rcl25-esl310-rsm2-rcm100-esm100-rsr2-rcr44-esr29.exr,ReadingArea_rsl2-rcl25-esl310-rsm2-rcm100-esm100-rsr2-rcr44-esr29.npz,,,,,0,19,19,78,,left,green,0.71,203.3618221282959,203.7865760326385,,1,3,8,lightness,readingArea,realistic,75,2023-03-18_16h08.28.545,tripletExp_regina_11082022,2022.2.4,120.2460938619879,
10,3,0,2,0.694444444444444,1.0,2,0.444444444444444,0.298245614035088,2,0.027777777777778,0.298245614035088,ReadingArea_rsl2-rcl69-esl100-rsm2-rcm44-esm29-rsr2-rcr2-esr29,exr/ReadingArea_rsl2-rcl69-esl100-rsm2-rcm44-esm29-rsr2-rcr2-esr29.exr,ReadingArea_rsl2-rcl69-esl100-rsm2-rcm44-esm29-rsr2-rcr2-esr29.npz,,,,,0,20,20,203,,left,green,1.16,205.5025281906128,206.08381509780884,,1,3,8,lightness,readingArea,realistic,75,2023-03-18_16h08.28.545,tripletExp_regina_11082022,2022.2.4,120.2460938619879,
1,5,7,2,0.111111111111111,0.298245614035088,2,1.0,0.298245614035088,2,0.111111111111111,1.0,ReadingArea_rsl2-rcl11-esl29-rsm2-rcm100-esm29-rsr2-rcr11-esr100,exr/ReadingArea_rsl2-rcl11-esl29-rsm2-rcm100-esm29-rsr2-rcr11-esr100.exr,ReadingArea_rsl2-rcl11-esl29-rsm2-rcm100-esm29-rsr2-rcr11-esr100.npz,,,,,0,21,21,197,,right,red,1.06,207.79846906661987,208.2327721118927,,1,3,8,lightness,readingArea,realistic,75,2023-03-18_16h08.28.545,tripletExp_regina_11082022,2022.2.4,120.2460938619879,
14,10,5,2,0.25,3.10526315789474,2,0.694444444444444,1.0,2,1.0,0.298245614035088,ReadingArea_rsl2-rcl25-esl310-rsm2-rcm69-esm100-rsr2-rcr100-esr29,exr/ReadingArea_rsl2-rcl25-esl310-rsm2-rcm69-esm100-rsr2-rcr100-esr29.exr,ReadingArea_rsl2-rcl25-esl310-rsm2-rcm69-esm100-rsr2-rcr100-esr29.npz,,,,,0,22,22,96,,left,green,0.94,209.92972111701965,210.35759902000427,,1,3,8,lightness,readingArea,realistic,75,2023-03-18_16h08.28.545,tripletExp_regina_11082022,2022.2.4,120.2460938619879,
13,6,2,2,0.111111111111111,3.10526315789474,2,0.027777777777778,1.0,2,0.25,0.298245614035088,ReadingArea_rsl2-rcl11-esl310-rsm2-rcm2-esm100-rsr2-rcr25-esr29,exr/ReadingArea_rsl2-rcl11-esl310-rsm2-rcm2-esm100-rsr2-rcr25-esr29.exr,ReadingArea_rsl2-rcl11-esl310-rsm2-rcm2-esm100-rsr2-rcr25-esr29.npz,,,,,0,23,23,115,,right,red,1.18,212.0749039649964,212.6651721000672,,1,3,8,lightness,readingArea,realistic,75,2023-03-18_16h08.28.545,tripletExp_regina_11082022,2022.2.4,120.2460938619879,
0,5,12,2,0.027777777777778,0.298245614035088,2,1.0,0.298245614035088,2,0.027777777777778,3.10526315789474,ReadingArea_rsl2-rcl2-esl29-rsm2-rcm100-esm29-rsr2-rcr2-esr310,exr/ReadingArea_rsl2-rcl2-esl29-rsm2-rcm100-esm29-rsr2-rcr2-esr310.exr,ReadingArea_rsl2-rcl2-esl29-rsm2-rcm100-esm29-rsr2-rcr2-esr310.npz,,,,,0,24,24,366,,right,red,1.05,214.3587930202484,214.78944301605225,,1,3,8,lightness,readingArea,realistic,75,2023-03-18_16h08.28.545,tripletExp_regina_11082022,2022.2.4,120.2460938619879,
13,0,10,2,0.111111111111111,3.10526315789474,2,0.027777777777778,0.298245614035088,2,0.694444444444444,1.0,ReadingArea_rsl2-rcl11-esl310-rsm2-rcm2-esm29-rsr2-rcr69-esr100,exr/ReadingArea_rsl2-rcl11-esl310-rsm2-rcm2-esm29-rsr2-rcr69-esr100.exr,ReadingArea_rsl2-rcl11-esl310-rsm2-rcm2-esm29-rsr2-rcr69-esr100.npz,,,,,0,25,25,505,,left,green,1.21,216.5087480545044,216.9379529953003,,1,3,8,lightness,readingArea,realistic,75,2023-03-18_16h08.28.545,tripletExp_regina_11082022,2022.2.4,120.2460938619879,
4,3,9,2,0.694444444444444,0.298245614035088,2,0.444444444444444,0.298245614035088,2,0.444444444444444,1.0,ReadingArea_rsl2-rcl69-esl29-rsm2-rcm44-esm29-rsr2-rcr44-esr100,exr/ReadingArea_rsl2-rcl69-esl29-rsm2-rcm44-esm29-rsr2-rcr44-esr100.exr,ReadingArea_rsl2-rcl69-esl29-rsm2-rcm44-esm29-rsr2-rcr44-esr100.npz,,,,,0,26,26,451,,left,green,0.79,218.65682315826416,219.0978651046753,,1,3,8,lightness,readingArea,realistic,75,2023-03-18_16h08.28.545,tripletExp_regina_11082022,2022.2.4,120.2460938619879,
7,14,10,2,0.111111111111111,1.0,2,0.25,3.10526315789474,2,0.694444444444444,1.0,ReadingArea_rsl2-rcl11-esl100-rsm2-rcm25-esm310-rsr2-rcr69-esr100,exr/ReadingArea_rsl2-rcl11-esl100-rsm2-rcm25-esm310-rsr2-rcr69-esr100.exr,ReadingArea_rsl2-rcl11-esl100-rsm2-rcm25-esm310-rsr2-rcr69-esr100.npz,,,,,0,27,27,472,,right,red,0.8,220.81957912445068,221.2511250972748,,1,3,8,lightness,readingArea,realistic,75,2023-03-18_16h08.28.545,tripletExp_regina_11082022,2022.2.4,120.2460938619879,
8,10,7,2,0.25,1.0,2,0.694444444444444,1.0,2,0.111111111111111,1.0,ReadingArea_rsl2-rcl25-esl100-rsm2-rcm69-esm100-rsr2-rcr11-esr100,exr/ReadingArea_rsl2-rcl25-esl100-rsm2-rcm69-esm100-rsr2-rcr11-esr100.exr,ReadingArea_rsl2-rcl25-esl100-rsm2-rcm69-esm100-rsr2-rcr11-esr100.npz,,,,,0,28,28,424,,left,green,1.19,222.94280409812927,223.46475315094,,1,3,8,lightness,readingArea,realistic,75,2023-03-18_16h08.28.545,tripletExp_regina_11082022,2022.2.4,120.2460938619879,
1,5,13,2,0.111111111111111,0.298245614035088,2,1.0,0.298245614035088,2,0.111111111111111,3.10526315789474,ReadingArea_rsl2-rcl11-esl29-rsm2-rcm100-esm29-rsr2-rcr11-esr310,exr/ReadingArea_rsl2-rcl11-esl29-rsm2-rcm100-esm29-rsr2-rcr11-esr310.exr,ReadingArea_rsl2-rcl11-esl29-rsm2-rcm100-esm29-rsr2-rcr11-esr310.npz,,,,,0,29,29,598,,right,red,0.75,225.16665410995483,225.6110501289368,,1,3,8,lightness,readingArea,realistic,75,2023-03-18_16h08.28.545,tripletExp_regina_11082022,2022.2.4,120.2460938619879,
12,10,9,2,0.027777777777778,3.10526315789474,2,0.694444444444444,1.0,2,0.444444444444444,1.0,ReadingArea_rsl2-rcl2-esl310-rsm2-rcm69-esm100-rsr2-rcr44-esr100,exr/ReadingArea_rsl2-rcl2-esl310-rsm2-rcm69-esm100-rsr2-rcr44-esr100.exr,ReadingArea_rsl2-rcl2-esl310-rsm2-rcm69-esm100-rsr2-rcr44-esr100.npz,,,,,0,30,30,126,,right,red,0.71,227.3068680763245,,,1,3,8,lightness,readingArea,realistic,75,2023-03-18_16h08.28.545,tripletExp_regina_11082022,2022.2.4,120.2460938619879,
12,6,7,2,0.027777777777778,3.10526315789474,2,0.027777777777778,1.0,2,0.111111111111111,1.0,ReadingArea_rsl2-rcl2-esl310-rsm2-rcm2-esm100-rsr2-rcr11-esr100,exr/ReadingArea_rsl2-rcl2-esl310-rsm2-rcm2-esm100-rsr2-rcr11-esr100.exr,ReadingArea_rsl2-rcl2-esl310-rsm2-rcm2-esm100-rsr2-rcr11-esr100.npz,,,,,0,31,31,308,,left,green,1.34,229.4240679740905,229.843679189682,,1,3,8,lightness,readingArea,realistic,75,2023-03-18_16h08.28.545,tripletExp_regina_11082022,2022.2.4,120.2460938619879,
10,4,9,2,0.694444444444444,1.0,2,0.694444444444444,0.298245614035088,2,0.444444444444444,1.0,ReadingArea_rsl2-rcl69-esl100-rsm2-rcm69-esm29-rsr2-rcr44-esr100,exr/ReadingArea_rsl2-rcl69-esl100-rsm2-rcm69-esm29-rsr2-rcr44-esr100.exr,ReadingArea_rsl2-rcl69-esl100-rsm2-rcm69-esm29-rsr2-rcr44-esr100.npz,,,,,0,32,32,452,,right,red,1.36,231.53557109832764,231.96854901313785,,1,3,8,lightness,readingArea,realistic,75,2023-03-18_16h08.28.545,tripletExp_regina_11082022,2022.2.4,120.2460938619879,
10,7,13,2,0.694444444444444,1.0,2,0.111111111111111,1.0,2,0.111111111111111,3.10526315789474,ReadingArea_rsl2-rcl69-esl100-rsm2-rcm11-esm100-rsr2-rcr11-esr310,exr/ReadingArea_rsl2-rcl69-esl100-rsm2-rcm11-esm100-rsr2-rcr11-esr310.exr,ReadingArea_rsl2-rcl69-esl100-rsm2-rcm11-esm100-rsr2-rcr11-esr310.npz,,,,,0,33,33,379,,right,red,1.01,233.67018604278564,234.09523797035217,,1,3,8,lightness,readingArea,realistic,75,2023-03-18_16h08.28.545,tripletExp_regina_11082022,2022.2.4,120.2460938619879,
6,12,8,2,0.027777777777778,1.0,2,0.027777777777778,3.10526315789474,2,0.25,1.0,ReadingArea_rsl2-rcl2-esl100-rsm2-rcm2-esm310-rsr2-rcr25-esr100,exr/ReadingArea_rsl2-rcl2-esl100-rsm2-rcm2-esm310-rsr2-rcr25-esr100.exr,ReadingArea_rsl2-rcl2-esl100-rsm2-rcm2-esm310-rsr2-rcr25-esr100.npz,,,,,0,34,34,186,,left,green,0.91,235.7880980968476,236.21659111976624,,1,3,8,lightness,readingArea,realistic,75,2023-03-18_16h08.28.545,tripletExp_regina_11082022,2022.2.4,120.2460938619879,
12,13,10,2,0.027777777777778,3.10526315789474,2,0.111111111111111,3.10526315789474,2,0.694444444444444,1.0,ReadingArea_rsl2-rcl2-esl310-rsm2-rcm11-esm310-rsr2-rcr69-esr100,exr/ReadingArea_rsl2-rcl2-esl310-rsm2-rcm11-esm310-rsr2-rcr69-esr100.exr,ReadingArea_rsl2-rcl2-esl310-rsm2-rcm11-esm310-rsr2-rcr69-esr100.npz,,,,,0,35,35,295,,left,green,1.03,237.92136812210083,238.3779940605164,,1,3,8,lightness,readingArea,realistic,75,2023-03-18_16h08.28.545,tripletExp_regina_11082022,2022.2.4,120.2460938619879,
11,8,2,2,1.0,1.0,2,0.25,1.0,2,0.25,0.298245614035088,ReadingArea_rsl2-rcl100-esl100-rsm2-rcm25-esm100-rsr2-rcr25-esr29,exr/ReadingArea_rsl2-rcl100-esl100-rsm2-rcm25-esm100-rsr2-rcr25-esr29.exr,ReadingArea_rsl2-rcl100-esl100-rsm2-rcm25-esm100-rsr2-rcr25-esr29.npz,,,,,0,36,36,406,,right,red,1.01,240.06885504722595,240.4965941905976,,1,3,8,lightness,readingArea,realistic,75,2023-03-18_16h08.28.545,tripletExp_regina_11082022,2022.2.4,120.2460938619879,
14,1,13,2,0.25,3.10526315789474,2,0.111111111111111,0.298245614035088,2,0.111111111111111,3.10526315789474,ReadingArea_rsl2-rcl25-esl310-rsm2-rcm11-esm29-rsr2-rcr11-esr310,exr/ReadingArea_rsl2-rcl25-esl310-rsm2-rcm11-esm29-rsr2-rcr11-esr310.exr,ReadingArea_rsl2-rcl25-esl310-rsm2-rcm11-esm29-rsr2-rcr11-esr310.npz,,,,,0,37,37,265,,right,red,1.12,242.21154117584229,242.70981001853943,,1,3,8,lightness,readingArea,realistic,75,2023-03-18_16h08.28.545,tripletExp_regina_11082022,2022.2.4,120.2460938619879,
4,14,12,2,0.694444444444444,0.298245614035088,2,0.25,3.10526315789474,2,0.027777777777778,3.10526315789474,ReadingArea_rsl2-rcl69-esl29-rsm2-rcm25-esm310-rsr2-rcr2-esr310,exr/ReadingArea_rsl2-rcl69-esl29-rsm2-rcm25-esm310-rsr2-rcr2-esr310.exr,ReadingArea_rsl2-rcl69-esl29-rsm2-rcm25-esm310-rsr2-rcr2-esr310.npz,,,,,0,38,38,392,,left,green,0.93,244.40315914154053,244.8429040908813,,1,3,8,lightness,readingArea,realistic,75,2023-03-18_16h08.28.545,tripletExp_regina_11082022,2022.2.4,120.2460938619879,
10,11,0,2,0.694444444444444,1.0,2,1.0,1.0,2,0.027777777777778,0.298245614035088,ReadingArea_rsl2-rcl69-esl100-rsm2-rcm100-esm100-rsr2-rcr2-esr29,exr/ReadingArea_rsl2-rcl69-esl100-rsm2-rcm100-esm100-rsr2-rcr2-esr29.exr,ReadingArea_rsl2-rcl69-esl100-rsm2-rcm100-esm100-rsr2-rcr2-esr29.npz,,,,,0,39,39,58,,left,green,0.68,246.5415480136872,246.9492859840393,,1,3,8,lightness,readingArea,realistic,75,2023-03-18_16h08.28.545,tripletExp_regina_11082022,2022.2.4,120.2460938619879,
4,11,14,2,0.694444444444444,0.298245614035088,2,1.0,1.0,2,0.25,3.10526315789474,ReadingArea_rsl2-rcl69-esl29-rsm2-rcm100-esm100-rsr2-rcr25-esr310,exr/ReadingArea_rsl2-rcl69-esl29-rsm2-rcm100-esm100-rsr2-rcr25-esr310.exr,ReadingArea_rsl2-rcl69-esl29-rsm2-rcm100-esm100-rsr2-rcr25-esr310.npz,,,,,0,40,40,165,,right,red,0.84,248.6450731754303,249.28706312179563,,1,3,8,lightness,readingArea,realistic,75,2023-03-18_16h08.28.545,tripletExp_regina_11082022,2022.2.4,120.2460938619879,
12,6,3,2,0.027777777777778,3.10526315789474,2,0.027777777777778,1.0,2,0.444444444444444,0.298245614035088,ReadingArea_rsl2-rcl2-esl310-rsm2-rcm2-esm100-rsr2-rcr44-esr29,exr/ReadingArea_rsl2-rcl2-esl310-rsm2-rcm2-esm100-rsr2-rcr44-esr29.exr,ReadingArea_rsl2-rcl2-esl310-rsm2-rcm2-esm100-rsr2-rcr44-esr29.npz,,,,,0,41,41,139,,left,green,1.1,250.9941689968109,251.43234014511108,,1,3,8,lightness,readingArea,realistic,75,2023-03-18_16h08.28.545,tripletExp_regina_11082022,2022.2.4,120.2460938619879,
7,10,4,2,0.111111111111111,1.0,2,0.694444444444444,1.0,2,0.694444444444444,0.298245614035088,ReadingArea_rsl2-rcl11-esl100-rsm2-rcm69-esm100-rsr2-rcr69-esr29,exr/ReadingArea_rsl2-rcl11-esl100-rsm2-rcm69-esm100-rsr2-rcr69-esr29.exr,ReadingArea_rsl2-rcl11-esl100-rsm2-rcm69-esm100-rsr2-rcr69-esr29.npz,,,,,0,42,42,46,,right,red,1.07,253.1528341770172,,,1,3,8,lightness,readingArea,realistic,75,2023-03-18_16h08.28.545,tripletExp_regina_11082022,2022.2.4,120.2460938619879,
10,5,13,2,0.694444444444444,1.0,2,1.0,0.298245614035088,2,0.111111111111111,3.10526315789474,ReadingArea_rsl2-rcl69-esl100-rsm2-rcm100-esm29-rsr2-rcr11-esr310,exr/ReadingArea_rsl2-rcl69-esl100-rsm2-rcm100-esm29-rsr2-rcr11-esr310.exr,ReadingArea_rsl2-rcl69-esl100-rsm2-rcm100-esm29-rsr2-rcr11-esr310.npz,,,,,0,43,43,478,,right,red,1.56,255.30418515205383,255.77304410934448,,1,3,8,lightness,readingArea,realistic,75,2023-03-18_16h08.28.545,tripletExp_regina_11082022,2022.2.4,120.2460938619879,
3,2,8,2,0.444444444444444,0.298245614035088,2,0.25,0.298245614035088,2,0.25,1.0,ReadingArea_rsl2-rcl44-esl29-rsm2-rcm25-esm29-rsr2-rcr25-esr100,exr/ReadingArea_rsl2-rcl44-esl29-rsm2-rcm25-esm29-rsr2-rcr25-esr100.exr,ReadingArea_rsl2-rcl44-esl29-rsm2-rcm25-esm29-rsr2-rcr25-esr100.npz,,,,,0,44,44,181,,left,green,1.51,257.4880940914154,257.9206590652466,,1,3,8,lightness,readingArea,realistic,75,2023-03-18_16h08.28.545,tripletExp_regina_11082022,2022.2.4,120.2460938619879,
6,7,3,2,0.027777777777778,1.0,2,0.111111111111111,1.0,2,0.444444444444444,0.298245614035088,ReadingArea_rsl2-rcl2-esl100-rsm2-rcm11-esm100-rsr2-rcr44-esr29,exr/ReadingArea_rsl2-rcl2-esl100-rsm2-rcm11-esm100-rsr2-rcr44-esr29.exr,ReadingArea_rsl2-rcl2-esl100-rsm2-rcm11-esm100-rsr2-rcr44-esr29.npz,,,,,0,45,45,47,,right,red,1.16,259.6182050704956,260.160569190979,,1,3,8,lightness,readingArea,realistic,75,2023-03-18_16h08.28.545,tripletExp_regina_11082022,2022.2.4,120.2460938619879,
12,7,9,2,0.027777777777778,3.10526315789474,2,0.111111111111111,1.0,2,0.444444444444444,1.0,ReadingArea_rsl2-rcl2-esl310-rsm2-rcm11-esm100-rsr2-rcr44-esr100,exr/ReadingArea_rsl2-rcl2-esl310-rsm2-rcm11-esm100-rsr2-rcr44-esr100.exr,ReadingArea_rsl2-rcl2-esl310-rsm2-rcm11-esm100-rsr2-rcr44-esr100.npz,,,,,0,46,46,124,,left,green,1.06,261.8665771484375,262.3067150115967,,1,3,8,lightness,readingArea,realistic,75,2023-03-18_16h08.28.545,tripletExp_regina_11082022,2022.2.4,120.2460938619879,
8,3,12,2,0.25,1.0,2,0.444444444444444,0.298245614035088,2,0.027777777777778,3.10526315789474,ReadingArea_rsl2-rcl25-esl100-rsm2-rcm44-esm29-rsr2-rcr2-esr310,exr/ReadingArea_rsl2-rcl25-esl100-rsm2-rcm44-esm29-rsr2-rcr2-esr310.exr,ReadingArea_rsl2-rcl25-esl100-rsm2-rcm44-esm29-rsr2-rcr2-esr310.npz,,,,,0,47,47,22,,right,red,3.2,265.78753209114075,,,1,3,8,lightness,readingArea,realistic,75,2023-03-18_16h08.28.545,tripletExp_regina_11082022,2022.2.4,120.2460938619879,
14,3,6,2,0.25,3.10526315789474,2,0.444444444444444,0.298245614035088,2,0.027777777777778,1.0,ReadingArea_rsl2-rcl25-esl310-rsm2-rcm44-esm29-rsr2-rcr2-esr100,exr/ReadingArea_rsl2-rcl25-esl310-rsm2-rcm44-esm29-rsr2-rcr2-esr100.exr,ReadingArea_rsl2-rcl25-esl310-rsm2-rcm44-esm29-rsr2-rcr2-esr100.npz,,,,,0,48,48,244,,left,green,0.88,268.032772064209,268.47486209869385,,1,3,8,lightness,readingArea,realistic,75,2023-03-18_16h08.28.545,tripletExp_regina_11082022,2022.2.4,120.2460938619879,
0,5,11,2,0.027777777777778,0.298245614035088,2,1.0,0.298245614035088,2,1.0,1.0,ReadingArea_rsl2-rcl2-esl29-rsm2-rcm100-esm29-rsr2-rcr100-esr100,exr/ReadingArea_rsl2-rcl2-esl29-rsm2-rcm100-esm29-rsr2-rcr100-esr100.exr,ReadingArea_rsl2-rcl2-esl29-rsm2-rcm100-esm29-rsr2-rcr100-esr100.npz,,,,,0,49,49,422,,right,red,0.93,270.1685981750488,270.6300811767578,,1,3,8,lightness,readingArea,realistic,75,2023-03-18_16h08.28.545,tripletExp_regina_11082022,2022.2.4,120.2460938619879,
9,12,11,2,0.444444444444444,1.0,2,0.027777777777778,3.10526315789474,2,1.0,1.0,ReadingArea_rsl2-rcl44-esl100-rsm2-rcm2-esm310-rsr2-rcr100-esr100,exr/ReadingArea_rsl2-rcl44-esl100-rsm2-rcm2-esm310-rsr2-rcr100-esr100.exr,ReadingArea_rsl2-rcl44-esl100-rsm2-rcm2-esm310-rsr2-rcr100-esr100.npz,,,,,0,50,50,144,,left,green,1.1,272.31948709487915,272.7561581134796,,1,3,8,lightness,readingArea,realistic,75,2023-03-18_16h08.28.545,tripletExp_regina_11082022,2022.2.4,120.2460938619879,
9,11,2,2,0.444444444444444,1.0,2,1.0,1.0,2,0.25,0.298245614035088,ReadingArea_rsl2-rcl44-esl100-rsm2-rcm100-esm100-rsr2-rcr25-esr29,exr/ReadingArea_rsl2-rcl44-esl100-rsm2-rcm100-esm100-rsr2-rcr25-esr29.exr,ReadingArea_rsl2-rcl44-esl100-rsm2-rcm100-esm100-rsr2-rcr25-esr29.npz,,,,,0,51,51,329,,left,green,2.64,276.2432191371918,276.67641711235046,,1,3,8,lightness,readingArea,realistic,75,2023-03-18_16h08.28.545,tripletExp_regina_11082022,2022.2.4,120.2460938619879,
8,12,4,2,0.25,1.0,2,0.027777777777778,3.10526315789474,2,0.694444444444444,0.298245614035088,ReadingArea_rsl2-rcl25-esl100-rsm2-rcm2-esm310-rsr2-rcr69-esr29,exr/ReadingArea_rsl2-rcl25-esl100-rsm2-rcm2-esm310-rsr2-rcr69-esr29.exr,ReadingArea_rsl2-rcl25-esl100-rsm2-rcm2-esm310-rsr2-rcr69-esr29.npz,,,,,0,52,52,30,,left,green,1.39,278.3952341079712,278.83123207092285,,1,3,8,lightness,readingArea,realistic,75,2023-03-18_16h08.28.545,tripletExp_regina_11082022,2022.2.4,120.2460938619879,
5,3,0,2,1.0,0.298245614035088,2,0.444444444444444,0.298245614035088,2,0.027777777777778,0.298245614035088,ReadingArea_rsl2-rcl100-esl29-rsm2-rcm44-esm29-rsr2-rcr2-esr29,exr/ReadingArea_rsl2-rcl100-esl29-rsm2-rcm44-esm29-rsr2-rcr2-esr29.exr,ReadingArea_rsl2-rcl100-esl29-rsm2-rcm44-esm29-rsr2-rcr2-esr29.npz,,,,,0,53,53,303,,left,green,1.28,280.539626121521,280.9662489891052,,1,3,8,lightness,readingArea,realistic,75,2023-03-18_16h08.28.545,tripletExp_regina_11082022,2022.2.4,120.2460938619879,
8,13,3,2,0.25,1.0,2,0.111111111111111,3.10526315789474,2,0.444444444444444,0.298245614035088,ReadingArea_rsl2-rcl25-esl100-rsm2-rcm11-esm310-rsr2-rcr44-esr29,exr/ReadingArea_rsl2-rcl25-esl100-rsm2-rcm11-esm310-rsr2-rcr44-esr29.exr,ReadingArea_rsl2-rcl25-esl100-rsm2-rcm11-esm310-rsr2-rcr44-esr29.npz,,,,,0,54,54,553,,left,green,3.51,284.4337890148163,284.90358114242554,,1,3,8,lightness,readingArea,realistic,75,2023-03-18_16h08.28.545,tripletExp_regina_11082022,2022.2.4,120.2460938619879,
9,11,10,2,0.444444444444444,1.0,2,1.0,1.0,2,0.694444444444444,1.0,ReadingArea_rsl2-rcl44-esl100-rsm2-rcm100-esm100-rsr2-rcr69-esr100,exr/ReadingArea_rsl2-rcl44-esl100-rsm2-rcm100-esm100-rsr2-rcr69-esr100.exr,ReadingArea_rsl2-rcl44-esl100-rsm2-rcm100-esm100-rsr2-rcr69-esr100.npz,,,,,0,55,55,591,,right,red,1.03,286.604278087616,287.06617999076843,,1,3,8,lightness,readingArea,realistic,75,2023-03-18_16h08.28.545,tripletExp_regina_11082022,2022.2.4,120.2460938619879,
4,5,1,2,0.694444444444444,0.298245614035088,2,1.0,0.298245614035088,2,0.111111111111111,0.298245614035088,ReadingArea_rsl2-rcl69-esl29-rsm2-rcm100-esm29-rsr2-rcr11-esr29,exr/ReadingArea_rsl2-rcl69-esl29-rsm2-rcm100-esm29-rsr2-rcr11-esr29.exr,ReadingArea_rsl2-rcl69-esl29-rsm2-rcm100-esm29-rsr2-rcr11-esr29.npz,,,,,0,56,56,240,,left,green,0.81,288.77214002609253,289.19758915901184,,1,3,8,lightness,readingArea,realistic,75,2023-03-18_16h08.28.545,tripletExp_regina_11082022,2022.2.4,120.2460938619879,
7,12,3,2,0.111111111111111,1.0,2,0.027777777777778,3.10526315789474,2,0.444444444444444,0.298245614035088,ReadingArea_rsl2-rcl11-esl100-rsm2-rcm2-esm310-rsr2-rcr44-esr29,exr/ReadingArea_rsl2-rcl11-esl100-rsm2-rcm2-esm310-rsr2-rcr44-esr29.exr,ReadingArea_rsl2-rcl11-esl100-rsm2-rcm2-esm310-rsr2-rcr44-esr29.npz,,,,,0,57,57,584,,left,green,2.98,292.68452310562134,293.1192481517792,,1,3,8,lightness,readingArea,realistic,75,2023-03-18_16h08.28.545,tripletExp_regina_11082022,2022.2.4,120.2460938619879,
1,0,4,2,0.111111111111111,0.298245614035088,2,0.027777777777778,0.298245614035088,2,0.694444444444444,0.298245614035088,ReadingArea_rsl2-rcl11-esl29-rsm2-rcm2-esm29-rsr2-rcr69-esr29,exr/ReadingArea_rsl2-rcl11-esl29-rsm2-rcm2-esm29-rsr2-rcr69-esr29.exr,ReadingArea_rsl2-rcl11-esl29-rsm2-rcm2-esm29-rsr2-rcr69-esr29.npz,,,,,0,58,58,494,,left,green,1.77,294.8342399597168,295.4341630935669,,1,3,8,lightness,readingArea,realistic,75,2023-03-18_16h08.28.545,tripletExp_regina_11082022,2022.2.4,120.2460938619879,
2,6,0,2,0.25,0.298245614035088,2,0.027777777777778,1.0,2,0.027777777777778,0.298245614035088,ReadingArea_rsl2-rcl25-esl29-rsm2-rcm2-esm100-rsr2-rcr2-esr29,exr/ReadingArea_rsl2-rcl25-esl29-rsm2-rcm2-esm100-rsr2-rcr2-esr29.exr,ReadingArea_rsl2-rcl25-esl29-rsm2-rcm2-esm100-rsr2-rcr2-esr29.npz,,,,,0,59,59,525,,right,red,1.22,297.11673498153687,297.5775580406189,,1,3,8,lightness,readingArea,realistic,75,2023-03-18_16h08.28.545,tripletExp_regina_11082022,2022.2.4,120.2460938619879,
11,5,1,2,1.0,1.0,2,1.0,0.298245614035088,2,0.111111111111111,0.298245614035088,ReadingArea_rsl2-rcl100-esl100-rsm2-rcm100-esm29-rsr2-rcr11-esr29,exr/ReadingArea_rsl2-rcl100-esl100-rsm2-rcm100-esm29-rsr2-rcr11-esr29.exr,ReadingArea_rsl2-rcl100-esl100-rsm2-rcm100-esm29-rsr2-rcr11-esr29.npz,,,,,0,60,60,48,,left,green,1.04,299.2676520347595,,,1,3,8,lightness,readingArea,realistic,75,2023-03-18_16h08.28.545,tripletExp_regina_11082022,2022.2.4,120.2460938619879,
8,6,13,2,0.25,1.0,2,0.027777777777778,1.0,2,0.111111111111111,3.10526315789474,ReadingArea_rsl2-rcl25-esl100-rsm2-rcm2-esm100-rsr2-rcr11-esr310,exr/ReadingArea_rsl2-rcl25-esl100-rsm2-rcm2-esm100-rsr2-rcr11-esr310.exr,ReadingArea_rsl2-rcl25-esl100-rsm2-rcm2-esm100-rsr2-rcr11-esr310.npz,,,,,0,61,61,440,,left,green,1.47,301.4135980606079,301.86088514328003,,1,3,8,lightness,readingArea,realistic,75,2023-03-18_16h08.28.545,tripletExp_regina_11082022,2022.2.4,120.2460938619879,
1,14,5,2,0.111111111111111,0.298245614035088,2,0.25,3.10526315789474,2,1.0,0.298245614035088,ReadingArea_rsl2-rcl11-esl29-rsm2-rcm25-esm310-rsr2-rcr100-esr29,exr/ReadingArea_rsl2-rcl11-esl29-rsm2-rcm25-esm310-rsr2-rcr100-esr29.exr,ReadingArea_rsl2-rcl11-esl29-rsm2-rcm25-esm310-rsr2-rcr100-esr29.npz,,,,,0,62,62,509,,right,red,1.38,303.56458497047424,304.16821908950806,,1,3,8,lightness,readingArea,realistic,75,2023-03-18_16h08.28.545,tripletExp_regina_11082022,2022.2.4,120.2460938619879,
5,3,2,2,1.0,0.298245614035088,2,0.444444444444444,0.298245614035088,2,0.25,0.298245614035088,ReadingArea_rsl2-rcl100-esl29-rsm2-rcm44-esm29-rsr2-rcr25-esr29,exr/ReadingArea_rsl2-rcl100-esl29-rsm2-rcm44-esm29-rsr2-rcr25-esr29.exr,ReadingArea_rsl2-rcl100-esl29-rsm2-rcm44-esm29-rsr2-rcr25-esr29.npz,,,,,0,63,63,143,,left,green,3.11,307.6385781764984,308.10065507888794,,1,3,8,lightness,readingArea,realistic,75,2023-03-18_16h08.28.545,tripletExp_regina_11082022,2022.2.4,120.2460938619879,
9,0,6,2,0.444444444444444,1.0,2,0.027777777777778,0.298245614035088,2,0.027777777777778,1.0,ReadingArea_rsl2-rcl44-esl100-rsm2-rcm2-esm29-rsr2-rcr2-esr100,exr/ReadingArea_rsl2-rcl44-esl100-rsm2-rcm2-esm29-rsr2-rcr2-esr100.exr,ReadingArea_rsl2-rcl44-esl100-rsm2-rcm2-esm29-rsr2-rcr2-esr100.npz,,,,,0,64,64,362,,right,red,0.97,309.8226001262665,310.26403403282166,,1,3,8,lightness,readingArea,realistic,75,2023-03-18_16h08.28.545,tripletExp_regina_11082022,2022.2.4,120.2460938619879,
4,10,9,2,0.694444444444444,0.298245614035088,2,0.694444444444444,1.0,2,0.444444444444444,1.0,ReadingArea_rsl2-rcl69-esl29-rsm2-rcm69-esm100-rsr2-rcr44-esr100,exr/ReadingArea_rsl2-rcl69-esl29-rsm2-rcm69-esm100-rsr2-rcr44-esr100.exr,ReadingArea_rsl2-rcl69-esl29-rsm2-rcm69-esm100-rsr2-rcr44-esr100.npz,,,,,0,65,65,516,,right,red,1.41,311.9576561450958,312.3768241405487,,1,3,8,lightness,readingArea,realistic,75,2023-03-18_16h08.28.545,tripletExp_regina_11082022,2022.2.4,120.2460938619879,
0,5,1,2,0.027777777777778,0.298245614035088,2,1.0,0.298245614035088,2,0.111111111111111,0.298245614035088,ReadingArea_rsl2-rcl2-esl29-rsm2-rcm100-esm29-rsr2-rcr11-esr29,exr/ReadingArea_rsl2-rcl2-esl29-rsm2-rcm100-esm29-rsr2-rcr11-esr29.exr,ReadingArea_rsl2-rcl2-esl29-rsm2-rcm100-esm29-rsr2-rcr11-esr29.npz,,,,,0,66,66,367,,right,red,2.84,315.8447680473328,316.3490991592407,,1,3,8,lightness,readingArea,realistic,75,2023-03-18_16h08.28.545,tripletExp_regina_11082022,2022.2.4,120.2460938619879,
6,4,0,2,0.027777777777778,1.0,2,0.694444444444444,0.298245614035088,2,0.027777777777778,0.298245614035088,ReadingArea_rsl2-rcl2-esl100-rsm2-rcm69-esm29-rsr2-rcr2-esr29,exr/ReadingArea_rsl2-rcl2-esl100-rsm2-rcm69-esm29-rsr2-rcr2-esr29.exr,ReadingArea_rsl2-rcl2-esl100-rsm2-rcm69-esm29-rsr2-rcr2-esr29.npz,,,,,0,67,67,360,,left,green,3.18,319.80723905563354,320.2444350719452,,1,3,8,lightness,readingArea,realistic,75,2023-03-18_16h08.28.545,tripletExp_regina_11082022,2022.2.4,120.2460938619879,
11,7,9,2,1.0,1.0,2,0.111111111111111,1.0,2,0.444444444444444,1.0,ReadingArea_rsl2-rcl100-esl100-rsm2-rcm11-esm100-rsr2-rcr44-esr100,exr/ReadingArea_rsl2-rcl100-esl100-rsm2-rcm11-esm100-rsr2-rcr44-esr100.exr,ReadingArea_rsl2-rcl100-esl100-rsm2-rcm11-esm100-rsr2-rcr44-esr100.npz,,,,,0,68,68,521,,right,red,1.57,321.95032596588135,322.42322516441345,,1,3,8,lightness,readingArea,realistic,75,2023-03-18_16h08.28.545,tripletExp_regina_11082022,2022.2.4,120.2460938619879,
2,14,9,2,0.25,0.298245614035088,2,0.25,3.10526315789474,2,0.444444444444444,1.0,ReadingArea_rsl2-rcl25-esl29-rsm2-rcm25-esm310-rsr2-rcr44-esr100,exr/ReadingArea_rsl2-rcl25-esl29-rsm2-rcm25-esm310-rsr2-rcr44-esr100.exr,ReadingArea_rsl2-rcl25-esl29-rsm2-rcm25-esm310-rsr2-rcr44-esr100.npz,,,,,0,69,69,51,,right,red,1.45,324.12149119377136,,,1,3,8,lightness,readingArea,realistic,75,2023-03-18_16h08.28.545,tripletExp_regina_11082022,2022.2.4,120.2460938619879,
4,0,3,2,0.694444444444444,0.298245614035088,2,0.027777777777778,0.298245614035088,2,0.444444444444444,0.298245614035088,ReadingArea_rsl2-rcl69-esl29-rsm2-rcm2-esm29-rsr2-rcr44-esr29,exr/ReadingArea_rsl2-rcl69-esl29-rsm2-rcm2-esm29-rsr2-rcr44-esr29.exr,ReadingArea_rsl2-rcl69-esl29-rsm2-rcm2-esm29-rsr2-rcr44-esr29.npz,,,,,0,70,70,88,,right,red,2.89,328.02357506752014,328.47650504112244,,1,3,8,lightness,readingArea,realistic,75,2023-03-18_16h08.28.545,tripletExp_regina_11082022,2022.2.4,120.2460938619879,
7,13,5,2,0.111111111111111,1.0,2,0.111111111111111,3.10526315789474,2,1.0,0.298245614035088,ReadingArea_rsl2-rcl11-esl100-rsm2-rcm11-esm310-rsr2-rcr100-esr29,exr/ReadingArea_rsl2-rcl11-esl100-rsm2-rcm11-esm310-rsr2-rcr100-esr29.exr,ReadingArea_rsl2-rcl11-esl100-rsm2-rcm11-esm310-rsr2-rcr100-esr29.npz,,,,,0,71,71,332,,left,green,1.04,330.2011950016022,330.6345851421356,,1,3,8,lightness,readingArea,realistic,75,2023-03-18_16h08.28.545,tripletExp_regina_11082022,2022.2.4,120.2460938619879,
8,6,5,2,0.25,1.0,2,0.027777777777778,1.0,2,1.0,0.298245614035088,ReadingArea_rsl2-rcl25-esl100-rsm2-rcm2-esm100-rsr2-rcr100-esr29,exr/ReadingArea_rsl2-rcl25-esl100-rsm2-rcm2-esm100-rsr2-rcr100-esr29.exr,ReadingArea_rsl2-rcl25-esl100-rsm2-rcm2-esm100-rsr2-rcr100-esr29.npz,,,,,0,72,72,241,,left,green,1.56,332.3278441429138,332.84506607055664,,1,3,8,lightness,readingArea,realistic,75,2023-03-18_16h08.28.545,tripletExp_regina_11082022,2022.2.4,120.2460938619879,
5,2,8,2,1.0,0.298245614035088,2,0.25,0.298245614035088,2,0.25,1.0,ReadingArea_rsl2-rcl100-esl29-rsm2-rcm25-esm29-rsr2-rcr25-esr100,exr/ReadingArea_rsl2-rcl100-esl29-rsm2-rcm25-esm29-rsr2-rcr25-esr100.exr,ReadingArea_rsl2-rcl100-esl29-rsm2-rcm25-esm29-rsr2-rcr25-esr100.npz,,,,,0,73,73,538,,right,red,1.66,334.5347909927368,334.97272205352783,,1,3,8,lightness,readingArea,realistic,75,2023-03-18_16h08.28.545,tripletExp_regina_11082022,2022.2.4,120.2460938619879,
9,11,3,2,0.444444444444444,1.0,2,1.0,1.0,2,0.444444444444444,0.298245614035088,ReadingArea_rsl2-rcl44-esl100-rsm2-rcm100-esm100-rsr2-rcr44-esr29,exr/ReadingArea_rsl2-rcl44-esl100-rsm2-rcm100-esm100-rsr2-rcr44-esr29.exr,ReadingArea_rsl2-rcl44-esl100-rsm2-rcm100-esm100-rsr2-rcr44-esr29.npz,,,,,0,74,74,348,,left,green,1.04,336.66656017303467,336.8726420402527,,1,3,8,lightness,readingArea,realistic,75,2023-03-18_16h08.28.545,tripletExp_regina_11082022,2022.2.4,120.2460938619879,
1,14,7,2,0.111111111111111,0.298245614035088,2,0.25,3.10526315789474,2,0.111111111111111,1.0,ReadingArea_rsl2-rcl11-esl29-rsm2-rcm25-esm310-rsr2-rcr11-esr100,exr/ReadingArea_rsl2-rcl11-esl29-rsm2-rcm25-esm310-rsr2-rcr11-esr100.exr,ReadingArea_rsl2-rcl11-esl29-rsm2-rcm25-esm310-rsr2-rcr11-esr100.npz,,,,,0,75,75,583,,right,red,1.55,354.9399859905243,355.38413310050964,,2,3,8,lightness,readingArea,realistic,75,2023-03-18_16h08.28.545,tripletExp_regina_11082022,2022.2.4,120.2460938619879,
6,12,3,2,0.027777777777778,1.0,2,0.027777777777778,3.10526315789474,2,0.444444444444444,0.298245614035088,ReadingArea_rsl2-rcl2-esl100-rsm2-rcm2-esm310-rsr2-rcr44-esr29,exr/ReadingArea_rsl2-rcl2-esl100-rsm2-rcm2-esm310-rsr2-rcr44-esr29.exr,ReadingArea_rsl2-rcl2-esl100-rsm2-rcm2-esm310-rsr2-rcr44-esr29.npz,,,,,0,76,76,284,,left,green,1.22,357.10349798202515,357.5373661518097,,2,3,8,lightness,readingArea,realistic,75,2023-03-18_16h08.28.545,tripletExp_regina_11082022,2022.2.4,120.2460938619879,
3,7,0,2,0.444444444444444,0.298245614035088,2,0.111111111111111,1.0,2,0.027777777777778,0.298245614035088,ReadingArea_rsl2-rcl44-esl29-rsm2-rcm11-esm100-rsr2-rcr2-esr29,exr/ReadingArea_rsl2-rcl44-esl29-rsm2-rcm11-esm100-rsr2-rcr2-esr29.exr,ReadingArea_rsl2-rcl44-esl29-rsm2-rcm11-esm100-rsr2-rcr2-esr29.npz,,,,,0,77,77,327,,left,green,0.72,359.2488741874695,359.6932611465454,,2,3,8,lightness,readingArea,realistic,75,2023-03-18_16h08.28.545,tripletExp_regina_11082022,2022.2.4,120.2460938619879,
13,1,4,2,0.111111111111111,3.10526315789474,2,0.111111111111111,0.298245614035088,2,0.694444444444444,0.298245614035088,ReadingArea_rsl2-rcl11-esl310-rsm2-rcm11-esm29-rsr2-rcr69-esr29,exr/ReadingArea_rsl2-rcl11-esl310-rsm2-rcm11-esm29-rsr2-rcr69-esr29.exr,ReadingArea_rsl2-rcl11-esl310-rsm2-rcm11-esm29-rsr2-rcr69-esr29.npz,,,,,0,78,78,396,,left,green,1.5,361.38570499420166,,,2,3,8,lightness,readingArea,realistic,75,2023-03-18_16h08.28.545,tripletExp_regina_11082022,2022.2.4,120.2460938619879,
8,14,6,2,0.25,1.0,2,0.25,3.10526315789474,2,0.027777777777778,1.0,ReadingArea_rsl2-rcl25-esl100-rsm2-rcm25-esm310-rsr2-rcr2-esr100,exr/ReadingArea_rsl2-rcl25-esl100-rsm2-rcm25-esm310-rsr2-rcr2-esr100.exr,ReadingArea_rsl2-rcl25-esl100-rsm2-rcm25-esm310-rsr2-rcr2-esr100.npz,,,,,0,79,79,469,,left,green,0.95,363.5335969924927,363.95720410346985,,2,3,8,lightness,readingArea,realistic,75,2023-03-18_16h08.28.545,tripletExp_regina_11082022,2022.2.4,120.2460938619879,
1,2,12,2,0.111111111111111,0.298245614035088,2,0.25,0.298245614035088,2,0.027777777777778,3.10526315789474,ReadingArea_rsl2-rcl11-esl29-rsm2-rcm25-esm29-rsr2-rcr2-esr310,exr/ReadingArea_rsl2-rcl11-esl29-rsm2-rcm25-esm29-rsr2-rcr2-esr310.exr,ReadingArea_rsl2-rcl11-esl29-rsm2-rcm25-esm29-rsr2-rcr2-esr310.npz,,,,,0,80,80,229,,right,red,1.4,365.6756591796875,366.1144909858704,,2,3,8,lightness,readingArea,realistic,75,2023-03-18_16h08.28.545,tripletExp_regina_11082022,2022.2.4,120.2460938619879,
9,6,14,2,0.444444444444444,1.0,2,0.027777777777778,1.0,2,0.25,3.10526315789474,ReadingArea_rsl2-rcl44-esl100-rsm2-rcm2-esm100-rsr2-rcr25-esr310,exr/ReadingArea_rsl2-rcl44-esl100-rsm2-rcm2-esm100-rsr2-rcr25-esr310.exr,ReadingArea_rsl2-rcl44-esl100-rsm2-rcm2-esm100-rsr2-rcr25-esr310.npz,,,,,0,81,81,213,,left,green,1.65,367.8345010280609,368.2807140350342,,2,3,8,lightness,readingArea,realistic,75,2023-03-18_16h08.28.545,tripletExp_regina_11082022,2022.2.4,120.2460938619879,
14,0,3,2,0.25,3.10526315789474,2,0.027777777777778,0.298245614035088,2,0.444444444444444,0.298245614035088,ReadingArea_rsl2-rcl25-esl310-rsm2-rcm2-esm29-rsr2-rcr44-esr29,exr/ReadingArea_rsl2-rcl25-esl310-rsm2-rcm2-esm29-rsr2-rcr44-esr29.exr,ReadingArea_rsl2-rcl25-esl310-rsm2-rcm2-esm29-rsr2-rcr44-esr29.npz,,,,,0,82,82,75,,right,red,1.71,369.9756560325623,370.3894200325012,,2,3,8,lightness,readingArea,realistic,75,2023-03-18_16h08.28.545,tripletExp_regina_11082022,2022.2.4,120.2460938619879,
2,8,4,2,0.25,0.298245614035088,2,0.25,1.0,2,0.694444444444444,0.298245614035088,ReadingArea_rsl2-rcl25-esl29-rsm2-rcm25-esm100-rsr2-rcr69-esr29,exr/ReadingArea_rsl2-rcl25-esl29-rsm2-rcm25-esm100-rsr2-rcr69-esr29.exr,ReadingArea_rsl2-rcl25-esl29-rsm2-rcm25-esm100-rsr2-rcr69-esr29.npz,,,,,0,83,83,507,,right,red,3.34,373.8478000164032,374.3000011444092,,2,3,8,lightness,readingArea,realistic,75,2023-03-18_16h08.28.545,tripletExp_regina_11082022,2022.2.4,120.2460938619879,
1,5,8,2,0.111111111111111,0.298245614035088,2,1.0,0.298245614035088,2,0.25,1.0,ReadingArea_rsl2-rcl11-esl29-rsm2-rcm100-esm29-rsr2-rcr25-esr100,exr/ReadingArea_rsl2-rcl11-esl29-rsm2-rcm100-esm29-rsr2-rcr25-esr100.exr,ReadingArea_rsl2-rcl11-esl29-rsm2-rcm100-esm29-rsr2-rcr25-esr100.npz,,,,,0,84,84,238,,right,red,1.56,376.008043050766,376.4550130367279,,2,3,8,lightness,readingArea,realistic,75,2023-03-18_16h08.28.545,tripletExp_regina_11082022,2022.2.4,120.2460938619879,
5,3,6,2,1.0,0.298245614035088,2,0.444444444444444,0.298245614035088,2,0.027777777777778,1.0,ReadingArea_rsl2-rcl100-esl29-rsm2-rcm44-esm29-rsr2-rcr2-esr100,exr/ReadingArea_rsl2-rcl100-esl29-rsm2-rcm44-esm29-rsr2-rcr2-esr100.exr,ReadingArea_rsl2-rcl100-esl29-rsm2-rcm44-esm29-rsr2-rcr2-esr100.npz,,,,,0,85,85,316,,left,green,1.19,378.1626410484314,378.6765739917755,,2,3,8,lightness,readingArea,realistic,75,2023-03-18_16h08.28.545,tripletExp_regina_11082022,2022.2.4,120.2460938619879,
6,13,0,2,0.027777777777778,1.0,2,0.111111111111111,3.10526315789474,2,0.027777777777778,0.298245614035088,ReadingArea_rsl2-rcl2-esl100-rsm2-rcm11-esm310-rsr2-rcr2-esr29,exr/ReadingArea_rsl2-rcl2-esl100-rsm2-rcm11-esm310-rsr2-rcr2-esr29.exr,ReadingArea_rsl2-rcl2-esl100-rsm2-rcm11-esm310-rsr2-rcr2-esr29.npz,,,,,0,86,86,580,,left,green,2.72,382.1349971294403,382.57544898986816,,2,3,8,lightness,readingArea,realistic,75,2023-03-18_16h08.28.545,tripletExp_regina_11082022,2022.2.4,120.2460938619879,
12,3,13,2,0.027777777777778,3.10526315789474,2,0.444444444444444,0.298245614035088,2,0.111111111111111,3.10526315789474,ReadingArea_rsl2-rcl2-esl310-rsm2-rcm44-esm29-rsr2-rcr11-esr310,exr/ReadingArea_rsl2-rcl2-esl310-rsm2-rcm44-esm29-rsr2-rcr11-esr310.exr,ReadingArea_rsl2-rcl2-esl310-rsm2-rcm44-esm29-rsr2-rcr11-esr310.npz,,,,,0,87,87,383,,right,red,1.06,384.2927281856537,384.8373119831085,,2,3,8,lightness,readingArea,realistic,75,2023-03-18_16h08.28.545,tripletExp_regina_11082022,2022.2.4,120.2460938619879,
1,13,11,2,0.111111111111111,0.298245614035088,2,0.111111111111111,3.10526315789474,2,1.0,1.0,ReadingArea_rsl2-rcl11-esl29-rsm2-rcm11-esm310-rsr2-rcr100-esr100,exr/ReadingArea_rsl2-rcl11-esl29-rsm2-rcm11-esm310-rsr2-rcr100-esr100.exr,ReadingArea_rsl2-rcl11-esl29-rsm2-rcm11-esm310-rsr2-rcr100-esr100.npz,,,,,0,88,88,333,,left,green,1.52,386.5237350463867,,,2,3,8,lightness,readingArea,realistic,75,2023-03-18_16h08.28.545,tripletExp_regina_11082022,2022.2.4,120.2460938619879,
0,5,6,2,0.027777777777778,0.298245614035088,2,1.0,0.298245614035088,2,0.027777777777778,1.0,ReadingArea_rsl2-rcl2-esl29-rsm2-rcm100-esm29-rsr2-rcr2-esr100,exr/ReadingArea_rsl2-rcl2-esl29-rsm2-rcm100-esm29-rsr2-rcr2-esr100.exr,ReadingArea_rsl2-rcl2-esl29-rsm2-rcm100-esm29-rsr2-rcr2-esr100.npz,,,,,0,89,89,374,,right,red,1.71,388.68872904777527,389.13829016685486,,2,3,8,lightness,readingArea,realistic,75,2023-03-18_16h08.28.545,tripletExp_regina_11082022,2022.2.4,120.2460938619879,
12,5,2,2,0.027777777777778,3.10526315789474,2,1.0,0.298245614035088,2,0.25,0.298245614035088,ReadingArea_rsl2-rcl2-esl310-rsm2-rcm100-esm29-rsr2-rcr25-esr29,exr/ReadingArea_rsl2-rcl2-esl310-rsm2-rcm100-esm29-rsr2-rcr25-esr29.exr,ReadingArea_rsl2-rcl2-esl310-rsm2-rcm100-esm29-rsr2-rcr25-esr29.npz,,,,,0,90,90,415,,right,red,1.35,390.82676815986633,391.2732350826264,,2,3,8,lightness,readingArea,realistic,75,2023-03-18_16h08.28.545,tripletExp_regina_11082022,2022.2.4,120.2460938619879,
4,12,2,2,0.694444444444444,0.298245614035088,2,0.027777777777778,3.10526315789474,2,0.25,0.298245614035088,ReadingArea_rsl2-rcl69-esl29-rsm2-rcm2-esm310-rsr2-rcr25-esr29,exr/ReadingArea_rsl2-rcl69-esl29-rsm2-rcm2-esm310-rsr2-rcr25-esr29.exr,ReadingArea_rsl2-rcl69-esl29-rsm2-rcm2-esm310-rsr2-rcr25-esr29.npz,,,,,0,91,91,543,,right,red,2.98,394.7363271713257,395.19651103019714,,2,3,8,lightness,readingArea,realistic,75,2023-03-18_16h08.28.545,tripletExp_regina_11082022,2022.2.4,120.2460938619879,
13,6,8,2,0.111111111111111,3.10526315789474,2,0.027777777777778,1.0,2,0.25,1.0,ReadingArea_rsl2-rcl11-esl310-rsm2-rcm2-esm100-rsr2-rcr25-esr100,exr/ReadingArea_rsl2-rcl11-esl310-rsm2-rcm2-esm100-rsr2-rcr25-esr100.exr,ReadingArea_rsl2-rcl11-esl310-rsm2-rcm2-esm100-rsr2-rcr25-esr100.npz,,,,,0,92,92,340,,left,green,1.39,396.89278411865234,397.3534710407257,,2,3,8,lightness,readingArea,realistic,75,2023-03-18_16h08.28.545,tripletExp_regina_11082022,2022.2.4,120.2460938619879,
13,6,1,2,0.111111111111111,3.10526315789474,2,0.027777777777778,1.0,2,0.111111111111111,0.298245614035088,ReadingArea_rsl2-rcl11-esl310-rsm2-rcm2-esm100-rsr2-rcr11-esr29,exr/ReadingArea_rsl2-rcl11-esl310-rsm2-rcm2-esm100-rsr2-rcr11-esr29.exr,ReadingArea_rsl2-rcl11-esl310-rsm2-rcm2-esm100-rsr2-rcr11-esr29.npz,,,,,0,93,93,486,,right,red,0.9,399.0570111274719,399.50403118133545,,2,3,8,lightness,readingArea,realistic,75,2023-03-18_16h08.28.545,tripletExp_regina_11082022,2022.2.4,120.2460938619879,
3,10,9,2,0.444444444444444,0.298245614035088,2,0.694444444444444,1.0,2,0.444444444444444,1.0,ReadingArea_rsl2-rcl44-esl29-rsm2-rcm69-esm100-rsr2-rcr44-esr100,exr/ReadingArea_rsl2-rcl44-esl29-rsm2-rcm69-esm100-rsr2-rcr44-esr100.exr,ReadingArea_rsl2-rcl44-esl29-rsm2-rcm69-esm100-rsr2-rcr44-esr100.npz,,,,,0,94,94,222,,right,red,3.13,402.98157000541687,403.44771218299866,,2,3,8,lightness,readingArea,realistic,75,2023-03-18_16h08.28.545,tripletExp_regina_11082022,2022.2.4,120.2460938619879,
10,12,9,2,0.694444444444444,1.0,2,0.027777777777778,3.10526315789474,2,0.444444444444444,1.0,ReadingArea_rsl2-rcl69-esl100-rsm2-rcm2-esm310-rsr2-rcr44-esr100,exr/ReadingArea_rsl2-rcl69-esl100-rsm2-rcm2-esm310-rsr2-rcr44-esr100.exr,ReadingArea_rsl2-rcl69-esl100-rsm2-rcm2-esm310-rsr2-rcr44-esr100.npz,,,,,0,95,95,405,,right,red,1.53,405.14719104766846,405.5909471511841,,2,3,8,lightness,readingArea,realistic,75,2023-03-18_16h08.28.545,tripletExp_regina_11082022,2022.2.4,120.2460938619879,
4,3,1,2,0.694444444444444,0.298245614035088,2,0.444444444444444,0.298245614035088,2,0.111111111111111,0.298245614035088,ReadingArea_rsl2-rcl69-esl29-rsm2-rcm44-esm29-rsr2-rcr11-esr29,exr/ReadingArea_rsl2-rcl69-esl29-rsm2-rcm44-esm29-rsr2-rcr11-esr29.exr,ReadingArea_rsl2-rcl69-esl29-rsm2-rcm44-esm29-rsr2-rcr11-esr29.npz,,,,,0,96,96,60,,left,green,1.17,407.2912561893463,407.7310950756073,,2,3,8,lightness,readingArea,realistic,75,2023-03-18_16h08.28.545,tripletExp_regina_11082022,2022.2.4,120.2460938619879,
3,0,2,2,0.444444444444444,0.298245614035088,2,0.027777777777778,0.298245614035088,2,0.25,0.298245614035088,ReadingArea_rsl2-rcl44-esl29-rsm2-rcm2-esm29-rsr2-rcr25-esr29,exr/ReadingArea_rsl2-rcl44-esl29-rsm2-rcm2-esm29-rsr2-rcr25-esr29.exr,ReadingArea_rsl2-rcl44-esl29-rsm2-rcm2-esm29-rsr2-rcr25-esr29.npz,,,,,0,97,97,334,,right,red,3.07,411.1894960403442,411.62510800361633,,2,3,8,lightness,readingArea,realistic,75,2023-03-18_16h08.28.545,tripletExp_regina_11082022,2022.2.4,120.2460938619879,
8,6,11,2,0.25,1.0,2,0.027777777777778,1.0,2,1.0,1.0,ReadingArea_rsl2-rcl25-esl100-rsm2-rcm2-esm100-rsr2-rcr100-esr100,exr/ReadingArea_rsl2-rcl25-esl100-rsm2-rcm2-esm100-rsr2-rcr100-esr100.exr,ReadingArea_rsl2-rcl25-esl100-rsm2-rcm2-esm100-rsr2-rcr100-esr100.npz,,,,,0,98,98,236,,left,green,1.25,413.3242101669312,413.7461199760437,,2,3,8,lightness,readingArea,realistic,75,2023-03-18_16h08.28.545,tripletExp_regina_11082022,2022.2.4,120.2460938619879,
10,0,14,2,0.694444444444444,1.0,2,0.027777777777778,0.298245614035088,2,0.25,3.10526315789474,ReadingArea_rsl2-rcl69-esl100-rsm2-rcm2-esm29-rsr2-rcr25-esr310,exr/ReadingArea_rsl2-rcl69-esl100-rsm2-rcm2-esm29-rsr2-rcr25-esr310.exr,ReadingArea_rsl2-rcl69-esl100-rsm2-rcm2-esm29-rsr2-rcr25-esr310.npz,,,,,0,99,99,95,,right,red,2.78,417.20231103897095,417.6352071762085,,2,3,8,lightness,readingArea,realistic,75,2023-03-18_16h08.28.545,tripletExp_regina_11082022,2022.2.4,120.2460938619879,
13,0,14,2,0.111111111111111,3.10526315789474,2,0.027777777777778,0.298245614035088,2,0.25,3.10526315789474,ReadingArea_rsl2-rcl11-esl310-rsm2-rcm2-esm29-rsr2-rcr25-esr310,exr/ReadingArea_rsl2-rcl11-esl310-rsm2-rcm2-esm29-rsr2-rcr25-esr310.exr,ReadingArea_rsl2-rcl11-esl310-rsm2-rcm2-esm29-rsr2-rcr25-esr310.npz,,,,,0,100,100,278,,left,green,0.98,419.3252971172333,419.76208209991455,,2,3,8,lightness,readingArea,realistic,75,2023-03-18_16h08.28.545,tripletExp_regina_11082022,2022.2.4,120.2460938619879,
6,0,10,2,0.027777777777778,1.0,2,0.027777777777778,0.298245614035088,2,0.694444444444444,1.0,ReadingArea_rsl2-rcl2-esl100-rsm2-rcm2-esm29-rsr2-rcr69-esr100,exr/ReadingArea_rsl2-rcl2-esl100-rsm2-rcm2-esm29-rsr2-rcr69-esr100.exr,ReadingArea_rsl2-rcl2-esl100-rsm2-rcm2-esm29-rsr2-rcr69-esr100.npz,,,,,0,101,101,532,,left,green,0.73,421.47819900512695,421.9283690452576,,2,3,8,lightness,readingArea,realistic,75,2023-03-18_16h08.28.545,tripletExp_regina_11082022,2022.2.4,120.2460938619879,
10,0,11,2,0.694444444444444,1.0,2,0.027777777777778,0.298245614035088,2,1.0,1.0,ReadingArea_rsl2-rcl69-esl100-rsm2-rcm2-esm29-rsr2-rcr100-esr100,exr/ReadingArea_rsl2-rcl69-esl100-rsm2-rcm2-esm29-rsr2-rcr100-esr100.exr,ReadingArea_rsl2-rcl69-esl100-rsm2-rcm2-esm29-rsr2-rcr100-esr100.npz,,,,,0,102,102,573,,left,green,3.06,425.3846831321716,425.82737016677856,,2,3,8,lightness,readingArea,realistic,75,2023-03-18_16h08.28.545,tripletExp_regina_11082022,2022.2.4,120.2460938619879,
14,5,9,2,0.25,3.10526315789474,2,1.0,0.298245614035088,2,0.444444444444444,1.0,ReadingArea_rsl2-rcl25-esl310-rsm2-rcm100-esm29-rsr2-rcr44-esr100,exr/ReadingArea_rsl2-rcl25-esl310-rsm2-rcm100-esm29-rsr2-rcr44-esr100.exr,ReadingArea_rsl2-rcl25-esl310-rsm2-rcm100-esm29-rsr2-rcr44-esr100.npz,,,,,0,103,103,482,,right,red,1.06,427.5410330295563,428.0345561504364,,2,3,8,lightness,readingArea,realistic,75,2023-03-18_16h08.28.545,tripletExp_regina_11082022,2022.2.4,120.2460938619879,
2,4,6,2,0.25,0.298245614035088,2,0.694444444444444,0.298245614035088,2,0.027777777777778,1.0,ReadingArea_rsl2-rcl25-esl29-rsm2-rcm69-esm29-rsr2-rcr2-esr100,exr/ReadingArea_rsl2-rcl25-esl29-rsm2-rcm69-esm29-rsr2-rcr2-esr100.exr,ReadingArea_rsl2-rcl25-esl29-rsm2-rcm69-esm29-rsr2-rcr2-esr100.npz,,,,,0,104,104,563,,left,green,1.37,429.748605966568,430.2027070522308,,2,3,8,lightness,readingArea,realistic,75,2023-03-18_16h08.28.545,tripletExp_regina_11082022,2022.2.4,120.2460938619879,
1,13,2,2,0.111111111111111,0.298245614035088,2,0.111111111111111,3.10526315789474,2,0.25,0.298245614035088,ReadingArea_rsl2-rcl11-esl29-rsm2-rcm11-esm310-rsr2-rcr25-esr29,exr/ReadingArea_rsl2-rcl11-esl29-rsm2-rcm11-esm310-rsr2-rcr25-esr29.exr,ReadingArea_rsl2-rcl11-esl29-rsm2-rcm11-esm310-rsr2-rcr25-esr29.npz,,,,,0,105,105,118,,right,red,1.32,431.9022259712219,432.3709239959717,,2,3,8,lightness,readingArea,realistic,75,2023-03-18_16h08.28.545,tripletExp_regina_11082022,2022.2.4,120.2460938619879,
11,4,2,2,1.0,1.0,2,0.694444444444444,0.298245614035088,2,0.25,0.298245614035088,ReadingArea_rsl2-rcl100-esl100-rsm2-rcm69-esm29-rsr2-rcr25-esr29,exr/ReadingArea_rsl2-rcl100-esl100-rsm2-rcm69-esm29-rsr2-rcr25-esr29.exr,ReadingArea_rsl2-rcl100-esl100-rsm2-rcm69-esm29-rsr2-rcr25-esr29.npz,,,,,0,106,106,280,,right,red,1.15,434.0844390392304,434.5259411334992,,2,3,8,lightness,readingArea,realistic,75,2023-03-18_16h08.28.545,tripletExp_regina_11082022,2022.2.4,120.2460938619879,
8,12,13,2,0.25,1.0,2,0.027777777777778,3.10526315789474,2,0.111111111111111,3.10526315789474,ReadingArea_rsl2-rcl25-esl100-rsm2-rcm2-esm310-rsr2-rcr11-esr310,exr/ReadingArea_rsl2-rcl25-esl100-rsm2-rcm2-esm310-rsr2-rcr11-esr310.exr,ReadingArea_rsl2-rcl25-esl100-rsm2-rcm2-esm310-rsr2-rcr11-esr310.npz,,,,,0,107,107,275,,right,red,3.26,438.005704164505,438.5531630516052,,2,3,8,lightness,readingArea,realistic,75,2023-03-18_16h08.28.545,tripletExp_regina_11082022,2022.2.4,120.2460938619879,
14,7,8,2,0.25,3.10526315789474,2,0.111111111111111,1.0,2,0.25,1.0,ReadingArea_rsl2-rcl25-esl310-rsm2-rcm11-esm100-rsr2-rcr25-esr100,exr/ReadingArea_rsl2-rcl25-esl310-rsm2-rcm11-esm100-rsr2-rcr25-esr100.exr,ReadingArea_rsl2-rcl25-esl310-rsm2-rcm11-esm100-rsr2-rcr25-esr100.npz,,,,,0,108,108,326,,right,red,1.18,440.2348551750183,440.69409918785095,,2,3,8,lightness,readingArea,realistic,75,2023-03-18_16h08.28.545,tripletExp_regina_11082022,2022.2.4,120.2460938619879,
12,8,3,2,0.027777777777778,3.10526315789474,2,0.25,1.0,2,0.444444444444444,0.298245614035088,ReadingArea_rsl2-rcl2-esl310-rsm2-rcm25-esm100-rsr2-rcr44-esr29,exr/ReadingArea_rsl2-rcl2-esl310-rsm2-rcm25-esm100-rsr2-rcr44-esr29.exr,ReadingArea_rsl2-rcl2-esl310-rsm2-rcm25-esm100-rsr2-rcr44-esr29.npz,,,,,0,109,109,386,,right,red,1.35,442.3944680690765,442.83630418777466,,2,3,8,lightness,readingArea,realistic,75,2023-03-18_16h08.28.545,tripletExp_regina_11082022,2022.2.4,120.2460938619879,
6,2,12,2,0.027777777777778,1.0,2,0.25,0.298245614035088,2,0.027777777777778,3.10526315789474,ReadingArea_rsl2-rcl2-esl100-rsm2-rcm25-esm29-rsr2-rcr2-esr310,exr/ReadingArea_rsl2-rcl2-esl100-rsm2-rcm25-esm29-rsr2-rcr2-esr310.exr,ReadingArea_rsl2-rcl2-esl100-rsm2-rcm25-esm29-rsr2-rcr2-esr310.npz,,,,,0,110,110,480,,right,red,0.93,444.5506730079651,444.9991521835327,,2,3,8,lightness,readingArea,realistic,75,2023-03-18_16h08.28.545,tripletExp_regina_11082022,2022.2.4,120.2460938619879,
11,2,8,2,1.0,1.0,2,0.25,0.298245614035088,2,0.25,1.0,ReadingArea_rsl2-rcl100-esl100-rsm2-rcm25-esm29-rsr2-rcr25-esr100,exr/ReadingArea_rsl2-rcl100-esl100-rsm2-rcm25-esm29-rsr2-rcr25-esr100.exr,ReadingArea_rsl2-rcl100-esl100-rsm2-rcm25-esm29-rsr2-rcr25-esr100.npz,,,,,0,111,111,214,,right,red,0.99,446.6989200115204,447.1299910545349,,2,3,8,lightness,readingArea,realistic,75,2023-03-18_16h08.28.545,tripletExp_regina_11082022,2022.2.4,120.2460938619879,
4,9,13,2,0.694444444444444,0.298245614035088,2,0.444444444444444,1.0,2,0.111111111111111,3.10526315789474,ReadingArea_rsl2-rcl69-esl29-rsm2-rcm44-esm100-rsr2-rcr11-esr310,exr/ReadingArea_rsl2-rcl69-esl29-rsm2-rcm44-esm100-rsr2-rcr11-esr310.exr,ReadingArea_rsl2-rcl69-esl29-rsm2-rcm44-esm100-rsr2-rcr11-esr310.npz,,,,,0,112,112,488,,right,red,4.55,452.3812911510468,452.8196051120758,,2,3,8,lightness,readingArea,realistic,75,2023-03-18_16h08.28.545,tripletExp_regina_11082022,2022.2.4,120.2460938619879,
4,8,14,2,0.694444444444444,0.298245614035088,2,0.25,1.0,2,0.25,3.10526315789474,ReadingArea_rsl2-rcl69-esl29-rsm2-rcm25-esm100-rsr2-rcr25-esr310,exr/ReadingArea_rsl2-rcl69-esl29-rsm2-rcm25-esm100-rsr2-rcr25-esr310.exr,ReadingArea_rsl2-rcl69-esl29-rsm2-rcm25-esm100-rsr2-rcr25-esr310.npz,,,,,0,113,113,234,,left,green,2.75,456.3005511760712,,,2,3,8,lightness,readingArea,realistic,75,2023-03-18_16h08.28.545,tripletExp_regina_11082022,2022.2.4,120.2460938619879,
6,11,8,2,0.027777777777778,1.0,2,1.0,1.0,2,0.25,1.0,ReadingArea_rsl2-rcl2-esl100-rsm2-rcm100-esm100-rsr2-rcr25-esr100,exr/ReadingArea_rsl2-rcl2-esl100-rsm2-rcm100-esm100-rsr2-rcr25-esr100.exr,ReadingArea_rsl2-rcl2-esl100-rsm2-rcm100-esm100-rsr2-rcr25-esr100.npz,,,,,0,114,114,176,,right,red,0.92,458.4676811695099,,,2,3,8,lightness,readingArea,realistic,75,2023-03-18_16h08.28.545,tripletExp_regina_11082022,2022.2.4,120.2460938619879,
0,7,13,2,0.027777777777778,0.298245614035088,2,0.111111111111111,1.0,2,0.111111111111111,3.10526315789474,ReadingArea_rsl2-rcl2-esl29-rsm2-rcm11-esm100-rsr2-rcr11-esr310,exr/ReadingArea_rsl2-rcl2-esl29-rsm2-rcm11-esm100-rsr2-rcr11-esr310.exr,ReadingArea_rsl2-rcl2-esl29-rsm2-rcm11-esm100-rsr2-rcr11-esr310.npz,,,,,0,115,115,159,,right,red,1.03,460.734402179718,461.1656219959259,,2,3,8,lightness,readingArea,realistic,75,2023-03-18_16h08.28.545,tripletExp_regina_11082022,2022.2.4,120.2460938619879,
6,4,2,2,0.027777777777778,1.0,2,0.694444444444444,0.298245614035088,2,0.25,0.298245614035088,ReadingArea_rsl2-rcl2-esl100-rsm2-rcm69-esm29-rsr2-rcr25-esr29,exr/ReadingArea_rsl2-rcl2-esl100-rsm2-rcm69-esm29-rsr2-rcr25-esr29.exr,ReadingArea_rsl2-rcl2-esl100-rsm2-rcm69-esm29-rsr2-rcr25-esr29.npz,,,,,0,116,116,134,,right,red,0.94,462.870845079422,463.32260608673096,,2,3,8,lightness,readingArea,realistic,75,2023-03-18_16h08.28.545,tripletExp_regina_11082022,2022.2.4,120.2460938619879,
13,0,8,2,0.111111111111111,3.10526315789474,2,0.027777777777778,0.298245614035088,2,0.25,1.0,ReadingArea_rsl2-rcl11-esl310-rsm2-rcm2-esm29-rsr2-rcr25-esr100,exr/ReadingArea_rsl2-rcl11-esl310-rsm2-rcm2-esm29-rsr2-rcr25-esr100.exr,ReadingArea_rsl2-rcl11-esl310-rsm2-rcm2-esm29-rsr2-rcr25-esr100.npz,,,,,0,117,117,249,,right,red,3.21,466.80177307128906,467.2429950237274,,2,3,8,lightness,readingArea,realistic,75,2023-03-18_16h08.28.545,tripletExp_regina_11082022,2022.2.4,120.2460938619879,
13,10,11,2,0.111111111111111,3.10526315789474,2,0.694444444444444,1.0,2,1.0,1.0,ReadingArea_rsl2-rcl11-esl310-rsm2-rcm69-esm100-rsr2-rcr100-esr100,exr/ReadingArea_rsl2-rcl11-esl310-rsm2-rcm69-esm100-rsr2-rcr100-esr100.exr,ReadingArea_rsl2-rcl11-esl310-rsm2-rcm69-esm100-rsr2-rcr100-esr100.npz,,,,,0,118,118,320,,right,red,0.89,468.9447410106659,,,2,3,8,lightness,readingArea,realistic,75,2023-03-18_16h08.28.545,tripletExp_regina_11082022,2022.2.4,120.2460938619879,
1,5,14,2,0.111111111111111,0.298245614035088,2,1.0,0.298245614035088,2,0.25,3.10526315789474,ReadingArea_rsl2-rcl11-esl29-rsm2-rcm100-esm29-rsr2-rcr25-esr310,exr/ReadingArea_rsl2-rcl11-esl29-rsm2-rcm100-esm29-rsr2-rcr25-esr310.exr,ReadingArea_rsl2-rcl11-esl29-rsm2-rcm100-esm29-rsr2-rcr25-esr310.npz,,,,,0,119,119,191,,right,red,0.72,471.1680929660797,471.6149740219116,,2,3,8,lightness,readingArea,realistic,75,2023-03-18_16h08.28.545,tripletExp_regina_11082022,2022.2.4,120.2460938619879,
9,0,3,2,0.444444444444444,1.0,2,0.027777777777778,0.298245614035088,2,0.444444444444444,0.298245614035088,ReadingArea_rsl2-rcl44-esl100-rsm2-rcm2-esm29-rsr2-rcr44-esr29,exr/ReadingArea_rsl2-rcl44-esl100-rsm2-rcm2-esm29-rsr2-rcr44-esr29.exr,ReadingArea_rsl2-rcl44-esl100-rsm2-rcm2-esm29-rsr2-rcr44-esr29.npz,,,,,0,120,120,2,,right,red,0.91,473.3186161518097,473.75817704200745,,2,3,8,lightness,readingArea,realistic,75,2023-03-18_16h08.28.545,tripletExp_regina_11082022,2022.2.4,120.2460938619879,
14,7,1,2,0.25,3.10526315789474,2,0.111111111111111,1.0,2,0.111111111111111,0.298245614035088,ReadingArea_rsl2-rcl25-esl310-rsm2-rcm11-esm100-rsr2-rcr11-esr29,exr/ReadingArea_rsl2-rcl25-esl310-rsm2-rcm11-esm100-rsr2-rcr11-esr29.exr,ReadingArea_rsl2-rcl25-esl310-rsm2-rcm11-esm100-rsr2-rcr11-esr29.npz,,,,,0,121,121,298,,right,red,0.77,475.4466590881348,476.0361490249634,,2,3,8,lightness,readingArea,realistic,75,2023-03-18_16h08.28.545,tripletExp_regina_11082022,2022.2.4,120.2460938619879,
5,13,12,2,1.0,0.298245614035088,2,0.111111111111111,3.10526315789474,2,0.027777777777778,3.10526315789474,ReadingArea_rsl2-rcl100-esl29-rsm2-rcm11-esm310-rsr2-rcr2-esr310,exr/ReadingArea_rsl2-rcl100-esl29-rsm2-rcm11-esm310-rsr2-rcr2-esr310.exr,ReadingArea_rsl2-rcl100-esl29-rsm2-rcm11-esm310-rsr2-rcr2-esr310.npz,,,,,0,122,122,389,,left,green,1.33,477.7343909740448,478.1778390407562,,2,3,8,lightness,readingArea,realistic,75,2023-03-18_16h08.28.545,tripletExp_regina_11082022,2022.2.4,120.2460938619879,
8,9,1,2,0.25,1.0,2,0.444444444444444,1.0,2,0.111111111111111,0.298245614035088,ReadingArea_rsl2-rcl25-esl100-rsm2-rcm44-esm100-rsr2-rcr11-esr29,exr/ReadingArea_rsl2-rcl25-esl100-rsm2-rcm44-esm100-rsr2-rcr11-esr29.exr,ReadingArea_rsl2-rcl25-esl100-rsm2-rcm44-esm100-rsr2-rcr11-esr29.npz,,,,,0,123,123,266,,left,green,0.93,479.8806049823761,480.3271811008453,,2,3,8,lightness,readingArea,realistic,75,2023-03-18_16h08.28.545,tripletExp_regina_11082022,2022.2.4,120.2460938619879,
2,4,10,2,0.25,0.298245614035088,2,0.694444444444444,0.298245614035088,2,0.694444444444444,1.0,ReadingArea_rsl2-rcl25-esl29-rsm2-rcm69-esm29-rsr2-rcr69-esr100,exr/ReadingArea_rsl2-rcl25-esl29-rsm2-rcm69-esm29-rsr2-rcr69-esr100.exr,ReadingArea_rsl2-rcl25-esl29-rsm2-rcm69-esm29-rsr2-rcr69-esr100.npz,,,,,0,124,124,174,,left,green,2.98,483.8027110099793,484.3482949733734,,2,3,8,lightness,readingArea,realistic,75,2023-03-18_16h08.28.545,tripletExp_regina_11082022,2022.2.4,120.2460938619879,
12,5,4,2,0.027777777777778,3.10526315789474,2,1.0,0.298245614035088,2,0.694444444444444,0.298245614035088,ReadingArea_rsl2-rcl2-esl310-rsm2-rcm100-esm29-rsr2-rcr69-esr29,exr/ReadingArea_rsl2-rcl2-esl310-rsm2-rcm100-esm29-rsr2-rcr69-esr29.exr,ReadingArea_rsl2-rcl2-esl310-rsm2-rcm100-esm29-rsr2-rcr69-esr29.npz,,,,,0,125,125,566,,right,red,0.95,486.0445511341095,486.5010590553284,,2,3,8,lightness,readingArea,realistic,75,2023-03-18_16h08.28.545,tripletExp_regina_11082022,2022.2.4,120.2460938619879,
0,4,6,2,0.027777777777778,0.298245614035088,2,0.694444444444444,0.298245614035088,2,0.027777777777778,1.0,ReadingArea_rsl2-rcl2-esl29-rsm2-rcm69-esm29-rsr2-rcr2-esr100,exr/ReadingArea_rsl2-rcl2-esl29-rsm2-rcm69-esm29-rsr2-rcr2-esr100.exr,ReadingArea_rsl2-rcl2-esl29-rsm2-rcm69-esm29-rsr2-rcr2-esr100.npz,,,,,0,126,126,49,,right,red,1.32,488.2024130821228,488.6562430858612,,2,3,8,lightness,readingArea,realistic,75,2023-03-18_16h08.28.545,tripletExp_regina_11082022,2022.2.4,120.2460938619879,
13,6,12,2,0.111111111111111,3.10526315789474,2,0.027777777777778,1.0,2,0.027777777777778,3.10526315789474,ReadingArea_rsl2-rcl11-esl310-rsm2-rcm2-esm100-rsr2-rcr2-esr310,exr/ReadingArea_rsl2-rcl11-esl310-rsm2-rcm2-esm100-rsr2-rcr2-esr310.exr,ReadingArea_rsl2-rcl11-esl310-rsm2-rcm2-esm100-rsr2-rcr2-esr310.npz,,,,,0,127,127,147,,right,red,1.29,490.3503601551056,490.7959711551666,,2,3,8,lightness,readingArea,realistic,75,2023-03-18_16h08.28.545,tripletExp_regina_11082022,2022.2.4,120.2460938619879,
13,4,12,2,0.111111111111111,3.10526315789474,2,0.694444444444444,0.298245614035088,2,0.027777777777778,3.10526315789474,ReadingArea_rsl2-rcl11-esl310-rsm2-rcm69-esm29-rsr2-rcr2-esr310,exr/ReadingArea_rsl2-rcl11-esl310-rsm2-rcm69-esm29-rsr2-rcr2-esr310.exr,ReadingArea_rsl2-rcl11-esl310-rsm2-rcm69-esm29-rsr2-rcr2-esr310.npz,,,,,0,128,128,122,,left,green,1.14,492.50419211387634,492.948135137558,,2,3,8,lightness,readingArea,realistic,75,2023-03-18_16h08.28.545,tripletExp_regina_11082022,2022.2.4,120.2460938619879,
9,11,6,2,0.444444444444444,1.0,2,1.0,1.0,2,0.027777777777778,1.0,ReadingArea_rsl2-rcl44-esl100-rsm2-rcm100-esm100-rsr2-rcr2-esr100,exr/ReadingArea_rsl2-rcl44-esl100-rsm2-rcm100-esm100-rsr2-rcr2-esr100.exr,ReadingArea_rsl2-rcl44-esl100-rsm2-rcm100-esm100-rsr2-rcr2-esr100.npz,,,,,0,129,129,404,,left,green,0.86,494.65145897865295,495.08148217201233,,2,3,8,lightness,readingArea,realistic,75,2023-03-18_16h08.28.545,tripletExp_regina_11082022,2022.2.4,120.2460938619879,
2,0,13,2,0.25,0.298245614035088,2,0.027777777777778,0.298245614035088,2,0.111111111111111,3.10526315789474,ReadingArea_rsl2-rcl25-esl29-rsm2-rcm2-esm29-rsr2-rcr11-esr310,exr/ReadingArea_rsl2-rcl25-esl29-rsm2-rcm2-esm29-rsr2-rcr11-esr310.exr,ReadingArea_rsl2-rcl25-esl29-rsm2-rcm2-esm29-rsr2-rcr11-esr310.npz,,,,,0,130,130,50,,left,green,0.77,496.7869110107422,497.23228096961975,,2,3,8,lightness,readingArea,realistic,75,2023-03-18_16h08.28.545,tripletExp_regina_11082022,2022.2.4,120.2460938619879,
0,14,10,2,0.027777777777778,0.298245614035088,2,0.25,3.10526315789474,2,0.694444444444444,1.0,ReadingArea_rsl2-rcl2-esl29-rsm2-rcm25-esm310-rsr2-rcr69-esr100,exr/ReadingArea_rsl2-rcl2-esl29-rsm2-rcm25-esm310-rsr2-rcr69-esr100.exr,ReadingArea_rsl2-rcl2-esl29-rsm2-rcm25-esm310-rsr2-rcr69-esr100.npz,,,,,0,131,131,128,,right,red,0.81,498.9321401119232,499.3701319694519,,2,3,8,lightness,readingArea,realistic,75,2023-03-18_16h08.28.545,tripletExp_regina_11082022,2022.2.4,120.2460938619879,
4,10,11,2,0.694444444444444,0.298245614035088,2,0.694444444444444,1.0,2,1.0,1.0,ReadingArea_rsl2-rcl69-esl29-rsm2-rcm69-esm100-rsr2-rcr100-esr100,exr/ReadingArea_rsl2-rcl69-esl29-rsm2-rcm69-esm100-rsr2-rcr100-esr100.exr,ReadingArea_rsl2-rcl69-esl29-rsm2-rcm69-esm100-rsr2-rcr100-esr100.npz,,,,,0,132,132,180,,right,red,0.71,501.06262397766113,501.4912571907044,,2,3,8,lightness,readingArea,realistic,75,2023-03-18_16h08.28.545,tripletExp_regina_11082022,2022.2.4,120.2460938619879,
6,11,7,2,0.027777777777778,1.0,2,1.0,1.0,2,0.111111111111111,1.0,ReadingArea_rsl2-rcl2-esl100-rsm2-rcm100-esm100-rsr2-rcr11-esr100,exr/ReadingArea_rsl2-rcl2-esl100-rsm2-rcm100-esm100-rsr2-rcr11-esr100.exr,ReadingArea_rsl2-rcl2-esl100-rsm2-rcm100-esm100-rsr2-rcr11-esr100.npz,,,,,0,133,133,571,,right,red,0.72,503.20697712898254,503.64932799339294,,2,3,8,lightness,readingArea,realistic,75,2023-03-18_16h08.28.545,tripletExp_regina_11082022,2022.2.4,120.2460938619879,
7,3,5,2,0.111111111111111,1.0,2,0.444444444444444,0.298245614035088,2,1.0,0.298245614035088,ReadingArea_rsl2-rcl11-esl100-rsm2-rcm44-esm29-rsr2-rcr100-esr29,exr/ReadingArea_rsl2-rcl11-esl100-rsm2-rcm44-esm29-rsr2-rcr100-esr29.exr,ReadingArea_rsl2-rcl11-esl100-rsm2-rcm44-esm29-rsr2-rcr100-esr29.npz,,,,,0,134,134,589,,left,green,1.16,505.36958718299866,505.8241980075836,,2,3,8,lightness,readingArea,realistic,75,2023-03-18_16h08.28.545,tripletExp_regina_11082022,2022.2.4,120.2460938619879,
2,9,12,2,0.25,0.298245614035088,2,0.444444444444444,1.0,2,0.027777777777778,3.10526315789474,ReadingArea_rsl2-rcl25-esl29-rsm2-rcm44-esm100-rsr2-rcr2-esr310,exr/ReadingArea_rsl2-rcl25-esl29-rsm2-rcm44-esm100-rsr2-rcr2-esr310.exr,ReadingArea_rsl2-rcl25-esl29-rsm2-rcm44-esm100-rsr2-rcr2-esr310.npz,,,,,0,135,135,354,,left,green,1.73,507.52296018600464,507.9445660114288,,2,3,8,lightness,readingArea,realistic,75,2023-03-18_16h08.28.545,tripletExp_regina_11082022,2022.2.4,120.2460938619879,
9,4,6,2,0.444444444444444,1.0,2,0.694444444444444,0.298245614035088,2,0.027777777777778,1.0,ReadingArea_rsl2-rcl44-esl100-rsm2-rcm69-esm29-rsr2-rcr2-esr100,exr/ReadingArea_rsl2-rcl44-esl100-rsm2-rcm69-esm29-rsr2-rcr2-esr100.exr,ReadingArea_rsl2-rcl44-esl100-rsm2-rcm69-esm29-rsr2-rcr2-esr100.npz,,,,,0,136,136,453,,left,green,0.94,509.6608920097351,510.2486300468445,,2,3,8,lightness,readingArea,realistic,75,2023-03-18_16h08.28.545,tripletExp_regina_11082022,2022.2.4,120.2460938619879,
6,0,1,2,0.027777777777778,1.0,2,0.027777777777778,0.298245614035088,2,0.111111111111111,0.298245614035088,ReadingArea_rsl2-rcl2-esl100-rsm2-rcm2-esm29-rsr2-rcr11-esr29,exr/ReadingArea_rsl2-rcl2-esl100-rsm2-rcm2-esm29-rsr2-rcr11-esr29.exr,ReadingArea_rsl2-rcl2-esl100-rsm2-rcm2-esm29-rsr2-rcr11-esr29.npz,,,,,0,137,137,302,,left,green,1.38,511.9375991821289,512.3777320384979,,2,3,8,lightness,readingArea,realistic,75,2023-03-18_16h08.28.545,tripletExp_regina_11082022,2022.2.4,120.2460938619879,
3,0,4,2,0.444444444444444,0.298245614035088,2,0.027777777777778,0.298245614035088,2,0.694444444444444,0.298245614035088,ReadingArea_rsl2-rcl44-esl29-rsm2-rcm2-esm29-rsr2-rcr69-esr29,exr/ReadingArea_rsl2-rcl44-esl29-rsm2-rcm2-esm29-rsr2-rcr69-esr29.exr,ReadingArea_rsl2-rcl44-esl29-rsm2-rcm2-esm29-rsr2-rcr69-esr29.npz,,,,,0,138,138,111,,left,green,3.03,515.8663830757141,516.3146531581879,,2,3,8,lightness,readingArea,realistic,75,2023-03-18_16h08.28.545,tripletExp_regina_11082022,2022.2.4,120.2460938619879,
10,7,3,2,0.694444444444444,1.0,2,0.111111111111111,1.0,2,0.444444444444444,0.298245614035088,ReadingArea_rsl2-rcl69-esl100-rsm2-rcm11-esm100-rsr2-rcr44-esr29,exr/ReadingArea_rsl2-rcl69-esl100-rsm2-rcm11-esm100-rsr2-rcr44-esr29.exr,ReadingArea_rsl2-rcl69-esl100-rsm2-rcm11-esm100-rsr2-rcr44-esr29.npz,,,,,0,139,139,582,,right,red,0.92,518.0148689746857,518.4825789928436,,2,3,8,lightness,readingArea,realistic,75,2023-03-18_16h08.28.545,tripletExp_regina_11082022,2022.2.4,120.2460938619879,
0,1,8,2,0.027777777777778,0.298245614035088,2,0.111111111111111,0.298245614035088,2,0.25,1.0,ReadingArea_rsl2-rcl2-esl29-rsm2-rcm11-esm29-rsr2-rcr25-esr100,exr/ReadingArea_rsl2-rcl2-esl29-rsm2-rcm11-esm29-rsr2-rcr25-esr100.exr,ReadingArea_rsl2-rcl2-esl29-rsm2-rcm11-esm29-rsr2-rcr25-esr100.npz,,,,,0,140,140,107,,left,green,2.79,521.9627070426941,522.422844171524,,2,3,8,lightness,readingArea,realistic,75,2023-03-18_16h08.28.545,tripletExp_regina_11082022,2022.2.4,120.2460938619879,
0,14,11,2,0.027777777777778,0.298245614035088,2,0.25,3.10526315789474,2,1.0,1.0,ReadingArea_rsl2-rcl2-esl29-rsm2-rcm25-esm310-rsr2-rcr100-esr100,exr/ReadingArea_rsl2-rcl2-esl29-rsm2-rcm25-esm310-rsr2-rcr100-esr100.exr,ReadingArea_rsl2-rcl2-esl29-rsm2-rcm25-esm310-rsr2-rcr100-esr100.npz,,,,,0,141,141,557,,right,red,0.99,524.1244411468506,524.6230621337891,,2,3,8,lightness,readingArea,realistic,75,2023-03-18_16h08.28.545,tripletExp_regina_11082022,2022.2.4,120.2460938619879,
2,1,3,2,0.25,0.298245614035088,2,0.111111111111111,0.298245614035088,2,0.444444444444444,0.298245614035088,ReadingArea_rsl2-rcl25-esl29-rsm2-rcm11-esm29-rsr2-rcr44-esr29,exr/ReadingArea_rsl2-rcl25-esl29-rsm2-rcm11-esm29-rsr2-rcr44-esr29.exr,ReadingArea_rsl2-rcl25-esl29-rsm2-rcm11-esm29-rsr2-rcr44-esr29.npz,,,,,0,142,142,85,,left,green,1.58,526.3361999988556,526.7658941745758,,2,3,8,lightness,readingArea,realistic,75,2023-03-18_16h08.28.545,tripletExp_regina_11082022,2022.2.4,120.2460938619879,
11,8,0,2,1.0,1.0,2,0.25,1.0,2,0.027777777777778,0.298245614035088,ReadingArea_rsl2-rcl100-esl100-rsm2-rcm25-esm100-rsr2-rcr2-esr29,exr/ReadingArea_rsl2-rcl100-esl100-rsm2-rcm25-esm100-rsr2-rcr2-esr29.exr,ReadingArea_rsl2-rcl100-esl100-rsm2-rcm25-esm100-rsr2-rcr2-esr29.npz,,,,,0,143,143,81,,left,green,1.37,528.4611961841583,528.910637140274,,2,3,8,lightness,readingArea,realistic,75,2023-03-18_16h08.28.545,tripletExp_regina_11082022,2022.2.4,120.2460938619879,
13,3,5,2,0.111111111111111,3.10526315789474,2,0.444444444444444,0.298245614035088,2,1.0,0.298245614035088,ReadingArea_rsl2-rcl11-esl310-rsm2-rcm44-esm29-rsr2-rcr100-esr29,exr/ReadingArea_rsl2-rcl11-esl310-rsm2-rcm44-esm29-rsr2-rcr100-esr29.exr,ReadingArea_rsl2-rcl11-esl310-rsm2-rcm44-esm29-rsr2-rcr100-esr29.npz,,,,,0,144,144,398,,left,green,1.25,530.6088500022888,531.0547521114349,,2,3,8,lightness,readingArea,realistic,75,2023-03-18_16h08.28.545,tripletExp_regina_11082022,2022.2.4,120.2460938619879,
1,7,8,2,0.111111111111111,0.298245614035088,2,0.111111111111111,1.0,2,0.25,1.0,ReadingArea_rsl2-rcl11-esl29-rsm2-rcm11-esm100-rsr2-rcr25-esr100,exr/ReadingArea_rsl2-rcl11-esl29-rsm2-rcm11-esm100-rsr2-rcr25-esr100.exr,ReadingArea_rsl2-rcl11-esl29-rsm2-rcm11-esm100-rsr2-rcr25-esr100.npz,,,,,0,145,145,260,,left,green,1.03,532.7625741958618,533.1954350471497,,2,3,8,lightness,readingArea,realistic,75,2023-03-18_16h08.28.545,tripletExp_regina_11082022,2022.2.4,120.2460938619879,
12,14,8,2,0.027777777777778,3.10526315789474,2,0.25,3.10526315789474,2,0.25,1.0,ReadingArea_rsl2-rcl2-esl310-rsm2-rcm25-esm310-rsr2-rcr25-esr100,exr/ReadingArea_rsl2-rcl2-esl310-rsm2-rcm25-esm310-rsr2-rcr25-esr100.exr,ReadingArea_rsl2-rcl2-esl310-rsm2-rcm25-esm310-rsr2-rcr25-esr100.npz,,,,,0,146,146,466,,right,red,1.15,534.9121880531311,535.3871121406555,,2,3,8,lightness,readingArea,realistic,75,2023-03-18_16h08.28.545,tripletExp_regina_11082022,2022.2.4,120.2460938619879,
2,1,14,2,0.25,0.298245614035088,2,0.111111111111111,0.298245614035088,2,0.25,3.10526315789474,ReadingArea_rsl2-rcl25-esl29-rsm2-rcm11-esm29-rsr2-rcr25-esr310,exr/ReadingArea_rsl2-rcl25-esl29-rsm2-rcm11-esm29-rsr2-rcr25-esr310.exr,ReadingArea_rsl2-rcl25-esl29-rsm2-rcm11-esm29-rsr2-rcr25-esr310.npz,,,,,0,147,147,59,,left,green,0.88,537.0836381912231,537.5291850566864,,2,3,8,lightness,readingArea,realistic,75,2023-03-18_16h08.28.545,tripletExp_regina_11082022,2022.2.4,120.2460938619879,
7,13,4,2,0.111111111111111,1.0,2,0.111111111111111,3.10526315789474,2,0.694444444444444,0.298245614035088,ReadingArea_rsl2-rcl11-esl100-rsm2-rcm11-esm310-rsr2-rcr69-esr29,exr/ReadingArea_rsl2-rcl11-esl100-rsm2-rcm11-esm310-rsr2-rcr69-esr29.exr,ReadingArea_rsl2-rcl11-esl100-rsm2-rcm11-esm310-rsr2-rcr69-esr29.npz,,,,,0,148,148,456,,right,red,4.81,542.785572052002,543.2363350391388,,2,3,8,lightness,readingArea,realistic,75,2023-03-18_16h08.28.545,tripletExp_regina_11082022,2022.2.4,120.2460938619879,
8,10,9,2,0.25,1.0,2,0.694444444444444,1.0,2,0.444444444444444,1.0,ReadingArea_rsl2-rcl25-esl100-rsm2-rcm69-esm100-rsr2-rcr44-esr100,exr/ReadingArea_rsl2-rcl25-esl100-rsm2-rcm69-esm100-rsr2-rcr44-esr100.exr,ReadingArea_rsl2-rcl25-esl100-rsm2-rcm69-esm100-rsr2-rcr44-esr100.npz,,,,,0,149,149,342,,right,red,1.59,544.9455511569977,545.1469440460205,,2,3,8,lightness,readingArea,realistic,75,2023-03-18_16h08.28.545,tripletExp_regina_11082022,2022.2.4,120.2460938619879,
10,11,9,2,0.694444444444444,1.0,2,1.0,1.0,2,0.444444444444444,1.0,ReadingArea_rsl2-rcl69-esl100-rsm2-rcm100-esm100-rsr2-rcr44-esr100,exr/ReadingArea_rsl2-rcl69-esl100-rsm2-rcm100-esm100-rsr2-rcr44-esr100.exr,ReadingArea_rsl2-rcl69-esl100-rsm2-rcm100-esm100-rsr2-rcr44-esr100.npz,,,,,0,150,150,492,,left,green,1.13,582.5764541625977,583.0304620265961,,3,3,8,lightness,readingArea,realistic,75,2023-03-18_16h08.28.545,tripletExp_regina_11082022,2022.2.4,120.2460938619879,
12,10,5,2,0.027777777777778,3.10526315789474,2,0.694444444444444,1.0,2,1.0,0.298245614035088,ReadingArea_rsl2-rcl2-esl310-rsm2-rcm69-esm100-rsr2-rcr100-esr29,exr/ReadingArea_rsl2-rcl2-esl310-rsm2-rcm69-esm100-rsr2-rcr100-esr29.exr,ReadingArea_rsl2-rcl2-esl310-rsm2-rcm69-esm100-rsr2-rcr100-esr29.npz,,,,,0,151,151,470,,right,red,0.78,584.7252161502838,585.1886260509491,,3,3,8,lightness,readingArea,realistic,75,2023-03-18_16h08.28.545,tripletExp_regina_11082022,2022.2.4,120.2460938619879,
3,14,4,2,0.444444444444444,0.298245614035088,2,0.25,3.10526315789474,2,0.694444444444444,0.298245614035088,ReadingArea_rsl2-rcl44-esl29-rsm2-rcm25-esm310-rsr2-rcr69-esr29,exr/ReadingArea_rsl2-rcl44-esl29-rsm2-rcm25-esm310-rsr2-rcr69-esr29.exr,ReadingArea_rsl2-rcl44-esl29-rsm2-rcm25-esm310-rsr2-rcr69-esr29.npz,,,,,0,152,152,537,,right,red,2.83,588.6881520748138,,,3,3,8,lightness,readingArea,realistic,75,2023-03-18_16h08.28.545,tripletExp_regina_11082022,2022.2.4,120.2460938619879,
11,5,4,2,1.0,1.0,2,1.0,0.298245614035088,2,0.694444444444444,0.298245614035088,ReadingArea_rsl2-rcl100-esl100-rsm2-rcm100-esm29-rsr2-rcr69-esr29,exr/ReadingArea_rsl2-rcl100-esl100-rsm2-rcm100-esm29-rsr2-rcr69-esr29.exr,ReadingArea_rsl2-rcl100-esl100-rsm2-rcm100-esm29-rsr2-rcr69-esr29.npz,,,,,0,153,153,564,,right,red,1.38,590.8367521762848,591.2909781932831,,3,3,8,lightness,readingArea,realistic,75,2023-03-18_16h08.28.545,tripletExp_regina_11082022,2022.2.4,120.2460938619879,
7,10,13,2,0.111111111111111,1.0,2,0.694444444444444,1.0,2,0.111111111111111,3.10526315789474,ReadingArea_rsl2-rcl11-esl100-rsm2-rcm69-esm100-rsr2-rcr11-esr310,exr/ReadingArea_rsl2-rcl11-esl100-rsm2-rcm69-esm100-rsr2-rcr11-esr310.exr,ReadingArea_rsl2-rcl11-esl100-rsm2-rcm69-esm100-rsr2-rcr11-esr310.npz,,,,,0,154,154,446,,right,red,1.34,592.9925661087036,593.538957118988,,3,3,8,lightness,readingArea,realistic,75,2023-03-18_16h08.28.545,tripletExp_regina_11082022,2022.2.4,120.2460938619879,
14,5,10,2,0.25,3.10526315789474,2,1.0,0.298245614035088,2,0.694444444444444,1.0,ReadingArea_rsl2-rcl25-esl310-rsm2-rcm100-esm29-rsr2-rcr69-esr100,exr/ReadingArea_rsl2-rcl25-esl310-rsm2-rcm100-esm29-rsr2-rcr69-esr100.exr,ReadingArea_rsl2-rcl25-esl310-rsm2-rcm100-esm29-rsr2-rcr69-esr100.npz,,,,,0,155,155,170,,right,red,1.25,595.2335500717163,595.6298611164093,,3,3,8,lightness,readingArea,realistic,75,2023-03-18_16h08.28.545,tripletExp_regina_11082022,2022.2.4,120.2460938619879,
8,6,0,2,0.25,1.0,2,0.027777777777778,1.0,2,0.027777777777778,0.298245614035088,ReadingArea_rsl2-rcl25-esl100-rsm2-rcm2-esm100-rsr2-rcr2-esr29,exr/ReadingArea_rsl2-rcl25-esl100-rsm2-rcm2-esm100-rsr2-rcr2-esr29.exr,ReadingArea_rsl2-rcl25-esl100-rsm2-rcm2-esm100-rsr2-rcr2-esr29.npz,,,,,0,156,156,187,,right,red,0.93,597.3396501541138,,,3,3,8,lightness,readingArea,realistic,75,2023-03-18_16h08.28.545,tripletExp_regina_11082022,2022.2.4,120.2460938619879,
6,2,5,2,0.027777777777778,1.0,2,0.25,0.298245614035088,2,1.0,0.298245614035088,ReadingArea_rsl2-rcl2-esl100-rsm2-rcm25-esm29-rsr2-rcr100-esr29,exr/ReadingArea_rsl2-rcl2-esl100-rsm2-rcm25-esm29-rsr2-rcr100-esr29.exr,ReadingArea_rsl2-rcl2-esl100-rsm2-rcm25-esm29-rsr2-rcr100-esr29.npz,,,,,0,157,157,504,,left,green,0.75,599.4888820648193,600.0078191757202,,3,3,8,lightness,readingArea,realistic,75,2023-03-18_16h08.28.545,tripletExp_regina_11082022,2022.2.4,120.2460938619879,
10,0,3,2,0.694444444444444,1.0,2,0.027777777777778,0.298245614035088,2,0.444444444444444,0.298245614035088,ReadingArea_rsl2-rcl69-esl100-rsm2-rcm2-esm29-rsr2-rcr44-esr29,exr/ReadingArea_rsl2-rcl69-esl100-rsm2-rcm2-esm29-rsr2-rcr44-esr29.exr,ReadingArea_rsl2-rcl69-esl100-rsm2-rcm2-esm29-rsr2-rcr44-esr29.npz,,,,,0,158,158,87,,right,red,0.85,601.7104680538177,602.1611521244049,,3,3,8,lightness,readingArea,realistic,75,2023-03-18_16h08.28.545,tripletExp_regina_11082022,2022.2.4,120.2460938619879,
13,12,11,2,0.111111111111111,3.10526315789474,2,0.027777777777778,3.10526315789474,2,1.0,1.0,ReadingArea_rsl2-rcl11-esl310-rsm2-rcm2-esm310-rsr2-rcr100-esr100,exr/ReadingArea_rsl2-rcl11-esl310-rsm2-rcm2-esm310-rsr2-rcr100-esr100.exr,ReadingArea_rsl2-rcl11-esl310-rsm2-rcm2-esm310-rsr2-rcr100-esr100.npz,,,,,0,159,159,441,,left,green,0.76,603.8632771968842,604.4058990478516,,3,3,8,lightness,readingArea,realistic,75,2023-03-18_16h08.28.545,tripletExp_regina_11082022,2022.2.4,120.2460938619879,
14,9,12,2,0.25,3.10526315789474,2,0.444444444444444,1.0,2,0.027777777777778,3.10526315789474,ReadingArea_rsl2-rcl25-esl310-rsm2-rcm44-esm100-rsr2-rcr2-esr310,exr/ReadingArea_rsl2-rcl25-esl310-rsm2-rcm44-esm100-rsr2-rcr2-esr310.exr,ReadingArea_rsl2-rcl25-esl310-rsm2-rcm44-esm100-rsr2-rcr2-esr310.npz,,,,,0,160,160,378,,left,green,0.95,606.1060290336609,606.5575439929962,,3,3,8,lightness,readingArea,realistic,75,2023-03-18_16h08.28.545,tripletExp_regina_11082022,2022.2.4,120.2460938619879,
1,14,0,2,0.111111111111111,0.298245614035088,2,0.25,3.10526315789474,2,0.027777777777778,0.298245614035088,ReadingArea_rsl2-rcl11-esl29-rsm2-rcm25-esm310-rsr2-rcr2-esr29,exr/ReadingArea_rsl2-rcl11-esl29-rsm2-rcm25-esm310-rsr2-rcr2-esr29.exr,ReadingArea_rsl2-rcl11-esl29-rsm2-rcm25-esm310-rsr2-rcr2-esr29.npz,,,,,0,161,161,394,,left,green,1.03,608.2526249885559,608.7157080173492,,3,3,8,lightness,readingArea,realistic,75,2023-03-18_16h08.28.545,tripletExp_regina_11082022,2022.2.4,120.2460938619879,
0,8,7,2,0.027777777777778,0.298245614035088,2,0.25,1.0,2,0.111111111111111,1.0,ReadingArea_rsl2-rcl2-esl29-rsm2-rcm25-esm100-rsr2-rcr11-esr100,exr/ReadingArea_rsl2-rcl2-esl29-rsm2-rcm25-esm100-rsr2-rcr11-esr100.exr,ReadingArea_rsl2-rcl2-esl29-rsm2-rcm25-esm100-rsr2-rcr11-esr100.npz,,,,,0,162,162,9,,right,red,0.93,610.4080941677094,610.8399200439453,,3,3,8,lightness,readingArea,realistic,75,2023-03-18_16h08.28.545,tripletExp_regina_11082022,2022.2.4,120.2460938619879,
10,7,4,2,0.694444444444444,1.0,2,0.111111111111111,1.0,2,0.694444444444444,0.298245614035088,ReadingArea_rsl2-rcl69-esl100-rsm2-rcm11-esm100-rsr2-rcr69-esr29,exr/ReadingArea_rsl2-rcl69-esl100-rsm2-rcm11-esm100-rsr2-rcr69-esr29.exr,ReadingArea_rsl2-rcl69-esl100-rsm2-rcm11-esm100-rsr2-rcr69-esr29.npz,,,,,0,163,163,223,,right,red,0.98,612.5331971645355,613.0602791309357,,3,3,8,lightness,readingArea,realistic,75,2023-03-18_16h08.28.545,tripletExp_regina_11082022,2022.2.4,120.2460938619879,
7,1,9,2,0.111111111111111,1.0,2,0.111111111111111,0.298245614035088,2,0.444444444444444,1.0,ReadingArea_rsl2-rcl11-esl100-rsm2-rcm11-esm29-rsr2-rcr44-esr100,exr/ReadingArea_rsl2-rcl11-esl100-rsm2-rcm11-esm29-rsr2-rcr44-esr100.exr,ReadingArea_rsl2-rcl11-esl100-rsm2-rcm11-esm29-rsr2-rcr44-esr100.npz,,,,,0,164,164,89,,left,green,0.9,614.7676951885223,,,3,3,8,lightness,readingArea,realistic,75,2023-03-18_16h08.28.545,tripletExp_regina_11082022,2022.2.4,120.2460938619879,
11,7,8,2,1.0,1.0,2,0.111111111111111,1.0,2,0.25,1.0,ReadingArea_rsl2-rcl100-esl100-rsm2-rcm11-esm100-rsr2-rcr25-esr100,exr/ReadingArea_rsl2-rcl100-esl100-rsm2-rcm11-esm100-rsr2-rcr25-esr100.exr,ReadingArea_rsl2-rcl100-esl100-rsm2-rcm11-esm100-rsr2-rcr25-esr100.npz,,,,,0,165,165,37,,right,red,0.65,616.9163870811462,617.3559520244598,,3,3,8,lightness,readingArea,realistic,75,2023-03-18_16h08.28.545,tripletExp_regina_11082022,2022.2.4,120.2460938619879,
3,11,2,2,0.444444444444444,0.298245614035088,2,1.0,1.0,2,0.25,0.298245614035088,ReadingArea_rsl2-rcl44-esl29-rsm2-rcm100-esm100-rsr2-rcr25-esr29,exr/ReadingArea_rsl2-rcl44-esl29-rsm2-rcm100-esm100-rsr2-rcr25-esr29.exr,ReadingArea_rsl2-rcl44-esl29-rsm2-rcm100-esm100-rsr2-rcr25-esr29.npz,,,,,0,166,166,220,,left,green,1.09,619.0567841529846,619.5247361660004,,3,3,8,lightness,readingArea,realistic,75,2023-03-18_16h08.28.545,tripletExp_regina_11082022,2022.2.4,120.2460938619879,
14,6,13,2,0.25,3.10526315789474,2,0.027777777777778,1.0,2,0.111111111111111,3.10526315789474,ReadingArea_rsl2-rcl25-esl310-rsm2-rcm2-esm100-rsr2-rcr11-esr310,exr/ReadingArea_rsl2-rcl25-esl310-rsm2-rcm2-esm100-rsr2-rcr11-esr310.exr,ReadingArea_rsl2-rcl25-esl310-rsm2-rcm2-esm100-rsr2-rcr11-esr310.npz,,,,,0,167,167,91,,right,red,0.96,621.2237160205841,621.6610050201416,,3,3,8,lightness,readingArea,realistic,75,2023-03-18_16h08.28.545,tripletExp_regina_11082022,2022.2.4,120.2460938619879,
8,4,1,2,0.25,1.0,2,0.694444444444444,0.298245614035088,2,0.111111111111111,0.298245614035088,ReadingArea_rsl2-rcl25-esl100-rsm2-rcm69-esm29-rsr2-rcr11-esr29,exr/ReadingArea_rsl2-rcl25-esl100-rsm2-rcm69-esm29-rsr2-rcr11-esr29.exr,ReadingArea_rsl2-rcl25-esl100-rsm2-rcm69-esm29-rsr2-rcr11-esr29.npz,,,,,0,168,168,286,,left,green,0.68,623.3631911277771,623.7943539619446,,3,3,8,lightness,readingArea,realistic,75,2023-03-18_16h08.28.545,tripletExp_regina_11082022,2022.2.4,120.2460938619879,
13,0,12,2,0.111111111111111,3.10526315789474,2,0.027777777777778,0.298245614035088,2,0.027777777777778,3.10526315789474,ReadingArea_rsl2-rcl11-esl310-rsm2-rcm2-esm29-rsr2-rcr2-esr310,exr/ReadingArea_rsl2-rcl11-esl310-rsm2-rcm2-esm29-rsr2-rcr2-esr310.exr,ReadingArea_rsl2-rcl11-esl310-rsm2-rcm2-esm29-rsr2-rcr2-esr310.npz,,,,,0,169,169,56,,right,red,0.84,625.5066661834717,626.1311490535736,,3,3,8,lightness,readingArea,realistic,75,2023-03-18_16h08.28.545,tripletExp_regina_11082022,2022.2.4,120.2460938619879,
9,6,11,2,0.444444444444444,1.0,2,0.027777777777778,1.0,2,1.0,1.0,ReadingArea_rsl2-rcl44-esl100-rsm2-rcm2-esm100-rsr2-rcr100-esr100,exr/ReadingArea_rsl2-rcl44-esl100-rsm2-rcm2-esm100-rsr2-rcr100-esr100.exr,ReadingArea_rsl2-rcl44-esl100-rsm2-rcm2-esm100-rsr2-rcr100-esr100.npz,,,,,0,170,170,572,,left,green,1.27,627.8472499847412,628.304279088974,,3,3,8,lightness,readingArea,realistic,75,2023-03-18_16h08.28.545,tripletExp_regina_11082022,2022.2.4,120.2460938619879,
13,14,7,2,0.111111111111111,3.10526315789474,2,0.25,3.10526315789474,2,0.111111111111111,1.0,ReadingArea_rsl2-rcl11-esl310-rsm2-rcm25-esm310-rsr2-rcr11-esr100,exr/ReadingArea_rsl2-rcl11-esl310-rsm2-rcm25-esm310-rsr2-rcr11-esr100.exr,ReadingArea_rsl2-rcl11-esl310-rsm2-rcm25-esm310-rsr2-rcr11-esr100.npz,,,,,0,171,171,324,,left,green,1.14,630.0054759979248,630.451327085495,,3,3,8,lightness,readingArea,realistic,75,2023-03-18_16h08.28.545,tripletExp_regina_11082022,2022.2.4,120.2460938619879,
10,4,13,2,0.694444444444444,1.0,2,0.694444444444444,0.298245614035088,2,0.111111111111111,3.10526315789474,ReadingArea_rsl2-rcl69-esl100-rsm2-rcm69-esm29-rsr2-rcr11-esr310,exr/ReadingArea_rsl2-rcl69-esl100-rsm2-rcm69-esm29-rsr2-rcr11-esr310.exr,ReadingArea_rsl2-rcl69-esl100-rsm2-rcm69-esm29-rsr2-rcr11-esr310.npz,,,,,0,172,172,24,,right,red,1.29,632.1539521217346,,,3,3,8,lightness,readingArea,realistic,75,2023-03-18_16h08.28.545,tripletExp_regina_11082022,2022.2.4,120.2460938619879,
0,5,2,2,0.027777777777778,0.298245614035088,2,1.0,0.298245614035088,2,0.25,0.298245614035088,ReadingArea_rsl2-rcl2-esl29-rsm2-rcm100-esm29-rsr2-rcr25-esr29,exr/ReadingArea_rsl2-rcl2-esl29-rsm2-rcm100-esm29-rsr2-rcr25-esr29.exr,ReadingArea_rsl2-rcl2-esl29-rsm2-rcm100-esm29-rsr2-rcr25-esr29.npz,,,,,0,173,173,25,,right,red,0.85,634.3173341751099,634.7705421447754,,3,3,8,lightness,readingArea,realistic,75,2023-03-18_16h08.28.545,tripletExp_regina_11082022,2022.2.4,120.2460938619879,
5,14,8,2,1.0,0.298245614035088,2,0.25,3.10526315789474,2,0.25,1.0,ReadingArea_rsl2-rcl100-esl29-rsm2-rcm25-esm310-rsr2-rcr25-esr100,exr/ReadingArea_rsl2-rcl100-esl29-rsm2-rcm25-esm310-rsr2-rcr25-esr100.exr,ReadingArea_rsl2-rcl100-esl29-rsm2-rcm25-esm310-rsr2-rcr25-esr100.npz,,,,,0,174,174,14,,left,green,1.25,636.4666781425476,636.9227921962738,,3,3,8,lightness,readingArea,realistic,75,2023-03-18_16h08.28.545,tripletExp_regina_11082022,2022.2.4,120.2460938619879,
3,1,0,2,0.444444444444444,0.298245614035088,2,0.111111111111111,0.298245614035088,2,0.027777777777778,0.298245614035088,ReadingArea_rsl2-rcl44-esl29-rsm2-rcm11-esm29-rsr2-rcr2-esr29,exr/ReadingArea_rsl2-rcl44-esl29-rsm2-rcm11-esm29-rsr2-rcr2-esr29.exr,ReadingArea_rsl2-rcl44-esl29-rsm2-rcm11-esm29-rsr2-rcr2-esr29.npz,,,,,0,175,175,343,,right,red,1.02,638.6302690505981,639.1547720432281,,3,3,8,lightness,readingArea,realistic,75,2023-03-18_16h08.28.545,tripletExp_regina_11082022,2022.2.4,120.2460938619879,
13,2,9,2,0.111111111111111,3.10526315789474,2,0.25,0.298245614035088,2,0.444444444444444,1.0,ReadingArea_rsl2-rcl11-esl310-rsm2-rcm25-esm29-rsr2-rcr44-esr100,exr/ReadingArea_rsl2-rcl11-esl310-rsm2-rcm25-esm29-rsr2-rcr44-esr100.exr,ReadingArea_rsl2-rcl11-esl310-rsm2-rcm25-esm29-rsr2-rcr44-esr100.npz,,,,,0,176,176,457,,left,green,0.82,640.8418719768524,641.2901651859283,,3,3,8,lightness,readingArea,realistic,75,2023-03-18_16h08.28.545,tripletExp_regina_11082022,2022.2.4,120.2460938619879,
4,13,2,2,0.694444444444444,0.298245614035088,2,0.111111111111111,3.10526315789474,2,0.25,0.298245614035088,ReadingArea_rsl2-rcl69-esl29-rsm2-rcm11-esm310-rsr2-rcr25-esr29,exr/ReadingArea_rsl2-rcl69-esl29-rsm2-rcm11-esm310-rsr2-rcr25-esr29.exr,ReadingArea_rsl2-rcl69-esl29-rsm2-rcm11-esm310-rsr2-rcr25-esr29.npz,,,,,0,177,177,592,,right,red,1.51,643.0065920352936,643.4343791007996,,3,3,8,lightness,readingArea,realistic,75,2023-03-18_16h08.28.545,tripletExp_regina_11082022,2022.2.4,120.2460938619879,
2,5,0,2,0.25,0.298245614035088,2,1.0,0.298245614035088,2,0.027777777777778,0.298245614035088,ReadingArea_rsl2-rcl25-esl29-rsm2-rcm100-esm29-rsr2-rcr2-esr29,exr/ReadingArea_rsl2-rcl25-esl29-rsm2-rcm100-esm29-rsr2-rcr2-esr29.exr,ReadingArea_rsl2-rcl25-esl29-rsm2-rcm100-esm29-rsr2-rcr2-esr29.npz,,,,,0,178,178,414,,left,green,0.78,645.1235721111298,645.5952270030975,,3,3,8,lightness,readingArea,realistic,75,2023-03-18_16h08.28.545,tripletExp_regina_11082022,2022.2.4,120.2460938619879,
13,6,4,2,0.111111111111111,3.10526315789474,2,0.027777777777778,1.0,2,0.694444444444444,0.298245614035088,ReadingArea_rsl2-rcl11-esl310-rsm2-rcm2-esm100-rsr2-rcr69-esr29,exr/ReadingArea_rsl2-rcl11-esl310-rsm2-rcm2-esm100-rsr2-rcr69-esr29.exr,ReadingArea_rsl2-rcl11-esl310-rsm2-rcm2-esm100-rsr2-rcr69-esr29.npz,,,,,0,179,179,328,,left,green,1.08,647.3181509971619,647.7701811790466,,3,3,8,lightness,readingArea,realistic,75,2023-03-18_16h08.28.545,tripletExp_regina_11082022,2022.2.4,120.2460938619879,
5,11,14,2,1.0,0.298245614035088,2,1.0,1.0,2,0.25,3.10526315789474,ReadingArea_rsl2-rcl100-esl29-rsm2-rcm100-esm100-rsr2-rcr25-esr310,exr/ReadingArea_rsl2-rcl100-esl29-rsm2-rcm100-esm100-rsr2-rcr25-esr310.exr,ReadingArea_rsl2-rcl100-esl29-rsm2-rcm100-esm100-rsr2-rcr25-esr310.npz,,,,,0,180,180,258,,right,red,1.16,649.4798860549927,649.9166979789734,,3,3,8,lightness,readingArea,realistic,75,2023-03-18_16h08.28.545,tripletExp_regina_11082022,2022.2.4,120.2460938619879,
6,12,0,2,0.027777777777778,1.0,2,0.027777777777778,3.10526315789474,2,0.027777777777778,0.298245614035088,ReadingArea_rsl2-rcl2-esl100-rsm2-rcm2-esm310-rsr2-rcr2-esr29,exr/ReadingArea_rsl2-rcl2-esl100-rsm2-rcm2-esm310-rsr2-rcr2-esr29.exr,ReadingArea_rsl2-rcl2-esl100-rsm2-rcm2-esm310-rsr2-rcr2-esr29.npz,,,,,0,181,181,23,,left,green,1.12,651.6349680423737,652.0879349708557,,3,3,8,lightness,readingArea,realistic,75,2023-03-18_16h08.28.545,tripletExp_regina_11082022,2022.2.4,120.2460938619879,
5,4,1,2,1.0,0.298245614035088,2,0.694444444444444,0.298245614035088,2,0.111111111111111,0.298245614035088,ReadingArea_rsl2-rcl100-esl29-rsm2-rcm69-esm29-rsr2-rcr11-esr29,exr/ReadingArea_rsl2-rcl100-esl29-rsm2-rcm69-esm29-rsr2-rcr11-esr29.exr,ReadingArea_rsl2-rcl100-esl29-rsm2-rcm69-esm29-rsr2-rcr11-esr29.npz,,,,,0,182,182,560,,left,green,0.87,653.8123099803925,654.2487230300903,,3,3,8,lightness,readingArea,realistic,75,2023-03-18_16h08.28.545,tripletExp_regina_11082022,2022.2.4,120.2460938619879,
9,12,0,2,0.444444444444444,1.0,2,0.027777777777778,3.10526315789474,2,0.027777777777778,0.298245614035088,ReadingArea_rsl2-rcl44-esl100-rsm2-rcm2-esm310-rsr2-rcr2-esr29,exr/ReadingArea_rsl2-rcl44-esl100-rsm2-rcm2-esm310-rsr2-rcr2-esr29.exr,ReadingArea_rsl2-rcl44-esl100-rsm2-rcm2-esm310-rsr2-rcr2-esr29.npz,,,,,0,183,183,175,,right,red,0.91,655.9604051113129,656.3926830291748,,3,3,8,lightness,readingArea,realistic,75,2023-03-18_16h08.28.545,tripletExp_regina_11082022,2022.2.4,120.2460938619879,
2,5,3,2,0.25,0.298245614035088,2,1.0,0.298245614035088,2,0.444444444444444,0.298245614035088,ReadingArea_rsl2-rcl25-esl29-rsm2-rcm100-esm29-rsr2-rcr44-esr29,exr/ReadingArea_rsl2-rcl25-esl29-rsm2-rcm100-esm29-rsr2-rcr44-esr29.exr,ReadingArea_rsl2-rcl25-esl29-rsm2-rcm100-esm29-rsr2-rcr44-esr29.npz,,,,,0,184,184,135,,right,red,0.97,658.1083610057831,658.5785431861877,,3,3,8,lightness,readingArea,realistic,75,2023-03-18_16h08.28.545,tripletExp_regina_11082022,2022.2.4,120.2460938619879,
6,10,8,2,0.027777777777778,1.0,2,0.694444444444444,1.0,2,0.25,1.0,ReadingArea_rsl2-rcl2-esl100-rsm2-rcm69-esm100-rsr2-rcr25-esr100,exr/ReadingArea_rsl2-rcl2-esl100-rsm2-rcm69-esm100-rsr2-rcr25-esr100.exr,ReadingArea_rsl2-rcl2-esl100-rsm2-rcm69-esm100-rsr2-rcr25-esr100.npz,,,,,0,185,185,167,,right,red,0.89,660.2886061668396,660.756872177124,,3,3,8,lightness,readingArea,realistic,75,2023-03-18_16h08.28.545,tripletExp_regina_11082022,2022.2.4,120.2460938619879,
13,4,0,2,0.111111111111111,3.10526315789474,2,0.694444444444444,0.298245614035088,2,0.027777777777778,0.298245614035088,ReadingArea_rsl2-rcl11-esl310-rsm2-rcm69-esm29-rsr2-rcr2-esr29,exr/ReadingArea_rsl2-rcl11-esl310-rsm2-rcm69-esm29-rsr2-rcr2-esr29.exr,ReadingArea_rsl2-rcl11-esl310-rsm2-rcm69-esm29-rsr2-rcr2-esr29.npz,,,,,0,186,186,269,,left,green,0.98,662.4628241062164,662.89888215065,,3,3,8,lightness,readingArea,realistic,75,2023-03-18_16h08.28.545,tripletExp_regina_11082022,2022.2.4,120.2460938619879,
11,7,13,2,1.0,1.0,2,0.111111111111111,1.0,2,0.111111111111111,3.10526315789474,ReadingArea_rsl2-rcl100-esl100-rsm2-rcm11-esm100-rsr2-rcr11-esr310,exr/ReadingArea_rsl2-rcl100-esl100-rsm2-rcm11-esm100-rsr2-rcr11-esr310.exr,ReadingArea_rsl2-rcl100-esl100-rsm2-rcm11-esm100-rsr2-rcr11-esr310.npz,,,,,0,187,187,431,,right,red,0.96,664.606950044632,665.095605134964,,3,3,8,lightness,readingArea,realistic,75,2023-03-18_16h08.28.545,tripletExp_regina_11082022,2022.2.4,120.2460938619879,
0,13,1,2,0.027777777777778,0.298245614035088,2,0.111111111111111,3.10526315789474,2,0.111111111111111,0.298245614035088,ReadingArea_rsl2-rcl2-esl29-rsm2-rcm11-esm310-rsr2-rcr11-esr29,exr/ReadingArea_rsl2-rcl2-esl29-rsm2-rcm11-esm310-rsr2-rcr11-esr29.exr,ReadingArea_rsl2-rcl2-esl29-rsm2-rcm11-esm310-rsr2-rcr11-esr29.npz,,,,,0,188,188,458,,right,red,0.91,666.8224799633026,667.2695100307465,,3,3,8,lightness,readingArea,realistic,75,2023-03-18_16h08.28.545,tripletExp_regina_11082022,2022.2.4,120.2460938619879,
3,4,5,2,0.444444444444444,0.298245614035088,2,0.694444444444444,0.298245614035088,2,1.0,0.298245614035088,ReadingArea_rsl2-rcl44-esl29-rsm2-rcm69-esm29-rsr2-rcr100-esr29,exr/ReadingArea_rsl2-rcl44-esl29-rsm2-rcm69-esm29-rsr2-rcr100-esr29.exr,ReadingArea_rsl2-rcl44-esl29-rsm2-rcm69-esm29-rsr2-rcr100-esr29.npz,,,,,0,189,189,233,,left,green,2.54,670.7741751670837,671.2419321537018,,3,3,8,lightness,readingArea,realistic,75,2023-03-18_16h08.28.545,tripletExp_regina_11082022,2022.2.4,120.2460938619879,
1,6,11,2,0.111111111111111,0.298245614035088,2,0.027777777777778,1.0,2,1.0,1.0,ReadingArea_rsl2-rcl11-esl29-rsm2-rcm2-esm100-rsr2-rcr100-esr100,exr/ReadingArea_rsl2-rcl11-esl29-rsm2-rcm2-esm100-rsr2-rcr100-esr100.exr,ReadingArea_rsl2-rcl11-esl29-rsm2-rcm2-esm100-rsr2-rcr100-esr100.npz,,,,,0,190,190,39,,left,green,0.99,672.9349231719971,,,3,3,8,lightness,readingArea,realistic,75,2023-03-18_16h08.28.545,tripletExp_regina_11082022,2022.2.4,120.2460938619879,
13,9,6,2,0.111111111111111,3.10526315789474,2,0.444444444444444,1.0,2,0.027777777777778,1.0,ReadingArea_rsl2-rcl11-esl310-rsm2-rcm44-esm100-rsr2-rcr2-esr100,exr/ReadingArea_rsl2-rcl11-esl310-rsm2-rcm44-esm100-rsr2-rcr2-esr100.exr,ReadingArea_rsl2-rcl11-esl310-rsm2-rcm44-esm100-rsr2-rcr2-esr100.npz,,,,,0,191,191,19,,left,green,0.86,675.0760309696198,675.5291731357574,,3,3,8,lightness,readingArea,realistic,75,2023-03-18_16h08.28.545,tripletExp_regina_11082022,2022.2.4,120.2460938619879,
7,14,3,2,0.111111111111111,1.0,2,0.25,3.10526315789474,2,0.444444444444444,0.298245614035088,ReadingArea_rsl2-rcl11-esl100-rsm2-rcm25-esm310-rsr2-rcr44-esr29,exr/ReadingArea_rsl2-rcl11-esl100-rsm2-rcm25-esm310-rsr2-rcr44-esr29.exr,ReadingArea_rsl2-rcl11-esl100-rsm2-rcm25-esm310-rsr2-rcr44-esr29.npz,,,,,0,192,192,103,,right,red,1.36,677.232164144516,677.6863570213318,,3,3,8,lightness,readingArea,realistic,75,2023-03-18_16h08.28.545,tripletExp_regina_11082022,2022.2.4,120.2460938619879,
1,9,8,2,0.111111111111111,0.298245614035088,2,0.444444444444444,1.0,2,0.25,1.0,ReadingArea_rsl2-rcl11-esl29-rsm2-rcm44-esm100-rsr2-rcr25-esr100,exr/ReadingArea_rsl2-rcl11-esl29-rsm2-rcm44-esm100-rsr2-rcr25-esr100.exr,ReadingArea_rsl2-rcl11-esl29-rsm2-rcm44-esm100-rsr2-rcr25-esr100.npz,,,,,0,193,193,268,,right,red,0.8,679.4006230831146,679.8478910923004,,3,3,8,lightness,readingArea,realistic,75,2023-03-18_16h08.28.545,tripletExp_regina_11082022,2022.2.4,120.2460938619879,
13,7,6,2,0.111111111111111,3.10526315789474,2,0.111111111111111,1.0,2,0.027777777777778,1.0,ReadingArea_rsl2-rcl11-esl310-rsm2-rcm11-esm100-rsr2-rcr2-esr100,exr/ReadingArea_rsl2-rcl11-esl310-rsm2-rcm11-esm100-rsr2-rcr2-esr100.exr,ReadingArea_rsl2-rcl11-esl310-rsm2-rcm11-esm100-rsr2-rcr2-esr100.npz,,,,,0,194,194,283,,left,green,1.4,681.5455691814423,681.9882709980011,,3,3,8,lightness,readingArea,realistic,75,2023-03-18_16h08.28.545,tripletExp_regina_11082022,2022.2.4,120.2460938619879,
0,1,6,2,0.027777777777778,0.298245614035088,2,0.111111111111111,0.298245614035088,2,0.027777777777778,1.0,ReadingArea_rsl2-rcl2-esl29-rsm2-rcm11-esm29-rsr2-rcr2-esr100,exr/ReadingArea_rsl2-rcl2-esl29-rsm2-rcm11-esm29-rsr2-rcr2-esr100.exr,ReadingArea_rsl2-rcl2-esl29-rsm2-rcm11-esm29-rsr2-rcr2-esr100.npz,,,,,0,195,195,375,,right,red,0.81,683.6951620578766,,,3,3,8,lightness,readingArea,realistic,75,2023-03-18_16h08.28.545,tripletExp_regina_11082022,2022.2.4,120.2460938619879,
11,5,2,2,1.0,1.0,2,1.0,0.298245614035088,2,0.25,0.298245614035088,ReadingArea_rsl2-rcl100-esl100-rsm2-rcm100-esm29-rsr2-rcr25-esr29,exr/ReadingArea_rsl2-rcl100-esl100-rsm2-rcm100-esm29-rsr2-rcr25-esr29.exr,ReadingArea_rsl2-rcl100-esl100-rsm2-rcm100-esm29-rsr2-rcr25-esr29.npz,,,,,0,196,196,596,,right,red,3.05,687.6411361694336,688.1022670269012,,3,3,8,lightness,readingArea,realistic,75,2023-03-18_16h08.28.545,tripletExp_regina_11082022,2022.2.4,120.2460938619879,
7,8,14,2,0.111111111111111,1.0,2,0.25,1.0,2,0.25,3.10526315789474,ReadingArea_rsl2-rcl11-esl100-rsm2-rcm25-esm100-rsr2-rcr25-esr310,exr/ReadingArea_rsl2-rcl11-esl100-rsm2-rcm25-esm100-rsr2-rcr25-esr310.exr,ReadingArea_rsl2-rcl11-esl100-rsm2-rcm25-esm100-rsr2-rcr25-esr310.npz,,,,,0,197,197,300,,left,green,0.85,689.7929840087891,690.2492671012878,,3,3,8,lightness,readingArea,realistic,75,2023-03-18_16h08.28.545,tripletExp_regina_11082022,2022.2.4,120.2460938619879,
1,3,12,2,0.111111111111111,0.298245614035088,2,0.444444444444444,0.298245614035088,2,0.027777777777778,3.10526315789474,ReadingArea_rsl2-rcl11-esl29-rsm2-rcm44-esm29-rsr2-rcr2-esr310,exr/ReadingArea_rsl2-rcl11-esl29-rsm2-rcm44-esm29-rsr2-rcr2-esr310.exr,ReadingArea_rsl2-rcl11-esl29-rsm2-rcm44-esm29-rsr2-rcr2-esr310.npz,,,,,0,198,198,323,,left,green,1.48,691.9495701789856,692.4061510562897,,3,3,8,lightness,readingArea,realistic,75,2023-03-18_16h08.28.545,tripletExp_regina_11082022,2022.2.4,120.2460938619879,
13,10,3,2,0.111111111111111,3.10526315789474,2,0.694444444444444,1.0,2,0.444444444444444,0.298245614035088,ReadingArea_rsl2-rcl11-esl310-rsm2-rcm69-esm100-rsr2-rcr44-esr29,exr/ReadingArea_rsl2-rcl11-esl310-rsm2-rcm69-esm100-rsr2-rcr44-esr29.exr,ReadingArea_rsl2-rcl11-esl310-rsm2-rcm69-esm100-rsr2-rcr44-esr29.npz,,,,,0,199,199,224,,right,red,3.22,695.8743979930878,696.3501420021057,,3,3,8,lightness,readingArea,realistic,75,2023-03-18_16h08.28.545,tripletExp_regina_11082022,2022.2.4,120.2460938619879,
14,7,13,2,0.25,3.10526315789474,2,0.111111111111111,1.0,2,0.111111111111111,3.10526315789474,ReadingArea_rsl2-rcl25-esl310-rsm2-rcm11-esm100-rsr2-rcr11-esr310,exr/ReadingArea_rsl2-rcl25-esl310-rsm2-rcm11-esm100-rsr2-rcr11-esr310.exr,ReadingArea_rsl2-rcl25-esl310-rsm2-rcm11-esm100-rsr2-rcr11-esr310.npz,,,,,0,200,200,358,,right,red,1.52,698.0657141208649,698.5256991386414,,3,3,8,lightness,readingArea,realistic,75,2023-03-18_16h08.28.545,tripletExp_regina_11082022,2022.2.4,120.2460938619879,
3,12,4,2,0.444444444444444,0.298245614035088,2,0.027777777777778,3.10526315789474,2,0.694444444444444,0.298245614035088,ReadingArea_rsl2-rcl44-esl29-rsm2-rcm2-esm310-rsr2-rcr69-esr29,exr/ReadingArea_rsl2-rcl44-esl29-rsm2-rcm2-esm310-rsr2-rcr69-esr29.exr,ReadingArea_rsl2-rcl44-esl29-rsm2-rcm2-esm310-rsr2-rcr69-esr29.npz,,,,,0,201,201,426,,left,green,1.63,700.2321059703827,700.6678819656372,,3,3,8,lightness,readingArea,realistic,75,2023-03-18_16h08.28.545,tripletExp_regina_11082022,2022.2.4,120.2460938619879,
10,7,11,2,0.694444444444444,1.0,2,0.111111111111111,1.0,2,1.0,1.0,ReadingArea_rsl2-rcl69-esl100-rsm2-rcm11-esm100-rsr2-rcr100-esr100,exr/ReadingArea_rsl2-rcl69-esl100-rsm2-rcm11-esm100-rsr2-rcr100-esr100.exr,ReadingArea_rsl2-rcl69-esl100-rsm2-rcm11-esm100-rsr2-rcr100-esr100.npz,,,,,0,202,202,542,,left,green,3.11,704.1465060710907,704.5969421863556,,3,3,8,lightness,readingArea,realistic,75,2023-03-18_16h08.28.545,tripletExp_regina_11082022,2022.2.4,120.2460938619879,
9,11,5,2,0.444444444444444,1.0,2,1.0,1.0,2,1.0,0.298245614035088,ReadingArea_rsl2-rcl44-esl100-rsm2-rcm100-esm100-rsr2-rcr100-esr29,exr/ReadingArea_rsl2-rcl44-esl100-rsm2-rcm100-esm100-rsr2-rcr100-esr29.exr,ReadingArea_rsl2-rcl44-esl100-rsm2-rcm100-esm100-rsr2-rcr100-esr29.npz,,,,,0,203,203,142,,right,red,3.39,708.0517511367798,708.5260829925537,,3,3,8,lightness,readingArea,realistic,75,2023-03-18_16h08.28.545,tripletExp_regina_11082022,2022.2.4,120.2460938619879,
