index_left,index_middle,index_right,reflectance_surround_left,reflectance_center_left,emission_spot_left,reflectance_surround_middle,reflectance_center_middle,emission_spot_middle,reflectance_surround_right,reflectance_center_right,emission_spot_right,ImageName,ImageExr,ImageNpy,trials_2.thisRepN,trials_2.thisTrialN,trials_2.thisN,trials_2.thisIndex,trials.thisRepN,trials.thisTrialN,trials.thisN,trials.thisIndex,text.started,sound_1.started,BB_Trial.resp,BB_Trial.color,BB_Trial.rt,text.stopped,block,sound_4.started,participant,session,L/B,scene,condition,nTrialsPerBlock,date,expName,psychopyVersion,frameRate,Unnamed: 41
6,0,14,0,0.027777777777778,1.0,0,0.027777777777778,0.298245614035088,0,0.25,3.10526315789474,ReadingArea_rsl0-rcl2-esl100-rsm0-rcm2-esm29-rsr0-rcr25-esr310,exr/ReadingArea_rsl0-rcl2-esl100-rsm0-rcm2-esm29-rsr0-rcr25-esr310.exr,ReadingArea_rsl0-rcl2-esl100-rsm0-rcm2-esm29-rsr0-rcr25-esr310.npz,,,,,0,0,0,0,61.54851818084717,55.26085429191589,left,green,0.68,54.66450619697571,1,,EB,1,brightness,readingArea,realistic,72,2023-03-07_13h24.07.615,tripletExp_regina_11082022,2022.2.4,119.91845907085654,
5,3,9,0,1.0,0.298245614035088,0,0.444444444444444,0.298245614035088,0,0.444444444444444,1.0,ReadingArea_rsl0-rcl100-esl29-rsm0-rcm44-esm29-rsr0-rcr44-esr100,exr/ReadingArea_rsl0-rcl100-esl29-rsm0-rcm44-esm29-rsr0-rcr44-esr100.exr,ReadingArea_rsl0-rcl100-esl29-rsm0-rcm44-esm29-rsr0-rcr44-esr100.npz,,,,,0,1,1,1,63.5484561920166,,left,green,1.19,63.87419319152832,1,,EB,1,brightness,readingArea,realistic,72,2023-03-07_13h24.07.615,tripletExp_regina_11082022,2022.2.4,119.91845907085654,
9,7,11,0,0.444444444444444,1.0,0,0.111111111111111,1.0,0,1.0,1.0,ReadingArea_rsl0-rcl44-esl100-rsm0-rcm11-esm100-rsr0-rcr100-esr100,exr/ReadingArea_rsl0-rcl44-esl100-rsm0-rcm11-esm100-rsr0-rcr100-esr100.exr,ReadingArea_rsl0-rcl44-esl100-rsm0-rcm11-esm100-rsr0-rcr100-esr100.npz,,,,,0,2,2,2,65.6322181224823,,left,green,2.25,65.92221903800964,1,,EB,1,brightness,readingArea,realistic,72,2023-03-07_13h24.07.615,tripletExp_regina_11082022,2022.2.4,119.91845907085654,
0,2,3,0,0.027777777777778,0.298245614035088,0,0.25,0.298245614035088,0,0.444444444444444,0.298245614035088,ReadingArea_rsl0-rcl2-esl29-rsm0-rcm25-esm29-rsr0-rcr44-esr29,exr/ReadingArea_rsl0-rcl2-esl29-rsm0-rcm25-esm29-rsr0-rcr44-esr29.exr,ReadingArea_rsl0-rcl2-esl29-rsm0-rcm25-esm29-rsr0-rcr44-esr29.npz,,,,,0,3,3,3,69.42369103431702,,right,red,0.97,69.69930410385132,1,,EB,1,brightness,readingArea,realistic,72,2023-03-07_13h24.07.615,tripletExp_regina_11082022,2022.2.4,119.91845907085654,
7,4,5,0,0.111111111111111,1.0,0,0.694444444444444,0.298245614035088,0,1.0,0.298245614035088,ReadingArea_rsl0-rcl11-esl100-rsm0-rcm69-esm29-rsr0-rcr100-esr29,exr/ReadingArea_rsl0-rcl11-esl100-rsm0-rcm69-esm29-rsr0-rcr100-esr29.exr,ReadingArea_rsl0-rcl11-esl100-rsm0-rcm69-esm29-rsr0-rcr100-esr29.npz,,,,,0,4,4,4,71.44460606575012,,right,red,2.23,71.72811102867126,1,,EB,1,brightness,readingArea,realistic,72,2023-03-07_13h24.07.615,tripletExp_regina_11082022,2022.2.4,119.91845907085654,
1,12,2,0,0.111111111111111,0.298245614035088,0,0.027777777777778,3.10526315789474,0,0.25,0.298245614035088,ReadingArea_rsl0-rcl11-esl29-rsm0-rcm2-esm310-rsr0-rcr25-esr29,exr/ReadingArea_rsl0-rcl11-esl29-rsm0-rcm2-esm310-rsr0-rcr25-esr29.exr,ReadingArea_rsl0-rcl11-esl29-rsm0-rcm2-esm310-rsr0-rcr25-esr29.npz,,,,,0,5,5,5,75.28644704818726,,right,red,2.16,75.59841918945312,1,,EB,1,brightness,readingArea,realistic,72,2023-03-07_13h24.07.615,tripletExp_regina_11082022,2022.2.4,119.91845907085654,
11,10,3,0,1.0,1.0,0,0.694444444444444,1.0,0,0.444444444444444,0.298245614035088,ReadingArea_rsl0-rcl100-esl100-rsm0-rcm69-esm100-rsr0-rcr44-esr29,exr/ReadingArea_rsl0-rcl100-esl100-rsm0-rcm69-esm100-rsr0-rcr44-esr29.exr,ReadingArea_rsl0-rcl100-esl100-rsm0-rcm69-esm100-rsr0-rcr44-esr29.npz,,,,,0,6,6,6,79.10247111320496,,left,green,0.98,79.38082098960876,1,,EB,1,brightness,readingArea,realistic,72,2023-03-07_13h24.07.615,tripletExp_regina_11082022,2022.2.4,119.91845907085654,
1,3,7,0,0.111111111111111,0.298245614035088,0,0.444444444444444,0.298245614035088,0,0.111111111111111,1.0,ReadingArea_rsl0-rcl11-esl29-rsm0-rcm44-esm29-rsr0-rcr11-esr100,exr/ReadingArea_rsl0-rcl11-esl29-rsm0-rcm44-esm29-rsr0-rcr11-esr100.exr,ReadingArea_rsl0-rcl11-esl29-rsm0-rcm44-esm29-rsr0-rcr11-esr100.npz,,,,,0,7,7,7,81.11874103546143,,right,red,2.34,81.39449715614319,1,,EB,1,brightness,readingArea,realistic,72,2023-03-07_13h24.07.615,tripletExp_regina_11082022,2022.2.4,119.91845907085654,
5,6,11,0,1.0,0.298245614035088,0,0.027777777777778,1.0,0,1.0,1.0,ReadingArea_rsl0-rcl100-esl29-rsm0-rcm2-esm100-rsr0-rcr100-esr100,exr/ReadingArea_rsl0-rcl100-esl29-rsm0-rcm2-esm100-rsr0-rcr100-esr100.exr,ReadingArea_rsl0-rcl100-esl29-rsm0-rcm2-esm100-rsr0-rcr100-esr100.npz,,,,,0,8,8,8,84.89480900764465,,left,green,2.23,85.21455407142639,1,,EB,1,brightness,readingArea,realistic,72,2023-03-07_13h24.07.615,tripletExp_regina_11082022,2022.2.4,119.91845907085654,
13,8,4,0,0.111111111111111,3.10526315789474,0,0.25,1.0,0,0.694444444444444,0.298245614035088,ReadingArea_rsl0-rcl11-esl310-rsm0-rcm25-esm100-rsr0-rcr69-esr29,exr/ReadingArea_rsl0-rcl11-esl310-rsm0-rcm25-esm100-rsr0-rcr69-esr29.exr,ReadingArea_rsl0-rcl11-esl310-rsm0-rcm25-esm100-rsr0-rcr69-esr29.npz,,,,,0,9,9,9,88.7352020740509,,right,red,2.65,,1,,EB,1,brightness,readingArea,realistic,72,2023-03-07_13h24.07.615,tripletExp_regina_11082022,2022.2.4,119.91845907085654,
12,4,0,0,0.027777777777778,3.10526315789474,0,0.694444444444444,0.298245614035088,0,0.027777777777778,0.298245614035088,ReadingArea_rsl0-rcl2-esl310-rsm0-rcm69-esm29-rsr0-rcr2-esr29,exr/ReadingArea_rsl0-rcl2-esl310-rsm0-rcm69-esm29-rsr0-rcr2-esr29.exr,ReadingArea_rsl0-rcl2-esl310-rsm0-rcm69-esm29-rsr0-rcr2-esr29.npz,,,,,0,10,10,10,92.5745689868927,,left,green,1.1,92.89143800735474,1,,EB,1,brightness,readingArea,realistic,72,2023-03-07_13h24.07.615,tripletExp_regina_11082022,2022.2.4,119.91845907085654,
13,0,9,0,0.111111111111111,3.10526315789474,0,0.027777777777778,0.298245614035088,0,0.444444444444444,1.0,ReadingArea_rsl0-rcl11-esl310-rsm0-rcm2-esm29-rsr0-rcr44-esr100,exr/ReadingArea_rsl0-rcl11-esl310-rsm0-rcm2-esm29-rsr0-rcr44-esr100.exr,ReadingArea_rsl0-rcl11-esl310-rsm0-rcm2-esm29-rsr0-rcr44-esr100.npz,,,,,0,11,11,11,94.61369013786316,,left,green,2.62,94.88729906082152,1,,EB,1,brightness,readingArea,realistic,72,2023-03-07_13h24.07.615,tripletExp_regina_11082022,2022.2.4,119.91845907085654,
9,7,10,0,0.444444444444444,1.0,0,0.111111111111111,1.0,0,0.694444444444444,1.0,ReadingArea_rsl0-rcl44-esl100-rsm0-rcm11-esm100-rsr0-rcr69-esr100,exr/ReadingArea_rsl0-rcl44-esl100-rsm0-rcm11-esm100-rsr0-rcr69-esr100.exr,ReadingArea_rsl0-rcl44-esl100-rsm0-rcm11-esm100-rsr0-rcr69-esr100.npz,,,,,0,12,12,12,98.41016411781312,,left,green,2.28,,1,,EB,1,brightness,readingArea,realistic,72,2023-03-07_13h24.07.615,tripletExp_regina_11082022,2022.2.4,119.91845907085654,
13,8,7,0,0.111111111111111,3.10526315789474,0,0.25,1.0,0,0.111111111111111,1.0,ReadingArea_rsl0-rcl11-esl310-rsm0-rcm25-esm100-rsr0-rcr11-esr100,exr/ReadingArea_rsl0-rcl11-esl310-rsm0-rcm25-esm100-rsr0-rcr11-esr100.exr,ReadingArea_rsl0-rcl11-esl310-rsm0-rcm25-esm100-rsr0-rcr11-esr100.npz,,,,,0,13,13,13,102.27240300178528,,left,green,0.87,102.54760313034058,1,,EB,1,brightness,readingArea,realistic,72,2023-03-07_13h24.07.615,tripletExp_regina_11082022,2022.2.4,119.91845907085654,
13,2,12,0,0.111111111111111,3.10526315789474,0,0.25,0.298245614035088,0,0.027777777777778,3.10526315789474,ReadingArea_rsl0-rcl11-esl310-rsm0-rcm25-esm29-rsr0-rcr2-esr310,exr/ReadingArea_rsl0-rcl11-esl310-rsm0-rcm25-esm29-rsr0-rcr2-esr310.exr,ReadingArea_rsl0-rcl11-esl310-rsm0-rcm25-esm29-rsr0-rcr2-esr310.npz,,,,,0,14,14,14,104.2867500782013,,right,red,2.1,104.5643961429596,1,,EB,1,brightness,readingArea,realistic,72,2023-03-07_13h24.07.615,tripletExp_regina_11082022,2022.2.4,119.91845907085654,
0,11,1,0,0.027777777777778,0.298245614035088,0,1.0,1.0,0,0.111111111111111,0.298245614035088,ReadingArea_rsl0-rcl2-esl29-rsm0-rcm100-esm100-rsr0-rcr11-esr29,exr/ReadingArea_rsl0-rcl2-esl29-rsm0-rcm100-esm100-rsr0-rcr11-esr29.exr,ReadingArea_rsl0-rcl2-esl29-rsm0-rcm100-esm100-rsr0-rcr11-esr29.npz,,,,,0,15,15,15,108.12314009666444,,right,red,2.12,108.4372911453247,1,,EB,1,brightness,readingArea,realistic,72,2023-03-07_13h24.07.615,tripletExp_regina_11082022,2022.2.4,119.91845907085654,
0,5,4,0,0.027777777777778,0.298245614035088,0,1.0,0.298245614035088,0,0.694444444444444,0.298245614035088,ReadingArea_rsl0-rcl2-esl29-rsm0-rcm100-esm29-rsr0-rcr69-esr29,exr/ReadingArea_rsl0-rcl2-esl29-rsm0-rcm100-esm29-rsr0-rcr69-esr29.exr,ReadingArea_rsl0-rcl2-esl29-rsm0-rcm100-esm29-rsr0-rcr69-esr29.npz,,,,,0,16,16,16,111.93929815292358,,right,red,0.76,112.2522292137146,1,,EB,1,brightness,readingArea,realistic,72,2023-03-07_13h24.07.615,tripletExp_regina_11082022,2022.2.4,119.91845907085654,
3,8,13,0,0.444444444444444,0.298245614035088,0,0.25,1.0,0,0.111111111111111,3.10526315789474,ReadingArea_rsl0-rcl44-esl29-rsm0-rcm25-esm100-rsr0-rcr11-esr310,exr/ReadingArea_rsl0-rcl44-esl29-rsm0-rcm25-esm100-rsr0-rcr11-esr310.exr,ReadingArea_rsl0-rcl44-esl29-rsm0-rcm25-esm100-rsr0-rcr11-esr310.npz,,,,,0,17,17,17,113.9765830039978,,,red,0.76,114.24896907806396,1,119.2086103439331,EB,1,brightness,readingArea,realistic,72,2023-03-07_13h24.07.615,tripletExp_regina_11082022,2022.2.4,119.91845907085654,
8,14,1,0,0.25,1.0,0,0.25,3.10526315789474,0,0.111111111111111,0.298245614035088,ReadingArea_rsl0-rcl25-esl100-rsm0-rcm25-esm310-rsr0-rcr11-esr29,exr/ReadingArea_rsl0-rcl25-esl100-rsm0-rcm25-esm310-rsr0-rcr11-esr29.exr,ReadingArea_rsl0-rcl25-esl100-rsm0-rcm25-esm310-rsr0-rcr11-esr29.npz,,,,,0,18,18,18,119.57355904579164,,left,green,0.74,119.85033822059631,1,,EB,1,brightness,readingArea,realistic,72,2023-03-07_13h24.07.615,tripletExp_regina_11082022,2022.2.4,119.91845907085654,
13,6,5,0,0.111111111111111,3.10526315789474,0,0.027777777777778,1.0,0,1.0,0.298245614035088,ReadingArea_rsl0-rcl11-esl310-rsm0-rcm2-esm100-rsr0-rcr100-esr29,exr/ReadingArea_rsl0-rcl11-esl310-rsm0-rcm2-esm100-rsr0-rcr100-esr29.exr,ReadingArea_rsl0-rcl11-esl310-rsm0-rcm2-esm100-rsr0-rcr100-esr29.npz,,,,,0,19,19,19,121.5920112133026,,left,green,1.19,121.86720418930054,1,,EB,1,brightness,readingArea,realistic,72,2023-03-07_13h24.07.615,tripletExp_regina_11082022,2022.2.4,119.91845907085654,
12,5,6,0,0.027777777777778,3.10526315789474,0,1.0,0.298245614035088,0,0.027777777777778,1.0,ReadingArea_rsl0-rcl2-esl310-rsm0-rcm100-esm29-rsr0-rcr2-esr100,exr/ReadingArea_rsl0-rcl2-esl310-rsm0-rcm100-esm29-rsr0-rcr2-esr100.exr,ReadingArea_rsl0-rcl2-esl310-rsm0-rcm100-esm29-rsr0-rcr2-esr100.npz,,,,,0,20,20,20,123.60147714614868,,left,green,2.18,123.88524317741394,1,,EB,1,brightness,readingArea,realistic,72,2023-03-07_13h24.07.615,tripletExp_regina_11082022,2022.2.4,119.91845907085654,
0,9,5,0,0.027777777777778,0.298245614035088,0,0.444444444444444,1.0,0,1.0,0.298245614035088,ReadingArea_rsl0-rcl2-esl29-rsm0-rcm44-esm100-rsr0-rcr100-esr29,exr/ReadingArea_rsl0-rcl2-esl29-rsm0-rcm44-esm100-rsr0-rcr100-esr29.exr,ReadingArea_rsl0-rcl2-esl29-rsm0-rcm44-esm100-rsr0-rcr100-esr29.npz,,,,,0,21,21,21,127.4096109867096,,right,red,0.77,127.7215690612793,1,,EB,1,brightness,readingArea,realistic,72,2023-03-07_13h24.07.615,tripletExp_regina_11082022,2022.2.4,119.91845907085654,
9,6,1,0,0.444444444444444,1.0,0,0.027777777777778,1.0,0,0.111111111111111,0.298245614035088,ReadingArea_rsl0-rcl44-esl100-rsm0-rcm2-esm100-rsr0-rcr11-esr29,exr/ReadingArea_rsl0-rcl44-esl100-rsm0-rcm2-esm100-rsr0-rcr11-esr29.exr,ReadingArea_rsl0-rcl44-esl100-rsm0-rcm2-esm100-rsr0-rcr11-esr29.npz,,,,,0,22,22,22,129.4538860321045,,right,red,0.78,129.72670102119446,1,,EB,1,brightness,readingArea,realistic,72,2023-03-07_13h24.07.615,tripletExp_regina_11082022,2022.2.4,119.91845907085654,
1,6,3,0,0.111111111111111,0.298245614035088,0,0.027777777777778,1.0,0,0.444444444444444,0.298245614035088,ReadingArea_rsl0-rcl11-esl29-rsm0-rcm2-esm100-rsr0-rcr44-esr29,exr/ReadingArea_rsl0-rcl11-esl29-rsm0-rcm2-esm100-rsr0-rcr44-esr29.exr,ReadingArea_rsl0-rcl11-esl29-rsm0-rcm2-esm100-rsr0-rcr44-esr29.npz,,,,,0,23,23,23,131.48547101020813,,left,green,0.59,131.75954699516296,1,,EB,1,brightness,readingArea,realistic,72,2023-03-07_13h24.07.615,tripletExp_regina_11082022,2022.2.4,119.91845907085654,
2,8,12,0,0.25,0.298245614035088,0,0.25,1.0,0,0.027777777777778,3.10526315789474,ReadingArea_rsl0-rcl25-esl29-rsm0-rcm25-esm100-rsr0-rcr2-esr310,exr/ReadingArea_rsl0-rcl25-esl29-rsm0-rcm25-esm100-rsr0-rcr2-esr310.exr,ReadingArea_rsl0-rcl25-esl29-rsm0-rcm25-esm100-rsr0-rcr2-esr310.npz,,,,,0,24,24,24,133.50894117355347,,left,green,2.96,133.78457307815552,1,,EB,1,brightness,readingArea,realistic,72,2023-03-07_13h24.07.615,tripletExp_regina_11082022,2022.2.4,119.91845907085654,
8,14,11,0,0.25,1.0,0,0.25,3.10526315789474,0,1.0,1.0,ReadingArea_rsl0-rcl25-esl100-rsm0-rcm25-esm310-rsr0-rcr100-esr100,exr/ReadingArea_rsl0-rcl25-esl100-rsm0-rcm25-esm310-rsr0-rcr100-esr100.exr,ReadingArea_rsl0-rcl25-esl100-rsm0-rcm25-esm310-rsr0-rcr100-esr100.npz,,,,,0,25,25,25,137.29191207885742,,right,red,0.71,137.57116222381592,1,,EB,1,brightness,readingArea,realistic,72,2023-03-07_13h24.07.615,tripletExp_regina_11082022,2022.2.4,119.91845907085654,
13,6,14,0,0.111111111111111,3.10526315789474,0,0.027777777777778,1.0,0,0.25,3.10526315789474,ReadingArea_rsl0-rcl11-esl310-rsm0-rcm2-esm100-rsr0-rcr25-esr310,exr/ReadingArea_rsl0-rcl11-esl310-rsm0-rcm2-esm100-rsr0-rcr25-esr310.exr,ReadingArea_rsl0-rcl11-esl310-rsm0-rcm2-esm100-rsr0-rcr25-esr310.npz,,,,,0,26,26,26,139.2987141609192,,left,green,0.8,139.5776240825653,1,,EB,1,brightness,readingArea,realistic,72,2023-03-07_13h24.07.615,tripletExp_regina_11082022,2022.2.4,119.91845907085654,
11,1,7,0,1.0,1.0,0,0.111111111111111,0.298245614035088,0,0.111111111111111,1.0,ReadingArea_rsl0-rcl100-esl100-rsm0-rcm11-esm29-rsr0-rcr11-esr100,exr/ReadingArea_rsl0-rcl100-esl100-rsm0-rcm11-esm29-rsr0-rcr11-esr100.exr,ReadingArea_rsl0-rcl100-esl100-rsm0-rcm11-esm29-rsr0-rcr11-esr100.npz,,,,,0,27,27,27,141.3348171710968,,right,red,0.65,141.61138606071472,1,,EB,1,brightness,readingArea,realistic,72,2023-03-07_13h24.07.615,tripletExp_regina_11082022,2022.2.4,119.91845907085654,
4,9,8,0,0.694444444444444,0.298245614035088,0,0.444444444444444,1.0,0,0.25,1.0,ReadingArea_rsl0-rcl69-esl29-rsm0-rcm44-esm100-rsr0-rcr25-esr100,exr/ReadingArea_rsl0-rcl69-esl29-rsm0-rcm44-esm100-rsr0-rcr25-esr100.exr,ReadingArea_rsl0-rcl69-esl29-rsm0-rcm44-esm100-rsr0-rcr25-esr100.npz,,,,,0,28,28,28,143.34285616874695,,right,red,2.09,143.61987614631653,1,,EB,1,brightness,readingArea,realistic,72,2023-03-07_13h24.07.615,tripletExp_regina_11082022,2022.2.4,119.91845907085654,
6,2,3,0,0.027777777777778,1.0,0,0.25,0.298245614035088,0,0.444444444444444,0.298245614035088,ReadingArea_rsl0-rcl2-esl100-rsm0-rcm25-esm29-rsr0-rcr44-esr29,exr/ReadingArea_rsl0-rcl2-esl100-rsm0-rcm25-esm29-rsr0-rcr44-esr29.exr,ReadingArea_rsl0-rcl2-esl100-rsm0-rcm25-esm29-rsr0-rcr44-esr29.npz,,,,,0,29,29,29,147.16505408287048,,right,red,0.95,147.4820601940155,1,,EB,1,brightness,readingArea,realistic,72,2023-03-07_13h24.07.615,tripletExp_regina_11082022,2022.2.4,119.91845907085654,
9,0,10,0,0.444444444444444,1.0,0,0.027777777777778,0.298245614035088,0,0.694444444444444,1.0,ReadingArea_rsl0-rcl44-esl100-rsm0-rcm2-esm29-rsr0-rcr69-esr100,exr/ReadingArea_rsl0-rcl44-esl100-rsm0-rcm2-esm29-rsr0-rcr69-esr100.exr,ReadingArea_rsl0-rcl44-esl100-rsm0-rcm2-esm29-rsr0-rcr69-esr100.npz,,,,,0,30,30,30,149.23021507263184,,left,green,0.92,149.50444102287292,1,,EB,1,brightness,readingArea,realistic,72,2023-03-07_13h24.07.615,tripletExp_regina_11082022,2022.2.4,119.91845907085654,
7,11,13,0,0.111111111111111,1.0,0,1.0,1.0,0,0.111111111111111,3.10526315789474,ReadingArea_rsl0-rcl11-esl100-rsm0-rcm100-esm100-rsr0-rcr11-esr310,exr/ReadingArea_rsl0-rcl11-esl100-rsm0-rcm100-esm100-rsr0-rcr11-esr310.exr,ReadingArea_rsl0-rcl11-esl100-rsm0-rcm100-esm100-rsr0-rcr11-esr310.npz,,,,,0,31,31,31,151.23500514030457,,right,red,0.9,,1,,EB,1,brightness,readingArea,realistic,72,2023-03-07_13h24.07.615,tripletExp_regina_11082022,2022.2.4,119.91845907085654,
2,9,1,0,0.25,0.298245614035088,0,0.444444444444444,1.0,0,0.111111111111111,0.298245614035088,ReadingArea_rsl0-rcl25-esl29-rsm0-rcm44-esm100-rsr0-rcr11-esr29,exr/ReadingArea_rsl0-rcl25-esl29-rsm0-rcm44-esm100-rsr0-rcr11-esr29.exr,ReadingArea_rsl0-rcl25-esl29-rsm0-rcm44-esm100-rsr0-rcr11-esr29.npz,,,,,0,32,32,32,153.25261306762695,,left,green,0.93,,1,,EB,1,brightness,readingArea,realistic,72,2023-03-07_13h24.07.615,tripletExp_regina_11082022,2022.2.4,119.91845907085654,
3,14,9,0,0.444444444444444,0.298245614035088,0,0.25,3.10526315789474,0,0.444444444444444,1.0,ReadingArea_rsl0-rcl44-esl29-rsm0-rcm25-esm310-rsr0-rcr44-esr100,exr/ReadingArea_rsl0-rcl44-esl29-rsm0-rcm25-esm310-rsr0-rcr44-esr100.exr,ReadingArea_rsl0-rcl44-esl29-rsm0-rcm25-esm310-rsr0-rcr44-esr100.npz,,,,,0,33,33,33,155.27500200271606,,right,red,0.89,155.54727220535278,1,,EB,1,brightness,readingArea,realistic,72,2023-03-07_13h24.07.615,tripletExp_regina_11082022,2022.2.4,119.91845907085654,
14,4,3,0,0.25,3.10526315789474,0,0.694444444444444,0.298245614035088,0,0.444444444444444,0.298245614035088,ReadingArea_rsl0-rcl25-esl310-rsm0-rcm69-esm29-rsr0-rcr44-esr29,exr/ReadingArea_rsl0-rcl25-esl310-rsm0-rcm69-esm29-rsr0-rcr44-esr29.exr,ReadingArea_rsl0-rcl25-esl310-rsm0-rcm69-esm29-rsr0-rcr44-esr29.npz,,,,,0,34,34,34,157.3871190547943,,right,red,2.75,157.6662290096283,1,,EB,1,brightness,readingArea,realistic,72,2023-03-07_13h24.07.615,tripletExp_regina_11082022,2022.2.4,119.91845907085654,
8,7,10,0,0.25,1.0,0,0.111111111111111,1.0,0,0.694444444444444,1.0,ReadingArea_rsl0-rcl25-esl100-rsm0-rcm11-esm100-rsr0-rcr69-esr100,exr/ReadingArea_rsl0-rcl25-esl100-rsm0-rcm11-esm100-rsr0-rcr69-esr100.exr,ReadingArea_rsl0-rcl25-esl100-rsm0-rcm11-esm100-rsr0-rcr69-esr100.npz,,,,,0,35,35,35,161.17937111854553,,left,green,0.76,161.45700812339783,1,,EB,1,brightness,readingArea,realistic,72,2023-03-07_13h24.07.615,tripletExp_regina_11082022,2022.2.4,119.91845907085654,
3,7,13,0,0.444444444444444,0.298245614035088,0,0.111111111111111,1.0,0,0.111111111111111,3.10526315789474,ReadingArea_rsl0-rcl44-esl29-rsm0-rcm11-esm100-rsr0-rcr11-esr310,exr/ReadingArea_rsl0-rcl44-esl29-rsm0-rcm11-esm100-rsr0-rcr11-esr310.exr,ReadingArea_rsl0-rcl44-esl29-rsm0-rcm11-esm100-rsr0-rcr11-esr310.npz,,,,,0,36,36,36,163.19540905952454,,left,green,0.76,,1,,EB,1,brightness,readingArea,realistic,72,2023-03-07_13h24.07.615,tripletExp_regina_11082022,2022.2.4,119.91845907085654,
5,3,14,0,1.0,0.298245614035088,0,0.444444444444444,0.298245614035088,0,0.25,3.10526315789474,ReadingArea_rsl0-rcl100-esl29-rsm0-rcm44-esm29-rsr0-rcr25-esr310,exr/ReadingArea_rsl0-rcl100-esl29-rsm0-rcm44-esm29-rsr0-rcr25-esr310.exr,ReadingArea_rsl0-rcl100-esl29-rsm0-rcm44-esm29-rsr0-rcr25-esr310.npz,,,,,0,37,37,37,165.2205731868744,,left,green,0.82,,1,,EB,1,brightness,readingArea,realistic,72,2023-03-07_13h24.07.615,tripletExp_regina_11082022,2022.2.4,119.91845907085654,
2,10,8,0,0.25,0.298245614035088,0,0.694444444444444,1.0,0,0.25,1.0,ReadingArea_rsl0-rcl25-esl29-rsm0-rcm69-esm100-rsr0-rcr25-esr100,exr/ReadingArea_rsl0-rcl25-esl29-rsm0-rcm69-esm100-rsr0-rcr25-esr100.exr,ReadingArea_rsl0-rcl25-esl29-rsm0-rcm69-esm100-rsr0-rcr25-esr100.npz,,,,,0,38,38,38,167.25491619110107,,right,red,0.93,,1,,EB,1,brightness,readingArea,realistic,72,2023-03-07_13h24.07.615,tripletExp_regina_11082022,2022.2.4,119.91845907085654,
4,8,11,0,0.694444444444444,0.298245614035088,0,0.25,1.0,0,1.0,1.0,ReadingArea_rsl0-rcl69-esl29-rsm0-rcm25-esm100-rsr0-rcr100-esr100,exr/ReadingArea_rsl0-rcl69-esl29-rsm0-rcm25-esm100-rsr0-rcr100-esr100.exr,ReadingArea_rsl0-rcl69-esl29-rsm0-rcm25-esm100-rsr0-rcr100-esr100.npz,,,,,0,39,39,39,169.28000903129578,,left,green,1.02,,1,,EB,1,brightness,readingArea,realistic,72,2023-03-07_13h24.07.615,tripletExp_regina_11082022,2022.2.4,119.91845907085654,
9,8,7,0,0.444444444444444,1.0,0,0.25,1.0,0,0.111111111111111,1.0,ReadingArea_rsl0-rcl44-esl100-rsm0-rcm25-esm100-rsr0-rcr11-esr100,exr/ReadingArea_rsl0-rcl44-esl100-rsm0-rcm25-esm100-rsr0-rcr11-esr100.exr,ReadingArea_rsl0-rcl44-esl100-rsm0-rcm25-esm100-rsr0-rcr11-esr100.npz,,,,,0,40,40,40,171.29808712005615,,right,red,2.91,171.575355052948,1,,EB,1,brightness,readingArea,realistic,72,2023-03-07_13h24.07.615,tripletExp_regina_11082022,2022.2.4,119.91845907085654,
2,5,10,0,0.25,0.298245614035088,0,1.0,0.298245614035088,0,0.694444444444444,1.0,ReadingArea_rsl0-rcl25-esl29-rsm0-rcm100-esm29-rsr0-rcr69-esr100,exr/ReadingArea_rsl0-rcl25-esl29-rsm0-rcm100-esm29-rsr0-rcr69-esr100.exr,ReadingArea_rsl0-rcl25-esl29-rsm0-rcm100-esm29-rsr0-rcr69-esr100.npz,,,,,0,41,41,41,175.07186818122864,,right,red,2.78,,1,,EB,1,brightness,readingArea,realistic,72,2023-03-07_13h24.07.615,tripletExp_regina_11082022,2022.2.4,119.91845907085654,
4,6,11,0,0.694444444444444,0.298245614035088,0,0.027777777777778,1.0,0,1.0,1.0,ReadingArea_rsl0-rcl69-esl29-rsm0-rcm2-esm100-rsr0-rcr100-esr100,exr/ReadingArea_rsl0-rcl69-esl29-rsm0-rcm2-esm100-rsr0-rcr100-esr100.exr,ReadingArea_rsl0-rcl69-esl29-rsm0-rcm2-esm100-rsr0-rcr100-esr100.npz,,,,,0,42,42,42,178.87301206588745,,left,green,2.05,,1,,EB,1,brightness,readingArea,realistic,72,2023-03-07_13h24.07.615,tripletExp_regina_11082022,2022.2.4,119.91845907085654,
7,13,9,0,0.111111111111111,1.0,0,0.111111111111111,3.10526315789474,0,0.444444444444444,1.0,ReadingArea_rsl0-rcl11-esl100-rsm0-rcm11-esm310-rsr0-rcr44-esr100,exr/ReadingArea_rsl0-rcl11-esl100-rsm0-rcm11-esm310-rsr0-rcr44-esr100.exr,ReadingArea_rsl0-rcl11-esl100-rsm0-rcm11-esm310-rsr0-rcr44-esr100.npz,,,,,0,43,43,43,182.64871501922607,,right,red,0.74,,1,,EB,1,brightness,readingArea,realistic,72,2023-03-07_13h24.07.615,tripletExp_regina_11082022,2022.2.4,119.91845907085654,
6,9,10,0,0.027777777777778,1.0,0,0.444444444444444,1.0,0,0.694444444444444,1.0,ReadingArea_rsl0-rcl2-esl100-rsm0-rcm44-esm100-rsr0-rcr69-esr100,exr/ReadingArea_rsl0-rcl2-esl100-rsm0-rcm44-esm100-rsr0-rcr69-esr100.exr,ReadingArea_rsl0-rcl2-esl100-rsm0-rcm44-esm100-rsr0-rcr69-esr100.npz,,,,,0,44,44,44,184.6783871650696,,right,red,0.6,184.95121908187863,1,,EB,1,brightness,readingArea,realistic,72,2023-03-07_13h24.07.615,tripletExp_regina_11082022,2022.2.4,119.91845907085654,
2,1,5,0,0.25,0.298245614035088,0,0.111111111111111,0.298245614035088,0,1.0,0.298245614035088,ReadingArea_rsl0-rcl25-esl29-rsm0-rcm11-esm29-rsr0-rcr100-esr29,exr/ReadingArea_rsl0-rcl25-esl29-rsm0-rcm11-esm29-rsr0-rcr100-esr29.exr,ReadingArea_rsl0-rcl25-esl29-rsm0-rcm11-esm29-rsr0-rcr100-esr29.npz,,,,,0,45,45,45,186.6957402229309,,left,green,0.65,186.9680562019348,1,,EB,1,brightness,readingArea,realistic,72,2023-03-07_13h24.07.615,tripletExp_regina_11082022,2022.2.4,119.91845907085654,
7,1,0,0,0.111111111111111,1.0,0,0.111111111111111,0.298245614035088,0,0.027777777777778,0.298245614035088,ReadingArea_rsl0-rcl11-esl100-rsm0-rcm11-esm29-rsr0-rcr2-esr29,exr/ReadingArea_rsl0-rcl11-esl100-rsm0-rcm11-esm29-rsr0-rcr2-esr29.exr,ReadingArea_rsl0-rcl11-esl100-rsm0-rcm11-esm29-rsr0-rcr2-esr29.npz,,,,,0,46,46,46,188.718679189682,,left,green,1.03,188.9939041137696,1,,EB,1,brightness,readingArea,realistic,72,2023-03-07_13h24.07.615,tripletExp_regina_11082022,2022.2.4,119.91845907085654,
8,6,7,0,0.25,1.0,0,0.027777777777778,1.0,0,0.111111111111111,1.0,ReadingArea_rsl0-rcl25-esl100-rsm0-rcm2-esm100-rsr0-rcr11-esr100,exr/ReadingArea_rsl0-rcl25-esl100-rsm0-rcm2-esm100-rsr0-rcr11-esr100.exr,ReadingArea_rsl0-rcl25-esl100-rsm0-rcm2-esm100-rsr0-rcr11-esr100.npz,,,,,0,47,47,47,190.75829100608823,,right,red,0.91,,1,,EB,1,brightness,readingArea,realistic,72,2023-03-07_13h24.07.615,tripletExp_regina_11082022,2022.2.4,119.91845907085654,
3,14,1,0,0.444444444444444,0.298245614035088,0,0.25,3.10526315789474,0,0.111111111111111,0.298245614035088,ReadingArea_rsl0-rcl44-esl29-rsm0-rcm25-esm310-rsr0-rcr11-esr29,exr/ReadingArea_rsl0-rcl44-esl29-rsm0-rcm25-esm310-rsr0-rcr11-esr29.exr,ReadingArea_rsl0-rcl44-esl29-rsm0-rcm25-esm310-rsr0-rcr11-esr29.npz,,,,,0,48,48,48,192.7841801643372,,left,green,0.74,193.061359167099,1,,EB,1,brightness,readingArea,realistic,72,2023-03-07_13h24.07.615,tripletExp_regina_11082022,2022.2.4,119.91845907085654,
5,0,7,0,1.0,0.298245614035088,0,0.027777777777778,0.298245614035088,0,0.111111111111111,1.0,ReadingArea_rsl0-rcl100-esl29-rsm0-rcm2-esm29-rsr0-rcr11-esr100,exr/ReadingArea_rsl0-rcl100-esl29-rsm0-rcm2-esm29-rsr0-rcr11-esr100.exr,ReadingArea_rsl0-rcl100-esl29-rsm0-rcm2-esm29-rsr0-rcr11-esr100.npz,,,,,0,49,49,49,194.8167850971222,,right,red,0.93,,1,,EB,1,brightness,readingArea,realistic,72,2023-03-07_13h24.07.615,tripletExp_regina_11082022,2022.2.4,119.91845907085654,
14,13,4,0,0.25,3.10526315789474,0,0.111111111111111,3.10526315789474,0,0.694444444444444,0.298245614035088,ReadingArea_rsl0-rcl25-esl310-rsm0-rcm11-esm310-rsr0-rcr69-esr29,exr/ReadingArea_rsl0-rcl25-esl310-rsm0-rcm11-esm310-rsr0-rcr69-esr29.exr,ReadingArea_rsl0-rcl25-esl310-rsm0-rcm11-esm310-rsr0-rcr69-esr29.npz,,,,,0,50,50,50,196.8323550224304,,right,red,0.81,197.10340309143064,1,,EB,1,brightness,readingArea,realistic,72,2023-03-07_13h24.07.615,tripletExp_regina_11082022,2022.2.4,119.91845907085654,
10,8,7,0,0.694444444444444,1.0,0,0.25,1.0,0,0.111111111111111,1.0,ReadingArea_rsl0-rcl69-esl100-rsm0-rcm25-esm100-rsr0-rcr11-esr100,exr/ReadingArea_rsl0-rcl69-esl100-rsm0-rcm25-esm100-rsr0-rcr11-esr100.exr,ReadingArea_rsl0-rcl69-esl100-rsm0-rcm25-esm100-rsr0-rcr11-esr100.npz,,,,,0,51,51,51,198.8607621192932,,right,red,0.97,199.1373851299286,1,,EB,1,brightness,readingArea,realistic,72,2023-03-07_13h24.07.615,tripletExp_regina_11082022,2022.2.4,119.91845907085654,
9,6,7,0,0.444444444444444,1.0,0,0.027777777777778,1.0,0,0.111111111111111,1.0,ReadingArea_rsl0-rcl44-esl100-rsm0-rcm2-esm100-rsr0-rcr11-esr100,exr/ReadingArea_rsl0-rcl44-esl100-rsm0-rcm2-esm100-rsr0-rcr11-esr100.exr,ReadingArea_rsl0-rcl44-esl100-rsm0-rcm2-esm100-rsr0-rcr11-esr100.npz,,,,,0,52,52,52,200.8784770965576,,right,red,0.8,201.1539800167084,1,,EB,1,brightness,readingArea,realistic,72,2023-03-07_13h24.07.615,tripletExp_regina_11082022,2022.2.4,119.91845907085654,
12,0,6,0,0.027777777777778,3.10526315789474,0,0.027777777777778,0.298245614035088,0,0.027777777777778,1.0,ReadingArea_rsl0-rcl2-esl310-rsm0-rcm2-esm29-rsr0-rcr2-esr100,exr/ReadingArea_rsl0-rcl2-esl310-rsm0-rcm2-esm29-rsr0-rcr2-esr100.exr,ReadingArea_rsl0-rcl2-esl310-rsm0-rcm2-esm29-rsr0-rcr2-esr100.npz,,,,,0,53,53,53,202.91533398628235,,right,red,0.82,203.1882801055908,1,,EB,1,brightness,readingArea,realistic,72,2023-03-07_13h24.07.615,tripletExp_regina_11082022,2022.2.4,119.91845907085654,
5,2,4,0,1.0,0.298245614035088,0,0.25,0.298245614035088,0,0.694444444444444,0.298245614035088,ReadingArea_rsl0-rcl100-esl29-rsm0-rcm25-esm29-rsr0-rcr69-esr29,exr/ReadingArea_rsl0-rcl100-esl29-rsm0-rcm25-esm29-rsr0-rcr69-esr29.exr,ReadingArea_rsl0-rcl100-esl29-rsm0-rcm25-esm29-rsr0-rcr69-esr29.npz,,,,,0,54,54,54,204.93927717208865,,right,red,0.9,205.21247911453247,1,,EB,1,brightness,readingArea,realistic,72,2023-03-07_13h24.07.615,tripletExp_regina_11082022,2022.2.4,119.91845907085654,
4,13,8,0,0.694444444444444,0.298245614035088,0,0.111111111111111,3.10526315789474,0,0.25,1.0,ReadingArea_rsl0-rcl69-esl29-rsm0-rcm11-esm310-rsr0-rcr25-esr100,exr/ReadingArea_rsl0-rcl69-esl29-rsm0-rcm11-esm310-rsr0-rcr25-esr100.exr,ReadingArea_rsl0-rcl69-esl29-rsm0-rcm11-esm310-rsr0-rcr25-esr100.npz,,,,,0,55,55,55,206.99038219451904,,right,red,0.92,207.2629561424256,1,,EB,1,brightness,readingArea,realistic,72,2023-03-07_13h24.07.615,tripletExp_regina_11082022,2022.2.4,119.91845907085654,
9,5,11,0,0.444444444444444,1.0,0,1.0,0.298245614035088,0,1.0,1.0,ReadingArea_rsl0-rcl44-esl100-rsm0-rcm100-esm29-rsr0-rcr100-esr100,exr/ReadingArea_rsl0-rcl44-esl100-rsm0-rcm100-esm29-rsr0-rcr100-esr100.exr,ReadingArea_rsl0-rcl44-esl100-rsm0-rcm100-esm29-rsr0-rcr100-esr100.npz,,,,,0,56,56,56,209.0079910755157,,left,green,2.04,209.28085613250727,1,,EB,1,brightness,readingArea,realistic,72,2023-03-07_13h24.07.615,tripletExp_regina_11082022,2022.2.4,119.91845907085654,
1,11,6,0,0.111111111111111,0.298245614035088,0,1.0,1.0,0,0.027777777777778,1.0,ReadingArea_rsl0-rcl11-esl29-rsm0-rcm100-esm100-rsr0-rcr2-esr100,exr/ReadingArea_rsl0-rcl11-esl29-rsm0-rcm100-esm100-rsr0-rcr2-esr100.exr,ReadingArea_rsl0-rcl11-esl29-rsm0-rcm100-esm100-rsr0-rcr2-esr100.npz,,,,,0,57,57,57,212.80904817581177,,left,green,1.21,213.0804481506348,1,,EB,1,brightness,readingArea,realistic,72,2023-03-07_13h24.07.615,tripletExp_regina_11082022,2022.2.4,119.91845907085654,
10,1,9,0,0.694444444444444,1.0,0,0.111111111111111,0.298245614035088,0,0.444444444444444,1.0,ReadingArea_rsl0-rcl69-esl100-rsm0-rcm11-esm29-rsr0-rcr44-esr100,exr/ReadingArea_rsl0-rcl69-esl100-rsm0-rcm11-esm29-rsr0-rcr44-esr100.exr,ReadingArea_rsl0-rcl69-esl100-rsm0-rcm11-esm29-rsr0-rcr44-esr100.npz,,,,,0,58,58,58,214.8363962173462,,right,red,0.88,,1,,EB,1,brightness,readingArea,realistic,72,2023-03-07_13h24.07.615,tripletExp_regina_11082022,2022.2.4,119.91845907085654,
10,7,11,0,0.694444444444444,1.0,0,0.111111111111111,1.0,0,1.0,1.0,ReadingArea_rsl0-rcl69-esl100-rsm0-rcm11-esm100-rsr0-rcr100-esr100,exr/ReadingArea_rsl0-rcl69-esl100-rsm0-rcm11-esm100-rsr0-rcr100-esr100.exr,ReadingArea_rsl0-rcl69-esl100-rsm0-rcm11-esm100-rsr0-rcr100-esr100.npz,,,,,0,59,59,59,216.85341000556943,,left,green,1.18,,1,,EB,1,brightness,readingArea,realistic,72,2023-03-07_13h24.07.615,tripletExp_regina_11082022,2022.2.4,119.91845907085654,
3,9,13,0,0.444444444444444,0.298245614035088,0,0.444444444444444,1.0,0,0.111111111111111,3.10526315789474,ReadingArea_rsl0-rcl44-esl29-rsm0-rcm44-esm100-rsr0-rcr11-esr310,exr/ReadingArea_rsl0-rcl44-esl29-rsm0-rcm44-esm100-rsr0-rcr11-esr310.exr,ReadingArea_rsl0-rcl44-esl29-rsm0-rcm44-esm100-rsr0-rcr11-esr310.npz,,,,,0,60,60,60,218.8909962177277,,right,red,2.4,219.1708030700684,1,,EB,1,brightness,readingArea,realistic,72,2023-03-07_13h24.07.615,tripletExp_regina_11082022,2022.2.4,119.91845907085654,
4,9,6,0,0.694444444444444,0.298245614035088,0,0.444444444444444,1.0,0,0.027777777777778,1.0,ReadingArea_rsl0-rcl69-esl29-rsm0-rcm44-esm100-rsr0-rcr2-esr100,exr/ReadingArea_rsl0-rcl69-esl29-rsm0-rcm44-esm100-rsr0-rcr2-esr100.exr,ReadingArea_rsl0-rcl69-esl29-rsm0-rcm44-esm100-rsr0-rcr2-esr100.npz,,,,,0,61,61,61,222.69864320755005,,left,green,2.07,222.9747090339661,1,,EB,1,brightness,readingArea,realistic,72,2023-03-07_13h24.07.615,tripletExp_regina_11082022,2022.2.4,119.91845907085654,
8,5,14,0,0.25,1.0,0,1.0,0.298245614035088,0,0.25,3.10526315789474,ReadingArea_rsl0-rcl25-esl100-rsm0-rcm100-esm29-rsr0-rcr25-esr310,exr/ReadingArea_rsl0-rcl25-esl100-rsm0-rcm100-esm29-rsr0-rcr25-esr310.exr,ReadingArea_rsl0-rcl25-esl100-rsm0-rcm100-esm29-rsr0-rcr25-esr310.npz,,,,,0,62,62,62,226.5150601863861,,left,green,0.85,226.79070520401,1,,EB,1,brightness,readingArea,realistic,72,2023-03-07_13h24.07.615,tripletExp_regina_11082022,2022.2.4,119.91845907085654,
12,5,4,0,0.027777777777778,3.10526315789474,0,1.0,0.298245614035088,0,0.694444444444444,0.298245614035088,ReadingArea_rsl0-rcl2-esl310-rsm0-rcm100-esm29-rsr0-rcr69-esr29,exr/ReadingArea_rsl0-rcl2-esl310-rsm0-rcm100-esm29-rsr0-rcr69-esr29.exr,ReadingArea_rsl0-rcl2-esl310-rsm0-rcm100-esm29-rsr0-rcr69-esr29.npz,,,,,0,63,63,63,228.55261516571045,,right,red,0.8,228.8246591091156,1,,EB,1,brightness,readingArea,realistic,72,2023-03-07_13h24.07.615,tripletExp_regina_11082022,2022.2.4,119.91845907085654,
14,1,8,0,0.25,3.10526315789474,0,0.111111111111111,0.298245614035088,0,0.25,1.0,ReadingArea_rsl0-rcl25-esl310-rsm0-rcm11-esm29-rsr0-rcr25-esr100,exr/ReadingArea_rsl0-rcl25-esl310-rsm0-rcm11-esm29-rsr0-rcr25-esr100.exr,ReadingArea_rsl0-rcl25-esl310-rsm0-rcm11-esm29-rsr0-rcr25-esr100.npz,,,,,0,64,64,64,230.59167313575745,,right,red,0.85,230.8699781894684,1,,EB,1,brightness,readingArea,realistic,72,2023-03-07_13h24.07.615,tripletExp_regina_11082022,2022.2.4,119.91845907085654,
8,1,3,0,0.25,1.0,0,0.111111111111111,0.298245614035088,0,0.444444444444444,0.298245614035088,ReadingArea_rsl0-rcl25-esl100-rsm0-rcm11-esm29-rsr0-rcr44-esr29,exr/ReadingArea_rsl0-rcl25-esl100-rsm0-rcm11-esm29-rsr0-rcr44-esr29.exr,ReadingArea_rsl0-rcl25-esl100-rsm0-rcm11-esm29-rsr0-rcr44-esr29.npz,,,,,0,65,65,65,232.6189241409301,,right,red,0.71,232.89186215400696,1,,EB,1,brightness,readingArea,realistic,72,2023-03-07_13h24.07.615,tripletExp_regina_11082022,2022.2.4,119.91845907085654,
11,8,13,0,1.0,1.0,0,0.25,1.0,0,0.111111111111111,3.10526315789474,ReadingArea_rsl0-rcl100-esl100-rsm0-rcm25-esm100-rsr0-rcr11-esr310,exr/ReadingArea_rsl0-rcl100-esl100-rsm0-rcm25-esm100-rsr0-rcr11-esr310.exr,ReadingArea_rsl0-rcl100-esl100-rsm0-rcm25-esm100-rsr0-rcr11-esr310.npz,,,,,0,66,66,66,234.6435101032257,,right,red,0.86,234.9181392192841,1,,EB,1,brightness,readingArea,realistic,72,2023-03-07_13h24.07.615,tripletExp_regina_11082022,2022.2.4,119.91845907085654,
5,6,0,0,1.0,0.298245614035088,0,0.027777777777778,1.0,0,0.027777777777778,0.298245614035088,ReadingArea_rsl0-rcl100-esl29-rsm0-rcm2-esm100-rsr0-rcr2-esr29,exr/ReadingArea_rsl0-rcl100-esl29-rsm0-rcm2-esm100-rsr0-rcr2-esr29.exr,ReadingArea_rsl0-rcl100-esl29-rsm0-rcm2-esm100-rsr0-rcr2-esr29.npz,,,,,0,67,67,67,236.6614851951599,,right,red,0.76,236.9339439868927,1,,EB,1,brightness,readingArea,realistic,72,2023-03-07_13h24.07.615,tripletExp_regina_11082022,2022.2.4,119.91845907085654,
8,12,2,0,0.25,1.0,0,0.027777777777778,3.10526315789474,0,0.25,0.298245614035088,ReadingArea_rsl0-rcl25-esl100-rsm0-rcm2-esm310-rsr0-rcr25-esr29,exr/ReadingArea_rsl0-rcl25-esl100-rsm0-rcm2-esm310-rsr0-rcr25-esr29.exr,ReadingArea_rsl0-rcl25-esl100-rsm0-rcm2-esm310-rsr0-rcr25-esr29.npz,,,,,0,68,68,68,238.6932270526886,,right,red,0.78,238.96902298927307,1,,EB,1,brightness,readingArea,realistic,72,2023-03-07_13h24.07.615,tripletExp_regina_11082022,2022.2.4,119.91845907085654,
1,7,8,0,0.111111111111111,0.298245614035088,0,0.111111111111111,1.0,0,0.25,1.0,ReadingArea_rsl0-rcl11-esl29-rsm0-rcm11-esm100-rsr0-rcr25-esr100,exr/ReadingArea_rsl0-rcl11-esl29-rsm0-rcm11-esm100-rsr0-rcr25-esr100.exr,ReadingArea_rsl0-rcl11-esl29-rsm0-rcm11-esm100-rsr0-rcr25-esr100.npz,,,,,0,69,69,69,240.70831298828125,,left,green,2.97,240.9845051765442,1,,EB,1,brightness,readingArea,realistic,72,2023-03-07_13h24.07.615,tripletExp_regina_11082022,2022.2.4,119.91845907085654,
14,3,8,0,0.25,3.10526315789474,0,0.444444444444444,0.298245614035088,0,0.25,1.0,ReadingArea_rsl0-rcl25-esl310-rsm0-rcm44-esm29-rsr0-rcr25-esr100,exr/ReadingArea_rsl0-rcl25-esl310-rsm0-rcm44-esm29-rsr0-rcr25-esr100.exr,ReadingArea_rsl0-rcl25-esl310-rsm0-rcm44-esm29-rsr0-rcr25-esr100.npz,,,,,0,70,70,70,244.49721121788025,,right,red,0.86,244.7690601348877,1,,EB,1,brightness,readingArea,realistic,72,2023-03-07_13h24.07.615,tripletExp_regina_11082022,2022.2.4,119.91845907085654,
10,5,13,0,0.694444444444444,1.0,0,1.0,0.298245614035088,0,0.111111111111111,3.10526315789474,ReadingArea_rsl0-rcl69-esl100-rsm0-rcm100-esm29-rsr0-rcr11-esr310,exr/ReadingArea_rsl0-rcl69-esl100-rsm0-rcm100-esm29-rsr0-rcr11-esr310.exr,ReadingArea_rsl0-rcl69-esl100-rsm0-rcm100-esm29-rsr0-rcr11-esr310.npz,,,,,0,71,71,71,246.5109190940857,,right,red,0.77,246.7871131896973,1,,EB,1,brightness,readingArea,realistic,72,2023-03-07_13h24.07.615,tripletExp_regina_11082022,2022.2.4,119.91845907085654,
10,13,4,0,0.694444444444444,1.0,0,0.111111111111111,3.10526315789474,0,0.694444444444444,0.298245614035088,ReadingArea_rsl0-rcl69-esl100-rsm0-rcm11-esm310-rsr0-rcr69-esr29,exr/ReadingArea_rsl0-rcl69-esl100-rsm0-rcm11-esm310-rsr0-rcr69-esr29.exr,ReadingArea_rsl0-rcl69-esl100-rsm0-rcm11-esm310-rsr0-rcr69-esr29.npz,,,,,0,72,72,72,310.72818517684937,,right,red,0.94,,2,,EB,1,brightness,readingArea,realistic,72,2023-03-07_13h24.07.615,tripletExp_regina_11082022,2022.2.4,119.91845907085654,
7,2,12,0,0.111111111111111,1.0,0,0.25,0.298245614035088,0,0.027777777777778,3.10526315789474,ReadingArea_rsl0-rcl11-esl100-rsm0-rcm25-esm29-rsr0-rcr2-esr310,exr/ReadingArea_rsl0-rcl11-esl100-rsm0-rcm25-esm29-rsr0-rcr2-esr310.exr,ReadingArea_rsl0-rcl11-esl100-rsm0-rcm25-esm29-rsr0-rcr2-esr310.npz,,,,,0,73,73,73,312.77716422080994,,right,red,2.6,,2,,EB,1,brightness,readingArea,realistic,72,2023-03-07_13h24.07.615,tripletExp_regina_11082022,2022.2.4,119.91845907085654,
14,9,8,0,0.25,3.10526315789474,0,0.444444444444444,1.0,0,0.25,1.0,ReadingArea_rsl0-rcl25-esl310-rsm0-rcm44-esm100-rsr0-rcr25-esr100,exr/ReadingArea_rsl0-rcl25-esl310-rsm0-rcm44-esm100-rsr0-rcr25-esr100.exr,ReadingArea_rsl0-rcl25-esl310-rsm0-rcm44-esm100-rsr0-rcr25-esr100.npz,,,,,0,74,74,74,316.5880780220032,,right,red,0.97,316.89120411872864,2,,EB,1,brightness,readingArea,realistic,72,2023-03-07_13h24.07.615,tripletExp_regina_11082022,2022.2.4,119.91845907085654,
5,9,8,0,1.0,0.298245614035088,0,0.444444444444444,1.0,0,0.25,1.0,ReadingArea_rsl0-rcl100-esl29-rsm0-rcm44-esm100-rsr0-rcr25-esr100,exr/ReadingArea_rsl0-rcl100-esl29-rsm0-rcm44-esm100-rsr0-rcr25-esr100.exr,ReadingArea_rsl0-rcl100-esl29-rsm0-rcm44-esm100-rsr0-rcr25-esr100.npz,,,,,0,75,75,75,318.6648271083832,,right,red,0.99,318.96228218078613,2,,EB,1,brightness,readingArea,realistic,72,2023-03-07_13h24.07.615,tripletExp_regina_11082022,2022.2.4,119.91845907085654,
13,10,8,0,0.111111111111111,3.10526315789474,0,0.694444444444444,1.0,0,0.25,1.0,ReadingArea_rsl0-rcl11-esl310-rsm0-rcm69-esm100-rsr0-rcr25-esr100,exr/ReadingArea_rsl0-rcl11-esl310-rsm0-rcm69-esm100-rsr0-rcr25-esr100.exr,ReadingArea_rsl0-rcl11-esl310-rsm0-rcm69-esm100-rsr0-rcr25-esr100.npz,,,,,0,76,76,76,320.6968212127685,,left,green,2.27,320.9756181240082,2,,EB,1,brightness,readingArea,realistic,72,2023-03-07_13h24.07.615,tripletExp_regina_11082022,2022.2.4,119.91845907085654,
6,13,8,0,0.027777777777778,1.0,0,0.111111111111111,3.10526315789474,0,0.25,1.0,ReadingArea_rsl0-rcl2-esl100-rsm0-rcm11-esm310-rsr0-rcr25-esr100,exr/ReadingArea_rsl0-rcl2-esl100-rsm0-rcm11-esm310-rsr0-rcr25-esr100.exr,ReadingArea_rsl0-rcl2-esl100-rsm0-rcm11-esm310-rsr0-rcr25-esr100.npz,,,,,0,77,77,77,324.4868860244751,,right,red,0.86,,2,,EB,1,brightness,readingArea,realistic,72,2023-03-07_13h24.07.615,tripletExp_regina_11082022,2022.2.4,119.91845907085654,
4,13,5,0,0.694444444444444,0.298245614035088,0,0.111111111111111,3.10526315789474,0,1.0,0.298245614035088,ReadingArea_rsl0-rcl69-esl29-rsm0-rcm11-esm310-rsr0-rcr100-esr29,exr/ReadingArea_rsl0-rcl69-esl29-rsm0-rcm11-esm310-rsr0-rcr100-esr29.exr,ReadingArea_rsl0-rcl69-esl29-rsm0-rcm11-esm310-rsr0-rcr100-esr29.npz,,,,,0,78,78,78,326.5381770133972,,right,red,1.0,326.814738035202,2,,EB,1,brightness,readingArea,realistic,72,2023-03-07_13h24.07.615,tripletExp_regina_11082022,2022.2.4,119.91845907085654,
14,12,8,0,0.25,3.10526315789474,0,0.027777777777778,3.10526315789474,0,0.25,1.0,ReadingArea_rsl0-rcl25-esl310-rsm0-rcm2-esm310-rsr0-rcr25-esr100,exr/ReadingArea_rsl0-rcl25-esl310-rsm0-rcm2-esm310-rsr0-rcr25-esr100.exr,ReadingArea_rsl0-rcl25-esl310-rsm0-rcm2-esm310-rsr0-rcr25-esr100.npz,,,,,0,79,79,79,328.5804719924927,,right,red,0.81,328.87186908721924,2,,EB,1,brightness,readingArea,realistic,72,2023-03-07_13h24.07.615,tripletExp_regina_11082022,2022.2.4,119.91845907085654,
2,13,10,0,0.25,0.298245614035088,0,0.111111111111111,3.10526315789474,0,0.694444444444444,1.0,ReadingArea_rsl0-rcl25-esl29-rsm0-rcm11-esm310-rsr0-rcr69-esr100,exr/ReadingArea_rsl0-rcl25-esl29-rsm0-rcm11-esm310-rsr0-rcr69-esr100.exr,ReadingArea_rsl0-rcl25-esl29-rsm0-rcm11-esm310-rsr0-rcr69-esr100.npz,,,,,0,80,80,80,330.62675404548645,,right,red,2.33,330.9019792079925,2,,EB,1,brightness,readingArea,realistic,72,2023-03-07_13h24.07.615,tripletExp_regina_11082022,2022.2.4,119.91845907085654,
3,4,6,0,0.444444444444444,0.298245614035088,0,0.694444444444444,0.298245614035088,0,0.027777777777778,1.0,ReadingArea_rsl0-rcl44-esl29-rsm0-rcm69-esm29-rsr0-rcr2-esr100,exr/ReadingArea_rsl0-rcl44-esl29-rsm0-rcm69-esm29-rsr0-rcr2-esr100.exr,ReadingArea_rsl0-rcl44-esl29-rsm0-rcm69-esm29-rsr0-rcr2-esr100.npz,,,,,0,81,81,81,334.43063020706177,,left,green,0.71,,2,,EB,1,brightness,readingArea,realistic,72,2023-03-07_13h24.07.615,tripletExp_regina_11082022,2022.2.4,119.91845907085654,
8,6,3,0,0.25,1.0,0,0.027777777777778,1.0,0,0.444444444444444,0.298245614035088,ReadingArea_rsl0-rcl25-esl100-rsm0-rcm2-esm100-rsr0-rcr44-esr29,exr/ReadingArea_rsl0-rcl25-esl100-rsm0-rcm2-esm100-rsr0-rcr44-esr29.exr,ReadingArea_rsl0-rcl25-esl100-rsm0-rcm2-esm100-rsr0-rcr44-esr29.npz,,,,,0,82,82,82,336.48274517059326,,right,red,0.82,336.7772550582886,2,,EB,1,brightness,readingArea,realistic,72,2023-03-07_13h24.07.615,tripletExp_regina_11082022,2022.2.4,119.91845907085654,
13,1,6,0,0.111111111111111,3.10526315789474,0,0.111111111111111,0.298245614035088,0,0.027777777777778,1.0,ReadingArea_rsl0-rcl11-esl310-rsm0-rcm11-esm29-rsr0-rcr2-esr100,exr/ReadingArea_rsl0-rcl11-esl310-rsm0-rcm11-esm29-rsr0-rcr2-esr100.exr,ReadingArea_rsl0-rcl11-esl310-rsm0-rcm11-esm29-rsr0-rcr2-esr100.npz,,,,,0,83,83,83,338.5064971446991,,right,red,0.63,,2,,EB,1,brightness,readingArea,realistic,72,2023-03-07_13h24.07.615,tripletExp_regina_11082022,2022.2.4,119.91845907085654,
14,1,9,0,0.25,3.10526315789474,0,0.111111111111111,0.298245614035088,0,0.444444444444444,1.0,ReadingArea_rsl0-rcl25-esl310-rsm0-rcm11-esm29-rsr0-rcr44-esr100,exr/ReadingArea_rsl0-rcl25-esl310-rsm0-rcm11-esm29-rsr0-rcr44-esr100.exr,ReadingArea_rsl0-rcl25-esl310-rsm0-rcm11-esm29-rsr0-rcr44-esr100.npz,,,,,0,84,84,84,340.5517191886902,,right,red,1.15,340.8952000141144,2,,EB,1,brightness,readingArea,realistic,72,2023-03-07_13h24.07.615,tripletExp_regina_11082022,2022.2.4,119.91845907085654,
5,12,1,0,1.0,0.298245614035088,0,0.027777777777778,3.10526315789474,0,0.111111111111111,0.298245614035088,ReadingArea_rsl0-rcl100-esl29-rsm0-rcm2-esm310-rsr0-rcr11-esr29,exr/ReadingArea_rsl0-rcl100-esl29-rsm0-rcm2-esm310-rsr0-rcr11-esr29.exr,ReadingArea_rsl0-rcl100-esl29-rsm0-rcm2-esm310-rsr0-rcr11-esr29.npz,,,,,0,85,85,85,342.6530702114105,,right,red,0.97,342.92801904678345,2,,EB,1,brightness,readingArea,realistic,72,2023-03-07_13h24.07.615,tripletExp_regina_11082022,2022.2.4,119.91845907085654,
10,0,13,0,0.694444444444444,1.0,0,0.027777777777778,0.298245614035088,0,0.111111111111111,3.10526315789474,ReadingArea_rsl0-rcl69-esl100-rsm0-rcm2-esm29-rsr0-rcr11-esr310,exr/ReadingArea_rsl0-rcl69-esl100-rsm0-rcm2-esm29-rsr0-rcr11-esr310.exr,ReadingArea_rsl0-rcl69-esl100-rsm0-rcm2-esm29-rsr0-rcr11-esr310.npz,,,,,0,86,86,86,344.68630814552307,,right,red,1.1,344.9780960083008,2,,EB,1,brightness,readingArea,realistic,72,2023-03-07_13h24.07.615,tripletExp_regina_11082022,2022.2.4,119.91845907085654,
4,10,14,0,0.694444444444444,0.298245614035088,0,0.694444444444444,1.0,0,0.25,3.10526315789474,ReadingArea_rsl0-rcl69-esl29-rsm0-rcm69-esm100-rsr0-rcr25-esr310,exr/ReadingArea_rsl0-rcl69-esl29-rsm0-rcm69-esm100-rsr0-rcr25-esr310.exr,ReadingArea_rsl0-rcl69-esl29-rsm0-rcm69-esm100-rsr0-rcr25-esr310.npz,,,,,0,87,87,87,346.7499530315399,,right,red,0.9,347.0266990661621,2,,EB,1,brightness,readingArea,realistic,72,2023-03-07_13h24.07.615,tripletExp_regina_11082022,2022.2.4,119.91845907085654,
11,0,14,0,1.0,1.0,0,0.027777777777778,0.298245614035088,0,0.25,3.10526315789474,ReadingArea_rsl0-rcl100-esl100-rsm0-rcm2-esm29-rsr0-rcr25-esr310,exr/ReadingArea_rsl0-rcl100-esl100-rsm0-rcm2-esm29-rsr0-rcr25-esr310.exr,ReadingArea_rsl0-rcl100-esl100-rsm0-rcm2-esm29-rsr0-rcr25-esr310.npz,,,,,0,88,88,88,348.7652351856232,,right,red,2.76,,2,,EB,1,brightness,readingArea,realistic,72,2023-03-07_13h24.07.615,tripletExp_regina_11082022,2022.2.4,119.91845907085654,
4,11,9,0,0.694444444444444,0.298245614035088,0,1.0,1.0,0,0.444444444444444,1.0,ReadingArea_rsl0-rcl69-esl29-rsm0-rcm100-esm100-rsr0-rcr44-esr100,exr/ReadingArea_rsl0-rcl69-esl29-rsm0-rcm100-esm100-rsr0-rcr44-esr100.exr,ReadingArea_rsl0-rcl69-esl29-rsm0-rcm100-esm100-rsr0-rcr44-esr100.npz,,,,,0,89,89,89,352.5653982162476,,right,red,1.26,352.83789920806885,2,,EB,1,brightness,readingArea,realistic,72,2023-03-07_13h24.07.615,tripletExp_regina_11082022,2022.2.4,119.91845907085654,
0,11,14,0,0.027777777777778,0.298245614035088,0,1.0,1.0,0,0.25,3.10526315789474,ReadingArea_rsl0-rcl2-esl29-rsm0-rcm100-esm100-rsr0-rcr25-esr310,exr/ReadingArea_rsl0-rcl2-esl29-rsm0-rcm100-esm100-rsr0-rcr25-esr310.exr,ReadingArea_rsl0-rcl2-esl29-rsm0-rcm100-esm100-rsr0-rcr25-esr310.npz,,,,,0,90,90,90,354.5710651874542,,right,red,1.05,354.8577060699463,2,,EB,1,brightness,readingArea,realistic,72,2023-03-07_13h24.07.615,tripletExp_regina_11082022,2022.2.4,119.91845907085654,
11,1,6,0,1.0,1.0,0,0.111111111111111,0.298245614035088,0,0.027777777777778,1.0,ReadingArea_rsl0-rcl100-esl100-rsm0-rcm11-esm29-rsr0-rcr2-esr100,exr/ReadingArea_rsl0-rcl100-esl100-rsm0-rcm11-esm29-rsr0-rcr2-esr100.exr,ReadingArea_rsl0-rcl100-esl100-rsm0-rcm11-esm29-rsr0-rcr2-esr100.npz,,,,,0,91,91,91,356.6221461296081,,right,red,0.82,356.9099781513214,2,,EB,1,brightness,readingArea,realistic,72,2023-03-07_13h24.07.615,tripletExp_regina_11082022,2022.2.4,119.91845907085654,
14,3,2,0,0.25,3.10526315789474,0,0.444444444444444,0.298245614035088,0,0.25,0.298245614035088,ReadingArea_rsl0-rcl25-esl310-rsm0-rcm44-esm29-rsr0-rcr25-esr29,exr/ReadingArea_rsl0-rcl25-esl310-rsm0-rcm44-esm29-rsr0-rcr25-esr29.exr,ReadingArea_rsl0-rcl25-esl310-rsm0-rcm44-esm29-rsr0-rcr25-esr29.npz,,,,,0,92,92,92,358.6625192165375,,right,red,0.92,358.9519422054291,2,,EB,1,brightness,readingArea,realistic,72,2023-03-07_13h24.07.615,tripletExp_regina_11082022,2022.2.4,119.91845907085654,
8,6,0,0,0.25,1.0,0,0.027777777777778,1.0,0,0.027777777777778,0.298245614035088,ReadingArea_rsl0-rcl25-esl100-rsm0-rcm2-esm100-rsr0-rcr2-esr29,exr/ReadingArea_rsl0-rcl25-esl100-rsm0-rcm2-esm100-rsr0-rcr2-esr29.exr,ReadingArea_rsl0-rcl25-esl100-rsm0-rcm2-esm100-rsr0-rcr2-esr29.npz,,,,,0,93,93,93,360.71407318115234,,right,red,2.11,360.9969320297241,2,,EB,1,brightness,readingArea,realistic,72,2023-03-07_13h24.07.615,tripletExp_regina_11082022,2022.2.4,119.91845907085654,
2,11,4,0,0.25,0.298245614035088,0,1.0,1.0,0,0.694444444444444,0.298245614035088,ReadingArea_rsl0-rcl25-esl29-rsm0-rcm100-esm100-rsr0-rcr69-esr29,exr/ReadingArea_rsl0-rcl25-esl29-rsm0-rcm100-esm100-rsr0-rcr69-esr29.exr,ReadingArea_rsl0-rcl25-esl29-rsm0-rcm100-esm100-rsr0-rcr69-esr29.npz,,,,,0,94,94,94,364.5119240283966,,right,red,0.84,364.8012480735779,2,,EB,1,brightness,readingArea,realistic,72,2023-03-07_13h24.07.615,tripletExp_regina_11082022,2022.2.4,119.91845907085654,
4,5,8,0,0.694444444444444,0.298245614035088,0,1.0,0.298245614035088,0,0.25,1.0,ReadingArea_rsl0-rcl69-esl29-rsm0-rcm100-esm29-rsr0-rcr25-esr100,exr/ReadingArea_rsl0-rcl69-esl29-rsm0-rcm100-esm29-rsr0-rcr25-esr100.exr,ReadingArea_rsl0-rcl69-esl29-rsm0-rcm100-esm29-rsr0-rcr25-esr100.npz,,,,,0,95,95,95,366.5369501113892,,right,red,0.98,366.8126471042633,2,,EB,1,brightness,readingArea,realistic,72,2023-03-07_13h24.07.615,tripletExp_regina_11082022,2022.2.4,119.91845907085654,
6,1,12,0,0.027777777777778,1.0,0,0.111111111111111,0.298245614035088,0,0.027777777777778,3.10526315789474,ReadingArea_rsl0-rcl2-esl100-rsm0-rcm11-esm29-rsr0-rcr2-esr310,exr/ReadingArea_rsl0-rcl2-esl100-rsm0-rcm11-esm29-rsr0-rcr2-esr310.exr,ReadingArea_rsl0-rcl2-esl100-rsm0-rcm11-esm29-rsr0-rcr2-esr310.npz,,,,,0,96,96,96,368.5536420345306,,left,green,0.9,368.8523480892181,2,,EB,1,brightness,readingArea,realistic,72,2023-03-07_13h24.07.615,tripletExp_regina_11082022,2022.2.4,119.91845907085654,
14,3,13,0,0.25,3.10526315789474,0,0.444444444444444,0.298245614035088,0,0.111111111111111,3.10526315789474,ReadingArea_rsl0-rcl25-esl310-rsm0-rcm44-esm29-rsr0-rcr11-esr310,exr/ReadingArea_rsl0-rcl25-esl310-rsm0-rcm44-esm29-rsr0-rcr11-esr310.exr,ReadingArea_rsl0-rcl25-esl310-rsm0-rcm44-esm29-rsr0-rcr11-esr310.npz,,,,,0,97,97,97,370.5920569896698,,right,red,1.26,370.8868730068207,2,,EB,1,brightness,readingArea,realistic,72,2023-03-07_13h24.07.615,tripletExp_regina_11082022,2022.2.4,119.91845907085654,
6,10,5,0,0.027777777777778,1.0,0,0.694444444444444,1.0,0,1.0,0.298245614035088,ReadingArea_rsl0-rcl2-esl100-rsm0-rcm69-esm100-rsr0-rcr100-esr29,exr/ReadingArea_rsl0-rcl2-esl100-rsm0-rcm69-esm100-rsr0-rcr100-esr29.exr,ReadingArea_rsl0-rcl2-esl100-rsm0-rcm69-esm100-rsr0-rcr100-esr29.npz,,,,,0,98,98,98,372.65226006507874,,right,red,0.82,,2,,EB,1,brightness,readingArea,realistic,72,2023-03-07_13h24.07.615,tripletExp_regina_11082022,2022.2.4,119.91845907085654,
5,14,11,0,1.0,0.298245614035088,0,0.25,3.10526315789474,0,1.0,1.0,ReadingArea_rsl0-rcl100-esl29-rsm0-rcm25-esm310-rsr0-rcr100-esr100,exr/ReadingArea_rsl0-rcl100-esl29-rsm0-rcm25-esm310-rsr0-rcr100-esr100.exr,ReadingArea_rsl0-rcl100-esl29-rsm0-rcm25-esm310-rsr0-rcr100-esr100.npz,,,,,0,99,99,99,374.6911690235138,,right,red,0.89,374.9639570713043,2,,EB,1,brightness,readingArea,realistic,72,2023-03-07_13h24.07.615,tripletExp_regina_11082022,2022.2.4,119.91845907085654,
7,10,6,0,0.111111111111111,1.0,0,0.694444444444444,1.0,0,0.027777777777778,1.0,ReadingArea_rsl0-rcl11-esl100-rsm0-rcm69-esm100-rsr0-rcr2-esr100,exr/ReadingArea_rsl0-rcl11-esl100-rsm0-rcm69-esm100-rsr0-rcr2-esr100.exr,ReadingArea_rsl0-rcl11-esl100-rsm0-rcm69-esm100-rsr0-rcr2-esr100.npz,,,,,0,100,100,100,376.7185800075531,,left,green,0.95,376.99022006988525,2,,EB,1,brightness,readingArea,realistic,72,2023-03-07_13h24.07.615,tripletExp_regina_11082022,2022.2.4,119.91845907085654,
13,5,11,0,0.111111111111111,3.10526315789474,0,1.0,0.298245614035088,0,1.0,1.0,ReadingArea_rsl0-rcl11-esl310-rsm0-rcm100-esm29-rsr0-rcr100-esr100,exr/ReadingArea_rsl0-rcl11-esl310-rsm0-rcm100-esm29-rsr0-rcr100-esr100.exr,ReadingArea_rsl0-rcl11-esl310-rsm0-rcm100-esm29-rsr0-rcr100-esr100.npz,,,,,0,101,101,101,378.7465760707855,,left,green,1.03,379.0336720943451,2,,EB,1,brightness,readingArea,realistic,72,2023-03-07_13h24.07.615,tripletExp_regina_11082022,2022.2.4,119.91845907085654,
9,5,12,0,0.444444444444444,1.0,0,1.0,0.298245614035088,0,0.027777777777778,3.10526315789474,ReadingArea_rsl0-rcl44-esl100-rsm0-rcm100-esm29-rsr0-rcr2-esr310,exr/ReadingArea_rsl0-rcl44-esl100-rsm0-rcm100-esm29-rsr0-rcr2-esr310.exr,ReadingArea_rsl0-rcl44-esl100-rsm0-rcm100-esm29-rsr0-rcr2-esr310.npz,,,,,0,102,102,102,380.7718369960785,,left,green,1.02,381.06394505500793,2,,EB,1,brightness,readingArea,realistic,72,2023-03-07_13h24.07.615,tripletExp_regina_11082022,2022.2.4,119.91845907085654,
2,3,8,0,0.25,0.298245614035088,0,0.444444444444444,0.298245614035088,0,0.25,1.0,ReadingArea_rsl0-rcl25-esl29-rsm0-rcm44-esm29-rsr0-rcr25-esr100,exr/ReadingArea_rsl0-rcl25-esl29-rsm0-rcm44-esm29-rsr0-rcr25-esr100.exr,ReadingArea_rsl0-rcl25-esl29-rsm0-rcm44-esm29-rsr0-rcr25-esr100.npz,,,,,0,103,103,103,382.950973033905,,right,red,2.8,383.2638552188873,2,,EB,1,brightness,readingArea,realistic,72,2023-03-07_13h24.07.615,tripletExp_regina_11082022,2022.2.4,119.91845907085654,
9,13,7,0,0.444444444444444,1.0,0,0.111111111111111,3.10526315789474,0,0.111111111111111,1.0,ReadingArea_rsl0-rcl44-esl100-rsm0-rcm11-esm310-rsr0-rcr11-esr100,exr/ReadingArea_rsl0-rcl44-esl100-rsm0-rcm11-esm310-rsr0-rcr11-esr100.exr,ReadingArea_rsl0-rcl44-esl100-rsm0-rcm11-esm310-rsr0-rcr11-esr100.npz,,,,,0,104,104,104,386.7898111343384,,left,green,1.16,387.080824136734,2,,EB,1,brightness,readingArea,realistic,72,2023-03-07_13h24.07.615,tripletExp_regina_11082022,2022.2.4,119.91845907085654,
10,1,12,0,0.694444444444444,1.0,0,0.111111111111111,0.298245614035088,0,0.027777777777778,3.10526315789474,ReadingArea_rsl0-rcl69-esl100-rsm0-rcm11-esm29-rsr0-rcr2-esr310,exr/ReadingArea_rsl0-rcl69-esl100-rsm0-rcm11-esm29-rsr0-rcr2-esr310.exr,ReadingArea_rsl0-rcl69-esl100-rsm0-rcm11-esm29-rsr0-rcr2-esr310.npz,,,,,0,105,105,105,388.83705711364746,,right,red,0.85,389.1228551864624,2,,EB,1,brightness,readingArea,realistic,72,2023-03-07_13h24.07.615,tripletExp_regina_11082022,2022.2.4,119.91845907085654,
0,14,12,0,0.027777777777778,0.298245614035088,0,0.25,3.10526315789474,0,0.027777777777778,3.10526315789474,ReadingArea_rsl0-rcl2-esl29-rsm0-rcm25-esm310-rsr0-rcr2-esr310,exr/ReadingArea_rsl0-rcl2-esl29-rsm0-rcm25-esm310-rsr0-rcr2-esr310.exr,ReadingArea_rsl0-rcl2-esl29-rsm0-rcm25-esm310-rsr0-rcr2-esr310.npz,,,,,0,106,106,106,390.8922781944275,,right,red,1.07,391.1799600124359,2,,EB,1,brightness,readingArea,realistic,72,2023-03-07_13h24.07.615,tripletExp_regina_11082022,2022.2.4,119.91845907085654,
9,8,11,0,0.444444444444444,1.0,0,0.25,1.0,0,1.0,1.0,ReadingArea_rsl0-rcl44-esl100-rsm0-rcm25-esm100-rsr0-rcr100-esr100,exr/ReadingArea_rsl0-rcl44-esl100-rsm0-rcm25-esm100-rsr0-rcr100-esr100.exr,ReadingArea_rsl0-rcl44-esl100-rsm0-rcm25-esm100-rsr0-rcr100-esr100.npz,,,,,0,107,107,107,392.9403851032257,,left,green,1.02,,2,,EB,1,brightness,readingArea,realistic,72,2023-03-07_13h24.07.615,tripletExp_regina_11082022,2022.2.4,119.91845907085654,
3,6,12,0,0.444444444444444,0.298245614035088,0,0.027777777777778,1.0,0,0.027777777777778,3.10526315789474,ReadingArea_rsl0-rcl44-esl29-rsm0-rcm2-esm100-rsr0-rcr2-esr310,exr/ReadingArea_rsl0-rcl44-esl29-rsm0-rcm2-esm100-rsr0-rcr2-esr310.exr,ReadingArea_rsl0-rcl44-esl29-rsm0-rcm2-esm100-rsr0-rcr2-esr310.npz,,,,,0,108,108,108,394.9943141937256,,right,red,0.97,395.2943902015686,2,,EB,1,brightness,readingArea,realistic,72,2023-03-07_13h24.07.615,tripletExp_regina_11082022,2022.2.4,119.91845907085654,
3,13,12,0,0.444444444444444,0.298245614035088,0,0.111111111111111,3.10526315789474,0,0.027777777777778,3.10526315789474,ReadingArea_rsl0-rcl44-esl29-rsm0-rcm11-esm310-rsr0-rcr2-esr310,exr/ReadingArea_rsl0-rcl44-esl29-rsm0-rcm11-esm310-rsr0-rcr2-esr310.exr,ReadingArea_rsl0-rcl44-esl29-rsm0-rcm11-esm310-rsr0-rcr2-esr310.npz,,,,,0,109,109,109,397.03594613075256,,left,green,1.56,397.3275082111359,2,,EB,1,brightness,readingArea,realistic,72,2023-03-07_13h24.07.615,tripletExp_regina_11082022,2022.2.4,119.91845907085654,
7,5,8,0,0.111111111111111,1.0,0,1.0,0.298245614035088,0,0.25,1.0,ReadingArea_rsl0-rcl11-esl100-rsm0-rcm100-esm29-rsr0-rcr25-esr100,exr/ReadingArea_rsl0-rcl11-esl100-rsm0-rcm100-esm29-rsr0-rcr25-esr100.exr,ReadingArea_rsl0-rcl11-esl100-rsm0-rcm100-esm29-rsr0-rcr25-esr100.npz,,,,,0,110,110,110,399.0966620445252,,right,red,0.81,399.3711330890656,2,,EB,1,brightness,readingArea,realistic,72,2023-03-07_13h24.07.615,tripletExp_regina_11082022,2022.2.4,119.91845907085654,
1,10,9,0,0.111111111111111,0.298245614035088,0,0.694444444444444,1.0,0,0.444444444444444,1.0,ReadingArea_rsl0-rcl11-esl29-rsm0-rcm69-esm100-rsr0-rcr44-esr100,exr/ReadingArea_rsl0-rcl11-esl29-rsm0-rcm69-esm100-rsr0-rcr44-esr100.exr,ReadingArea_rsl0-rcl11-esl29-rsm0-rcm69-esm100-rsr0-rcr44-esr100.npz,,,,,0,111,111,111,401.1420500278473,,right,red,0.86,401.4340670108795,2,,EB,1,brightness,readingArea,realistic,72,2023-03-07_13h24.07.615,tripletExp_regina_11082022,2022.2.4,119.91845907085654,
5,4,8,0,1.0,0.298245614035088,0,0.694444444444444,0.298245614035088,0,0.25,1.0,ReadingArea_rsl0-rcl100-esl29-rsm0-rcm69-esm29-rsr0-rcr25-esr100,exr/ReadingArea_rsl0-rcl100-esl29-rsm0-rcm69-esm29-rsr0-rcr25-esr100.exr,ReadingArea_rsl0-rcl100-esl29-rsm0-rcm69-esm29-rsr0-rcr25-esr100.npz,,,,,0,112,112,112,403.1911070346832,,right,red,2.66,,2,,EB,1,brightness,readingArea,realistic,72,2023-03-07_13h24.07.615,tripletExp_regina_11082022,2022.2.4,119.91845907085654,
8,5,0,0,0.25,1.0,0,1.0,0.298245614035088,0,0.027777777777778,0.298245614035088,ReadingArea_rsl0-rcl25-esl100-rsm0-rcm100-esm29-rsr0-rcr2-esr29,exr/ReadingArea_rsl0-rcl25-esl100-rsm0-rcm100-esm29-rsr0-rcr2-esr29.exr,ReadingArea_rsl0-rcl25-esl100-rsm0-rcm100-esm29-rsr0-rcr2-esr29.npz,,,,,0,113,113,113,407.00180315971375,,left,green,0.78,407.2958149909973,2,,EB,1,brightness,readingArea,realistic,72,2023-03-07_13h24.07.615,tripletExp_regina_11082022,2022.2.4,119.91845907085654,
6,7,0,0,0.027777777777778,1.0,0,0.111111111111111,1.0,0,0.027777777777778,0.298245614035088,ReadingArea_rsl0-rcl2-esl100-rsm0-rcm11-esm100-rsr0-rcr2-esr29,exr/ReadingArea_rsl0-rcl2-esl100-rsm0-rcm11-esm100-rsr0-rcr2-esr29.exr,ReadingArea_rsl0-rcl2-esl100-rsm0-rcm11-esm100-rsr0-rcr2-esr29.npz,,,,,0,114,114,114,409.0301911830902,,left,green,0.97,409.31874203681946,2,,EB,1,brightness,readingArea,realistic,72,2023-03-07_13h24.07.615,tripletExp_regina_11082022,2022.2.4,119.91845907085654,
3,13,10,0,0.444444444444444,0.298245614035088,0,0.111111111111111,3.10526315789474,0,0.694444444444444,1.0,ReadingArea_rsl0-rcl44-esl29-rsm0-rcm11-esm310-rsr0-rcr69-esr100,exr/ReadingArea_rsl0-rcl44-esl29-rsm0-rcm11-esm310-rsr0-rcr69-esr100.exr,ReadingArea_rsl0-rcl44-esl29-rsm0-rcm11-esm310-rsr0-rcr69-esr100.npz,,,,,0,115,115,115,411.056577205658,,left,green,2.16,411.32869005203247,2,,EB,1,brightness,readingArea,realistic,72,2023-03-07_13h24.07.615,tripletExp_regina_11082022,2022.2.4,119.91845907085654,
2,14,6,0,0.25,0.298245614035088,0,0.25,3.10526315789474,0,0.027777777777778,1.0,ReadingArea_rsl0-rcl25-esl29-rsm0-rcm25-esm310-rsr0-rcr2-esr100,exr/ReadingArea_rsl0-rcl25-esl29-rsm0-rcm25-esm310-rsr0-rcr2-esr100.exr,ReadingArea_rsl0-rcl25-esl29-rsm0-rcm25-esm310-rsr0-rcr2-esr100.npz,,,,,0,116,116,116,414.8479690551758,,left,green,1.09,415.1332340240479,2,,EB,1,brightness,readingArea,realistic,72,2023-03-07_13h24.07.615,tripletExp_regina_11082022,2022.2.4,119.91845907085654,
1,9,2,0,0.111111111111111,0.298245614035088,0,0.444444444444444,1.0,0,0.25,0.298245614035088,ReadingArea_rsl0-rcl11-esl29-rsm0-rcm44-esm100-rsr0-rcr25-esr29,exr/ReadingArea_rsl0-rcl11-esl29-rsm0-rcm44-esm100-rsr0-rcr25-esr29.exr,ReadingArea_rsl0-rcl11-esl29-rsm0-rcm44-esm100-rsr0-rcr25-esr29.npz,,,,,0,117,117,117,416.8785290718079,,right,red,2.12,417.16231417655945,2,,EB,1,brightness,readingArea,realistic,72,2023-03-07_13h24.07.615,tripletExp_regina_11082022,2022.2.4,119.91845907085654,
8,6,12,0,0.25,1.0,0,0.027777777777778,1.0,0,0.027777777777778,3.10526315789474,ReadingArea_rsl0-rcl25-esl100-rsm0-rcm2-esm100-rsr0-rcr2-esr310,exr/ReadingArea_rsl0-rcl25-esl100-rsm0-rcm2-esm100-rsr0-rcr2-esr310.exr,ReadingArea_rsl0-rcl25-esl100-rsm0-rcm2-esm100-rsr0-rcr2-esr310.npz,,,,,0,118,118,118,420.67537903785706,,right,red,0.91,420.9474971294403,2,,EB,1,brightness,readingArea,realistic,72,2023-03-07_13h24.07.615,tripletExp_regina_11082022,2022.2.4,119.91845907085654,
0,14,8,0,0.027777777777778,0.298245614035088,0,0.25,3.10526315789474,0,0.25,1.0,ReadingArea_rsl0-rcl2-esl29-rsm0-rcm25-esm310-rsr0-rcr25-esr100,exr/ReadingArea_rsl0-rcl2-esl29-rsm0-rcm25-esm310-rsr0-rcr25-esr100.exr,ReadingArea_rsl0-rcl2-esl29-rsm0-rcm25-esm310-rsr0-rcr25-esr100.npz,,,,,0,119,119,119,422.6844131946564,,right,red,0.93,422.9671730995178,2,,EB,1,brightness,readingArea,realistic,72,2023-03-07_13h24.07.615,tripletExp_regina_11082022,2022.2.4,119.91845907085654,
8,14,12,0,0.25,1.0,0,0.25,3.10526315789474,0,0.027777777777778,3.10526315789474,ReadingArea_rsl0-rcl25-esl100-rsm0-rcm25-esm310-rsr0-rcr2-esr310,exr/ReadingArea_rsl0-rcl25-esl100-rsm0-rcm25-esm310-rsr0-rcr2-esr310.exr,ReadingArea_rsl0-rcl25-esl100-rsm0-rcm25-esm310-rsr0-rcr2-esr310.npz,,,,,0,120,120,120,424.731153011322,,left,green,0.88,425.0072810649872,2,,EB,1,brightness,readingArea,realistic,72,2023-03-07_13h24.07.615,tripletExp_regina_11082022,2022.2.4,119.91845907085654,
2,11,7,0,0.25,0.298245614035088,0,1.0,1.0,0,0.111111111111111,1.0,ReadingArea_rsl0-rcl25-esl29-rsm0-rcm100-esm100-rsr0-rcr11-esr100,exr/ReadingArea_rsl0-rcl25-esl29-rsm0-rcm100-esm100-rsr0-rcr11-esr100.exr,ReadingArea_rsl0-rcl25-esl29-rsm0-rcm100-esm100-rsr0-rcr11-esr100.npz,,,,,0,121,121,121,426.77894711494446,,right,red,2.5,427.0567021369934,2,,EB,1,brightness,readingArea,realistic,72,2023-03-07_13h24.07.615,tripletExp_regina_11082022,2022.2.4,119.91845907085654,
2,0,5,0,0.25,0.298245614035088,0,0.027777777777778,0.298245614035088,0,1.0,0.298245614035088,ReadingArea_rsl0-rcl25-esl29-rsm0-rcm2-esm29-rsr0-rcr100-esr29,exr/ReadingArea_rsl0-rcl25-esl29-rsm0-rcm2-esm29-rsr0-rcr100-esr29.exr,ReadingArea_rsl0-rcl25-esl29-rsm0-rcm2-esm29-rsr0-rcr100-esr29.npz,,,,,0,122,122,122,430.5542571544647,,left,green,0.9,,2,,EB,1,brightness,readingArea,realistic,72,2023-03-07_13h24.07.615,tripletExp_regina_11082022,2022.2.4,119.91845907085654,
5,9,12,0,1.0,0.298245614035088,0,0.444444444444444,1.0,0,0.027777777777778,3.10526315789474,ReadingArea_rsl0-rcl100-esl29-rsm0-rcm44-esm100-rsr0-rcr2-esr310,exr/ReadingArea_rsl0-rcl100-esl29-rsm0-rcm44-esm100-rsr0-rcr2-esr310.exr,ReadingArea_rsl0-rcl100-esl29-rsm0-rcm44-esm100-rsr0-rcr2-esr310.npz,,,,,0,123,123,123,432.6199941635132,,left,green,0.91,,2,,EB,1,brightness,readingArea,realistic,72,2023-03-07_13h24.07.615,tripletExp_regina_11082022,2022.2.4,119.91845907085654,
14,5,6,0,0.25,3.10526315789474,0,1.0,0.298245614035088,0,0.027777777777778,1.0,ReadingArea_rsl0-rcl25-esl310-rsm0-rcm100-esm29-rsr0-rcr2-esr100,exr/ReadingArea_rsl0-rcl25-esl310-rsm0-rcm100-esm29-rsr0-rcr2-esr100.exr,ReadingArea_rsl0-rcl25-esl310-rsm0-rcm100-esm29-rsr0-rcr2-esr100.npz,,,,,0,124,124,124,434.772625207901,,left,green,0.79,435.0616490840912,2,,EB,1,brightness,readingArea,realistic,72,2023-03-07_13h24.07.615,tripletExp_regina_11082022,2022.2.4,119.91845907085654,
6,0,8,0,0.027777777777778,1.0,0,0.027777777777778,0.298245614035088,0,0.25,1.0,ReadingArea_rsl0-rcl2-esl100-rsm0-rcm2-esm29-rsr0-rcr25-esr100,exr/ReadingArea_rsl0-rcl2-esl100-rsm0-rcm2-esm29-rsr0-rcr25-esr100.exr,ReadingArea_rsl0-rcl2-esl100-rsm0-rcm2-esm29-rsr0-rcr25-esr100.npz,,,,,0,125,125,125,436.82381319999695,,left,green,0.65,437.1136510372162,2,,EB,1,brightness,readingArea,realistic,72,2023-03-07_13h24.07.615,tripletExp_regina_11082022,2022.2.4,119.91845907085654,
13,9,0,0,0.111111111111111,3.10526315789474,0,0.444444444444444,1.0,0,0.027777777777778,0.298245614035088,ReadingArea_rsl0-rcl11-esl310-rsm0-rcm44-esm100-rsr0-rcr2-esr29,exr/ReadingArea_rsl0-rcl11-esl310-rsm0-rcm44-esm100-rsr0-rcr2-esr29.exr,ReadingArea_rsl0-rcl11-esl310-rsm0-rcm44-esm100-rsr0-rcr2-esr29.npz,,,,,0,126,126,126,438.8728070259094,,left,green,0.78,439.1620512008667,2,,EB,1,brightness,readingArea,realistic,72,2023-03-07_13h24.07.615,tripletExp_regina_11082022,2022.2.4,119.91845907085654,
2,7,3,0,0.25,0.298245614035088,0,0.111111111111111,1.0,0,0.444444444444444,0.298245614035088,ReadingArea_rsl0-rcl25-esl29-rsm0-rcm11-esm100-rsr0-rcr44-esr29,exr/ReadingArea_rsl0-rcl25-esl29-rsm0-rcm11-esm100-rsr0-rcr44-esr29.exr,ReadingArea_rsl0-rcl25-esl29-rsm0-rcm11-esm100-rsr0-rcr44-esr29.npz,,,,,0,127,127,127,440.91246008872986,,right,red,1.04,441.194155216217,2,,EB,1,brightness,readingArea,realistic,72,2023-03-07_13h24.07.615,tripletExp_regina_11082022,2022.2.4,119.91845907085654,
2,1,9,0,0.25,0.298245614035088,0,0.111111111111111,0.298245614035088,0,0.444444444444444,1.0,ReadingArea_rsl0-rcl25-esl29-rsm0-rcm11-esm29-rsr0-rcr44-esr100,exr/ReadingArea_rsl0-rcl25-esl29-rsm0-rcm11-esm29-rsr0-rcr44-esr100.exr,ReadingArea_rsl0-rcl25-esl29-rsm0-rcm11-esm29-rsr0-rcr44-esr100.npz,,,,,0,128,128,128,442.9702382087708,,left,green,0.82,443.2897260189056,2,,EB,1,brightness,readingArea,realistic,72,2023-03-07_13h24.07.615,tripletExp_regina_11082022,2022.2.4,119.91845907085654,
3,10,6,0,0.444444444444444,0.298245614035088,0,0.694444444444444,1.0,0,0.027777777777778,1.0,ReadingArea_rsl0-rcl44-esl29-rsm0-rcm69-esm100-rsr0-rcr2-esr100,exr/ReadingArea_rsl0-rcl44-esl29-rsm0-rcm69-esm100-rsr0-rcr2-esr100.exr,ReadingArea_rsl0-rcl44-esl29-rsm0-rcm69-esm100-rsr0-rcr2-esr100.npz,,,,,0,129,129,129,445.0533330440521,,left,green,0.98,445.3426830768585,2,,EB,1,brightness,readingArea,realistic,72,2023-03-07_13h24.07.615,tripletExp_regina_11082022,2022.2.4,119.91845907085654,
5,14,8,0,1.0,0.298245614035088,0,0.25,3.10526315789474,0,0.25,1.0,ReadingArea_rsl0-rcl100-esl29-rsm0-rcm25-esm310-rsr0-rcr25-esr100,exr/ReadingArea_rsl0-rcl100-esl29-rsm0-rcm25-esm310-rsr0-rcr25-esr100.exr,ReadingArea_rsl0-rcl100-esl29-rsm0-rcm25-esm310-rsr0-rcr25-esr100.npz,,,,,0,130,130,130,447.10324716567993,,left,green,2.52,447.3754940032959,2,,EB,1,brightness,readingArea,realistic,72,2023-03-07_13h24.07.615,tripletExp_regina_11082022,2022.2.4,119.91845907085654,
7,1,10,0,0.111111111111111,1.0,0,0.111111111111111,0.298245614035088,0,0.694444444444444,1.0,ReadingArea_rsl0-rcl11-esl100-rsm0-rcm11-esm29-rsr0-rcr69-esr100,exr/ReadingArea_rsl0-rcl11-esl100-rsm0-rcm11-esm29-rsr0-rcr69-esr100.exr,ReadingArea_rsl0-rcl11-esl100-rsm0-rcm11-esm29-rsr0-rcr69-esr100.npz,,,,,0,131,131,131,450.8697521686554,,left,green,0.75,451.1513411998749,2,,EB,1,brightness,readingArea,realistic,72,2023-03-07_13h24.07.615,tripletExp_regina_11082022,2022.2.4,119.91845907085654,
13,11,9,0,0.111111111111111,3.10526315789474,0,1.0,1.0,0,0.444444444444444,1.0,ReadingArea_rsl0-rcl11-esl310-rsm0-rcm100-esm100-rsr0-rcr44-esr100,exr/ReadingArea_rsl0-rcl11-esl310-rsm0-rcm100-esm100-rsr0-rcr44-esr100.exr,ReadingArea_rsl0-rcl11-esl310-rsm0-rcm100-esm100-rsr0-rcr44-esr100.npz,,,,,0,132,132,132,452.9177970886231,,right,red,1.04,453.1970920562744,2,,EB,1,brightness,readingArea,realistic,72,2023-03-07_13h24.07.615,tripletExp_regina_11082022,2022.2.4,119.91845907085654,
13,3,6,0,0.111111111111111,3.10526315789474,0,0.444444444444444,0.298245614035088,0,0.027777777777778,1.0,ReadingArea_rsl0-rcl11-esl310-rsm0-rcm44-esm29-rsr0-rcr2-esr100,exr/ReadingArea_rsl0-rcl11-esl310-rsm0-rcm44-esm29-rsr0-rcr2-esr100.exr,ReadingArea_rsl0-rcl11-esl310-rsm0-rcm44-esm29-rsr0-rcr2-esr100.npz,,,,,0,133,133,133,454.9621171951294,,left,green,2.25,455.2546410560608,2,,EB,1,brightness,readingArea,realistic,72,2023-03-07_13h24.07.615,tripletExp_regina_11082022,2022.2.4,119.91845907085654,
10,3,13,0,0.694444444444444,1.0,0,0.444444444444444,0.298245614035088,0,0.111111111111111,3.10526315789474,ReadingArea_rsl0-rcl69-esl100-rsm0-rcm44-esm29-rsr0-rcr11-esr310,exr/ReadingArea_rsl0-rcl69-esl100-rsm0-rcm44-esm29-rsr0-rcr11-esr310.exr,ReadingArea_rsl0-rcl69-esl100-rsm0-rcm44-esm29-rsr0-rcr11-esr310.npz,,,,,0,134,134,134,458.7841520309448,,right,red,1.0,,2,,EB,1,brightness,readingArea,realistic,72,2023-03-07_13h24.07.615,tripletExp_regina_11082022,2022.2.4,119.91845907085654,
0,8,7,0,0.027777777777778,0.298245614035088,0,0.25,1.0,0,0.111111111111111,1.0,ReadingArea_rsl0-rcl2-esl29-rsm0-rcm25-esm100-rsr0-rcr11-esr100,exr/ReadingArea_rsl0-rcl2-esl29-rsm0-rcm25-esm100-rsr0-rcr11-esr100.exr,ReadingArea_rsl0-rcl2-esl29-rsm0-rcm25-esm100-rsr0-rcr11-esr100.npz,,,,,0,135,135,135,460.8503851890564,,right,red,0.93,,2,,EB,1,brightness,readingArea,realistic,72,2023-03-07_13h24.07.615,tripletExp_regina_11082022,2022.2.4,119.91845907085654,
6,5,2,0,0.027777777777778,1.0,0,1.0,0.298245614035088,0,0.25,0.298245614035088,ReadingArea_rsl0-rcl2-esl100-rsm0-rcm100-esm29-rsr0-rcr25-esr29,exr/ReadingArea_rsl0-rcl2-esl100-rsm0-rcm100-esm29-rsr0-rcr25-esr29.exr,ReadingArea_rsl0-rcl2-esl100-rsm0-rcm100-esm29-rsr0-rcr25-esr29.npz,,,,,0,136,136,136,462.8980422019959,,right,red,0.82,463.18006706237793,2,,EB,1,brightness,readingArea,realistic,72,2023-03-07_13h24.07.615,tripletExp_regina_11082022,2022.2.4,119.91845907085654,
12,1,3,0,0.027777777777778,3.10526315789474,0,0.111111111111111,0.298245614035088,0,0.444444444444444,0.298245614035088,ReadingArea_rsl0-rcl2-esl310-rsm0-rcm11-esm29-rsr0-rcr44-esr29,exr/ReadingArea_rsl0-rcl2-esl310-rsm0-rcm11-esm29-rsr0-rcr44-esr29.exr,ReadingArea_rsl0-rcl2-esl310-rsm0-rcm11-esm29-rsr0-rcr44-esr29.npz,,,,,0,137,137,137,464.9521930217743,,left,green,0.67,465.2333571910858,2,,EB,1,brightness,readingArea,realistic,72,2023-03-07_13h24.07.615,tripletExp_regina_11082022,2022.2.4,119.91845907085654,
7,6,0,0,0.111111111111111,1.0,0,0.027777777777778,1.0,0,0.027777777777778,0.298245614035088,ReadingArea_rsl0-rcl11-esl100-rsm0-rcm2-esm100-rsr0-rcr2-esr29,exr/ReadingArea_rsl0-rcl11-esl100-rsm0-rcm2-esm100-rsr0-rcr2-esr29.exr,ReadingArea_rsl0-rcl11-esl100-rsm0-rcm2-esm100-rsr0-rcr2-esr29.npz,,,,,0,138,138,138,467.002482175827,,right,red,2.2,467.27986001968384,2,,EB,1,brightness,readingArea,realistic,72,2023-03-07_13h24.07.615,tripletExp_regina_11082022,2022.2.4,119.91845907085654,
9,14,5,0,0.444444444444444,1.0,0,0.25,3.10526315789474,0,1.0,0.298245614035088,ReadingArea_rsl0-rcl44-esl100-rsm0-rcm25-esm310-rsr0-rcr100-esr29,exr/ReadingArea_rsl0-rcl44-esl100-rsm0-rcm25-esm310-rsr0-rcr100-esr29.exr,ReadingArea_rsl0-rcl44-esl100-rsm0-rcm25-esm310-rsr0-rcr100-esr29.npz,,,,,0,139,139,139,470.8112540245056,,left,green,2.06,471.1101441383362,2,,EB,1,brightness,readingArea,realistic,72,2023-03-07_13h24.07.615,tripletExp_regina_11082022,2022.2.4,119.91845907085654,
1,13,5,0,0.111111111111111,0.298245614035088,0,0.111111111111111,3.10526315789474,0,1.0,0.298245614035088,ReadingArea_rsl0-rcl11-esl29-rsm0-rcm11-esm310-rsr0-rcr100-esr29,exr/ReadingArea_rsl0-rcl11-esl29-rsm0-rcm11-esm310-rsr0-rcr100-esr29.exr,ReadingArea_rsl0-rcl11-esl29-rsm0-rcm11-esm310-rsr0-rcr100-esr29.npz,,,,,0,140,140,140,474.6308271884918,,right,red,0.76,474.92472410202026,2,,EB,1,brightness,readingArea,realistic,72,2023-03-07_13h24.07.615,tripletExp_regina_11082022,2022.2.4,119.91845907085654,
0,12,4,0,0.027777777777778,0.298245614035088,0,0.027777777777778,3.10526315789474,0,0.694444444444444,0.298245614035088,ReadingArea_rsl0-rcl2-esl29-rsm0-rcm2-esm310-rsr0-rcr69-esr29,exr/ReadingArea_rsl0-rcl2-esl29-rsm0-rcm2-esm310-rsr0-rcr69-esr29.exr,ReadingArea_rsl0-rcl2-esl29-rsm0-rcm2-esm310-rsr0-rcr69-esr29.npz,,,,,0,141,141,141,476.7867500782013,,right,red,1.19,,2,,EB,1,brightness,readingArea,realistic,72,2023-03-07_13h24.07.615,tripletExp_regina_11082022,2022.2.4,119.91845907085654,
2,8,5,0,0.25,0.298245614035088,0,0.25,1.0,0,1.0,0.298245614035088,ReadingArea_rsl0-rcl25-esl29-rsm0-rcm25-esm100-rsr0-rcr100-esr29,exr/ReadingArea_rsl0-rcl25-esl29-rsm0-rcm25-esm100-rsr0-rcr100-esr29.exr,ReadingArea_rsl0-rcl25-esl29-rsm0-rcm25-esm100-rsr0-rcr100-esr29.npz,,,,,0,142,142,142,478.8606290817261,,right,red,0.87,,2,,EB,1,brightness,readingArea,realistic,72,2023-03-07_13h24.07.615,tripletExp_regina_11082022,2022.2.4,119.91845907085654,
13,4,3,0,0.111111111111111,3.10526315789474,0,0.694444444444444,0.298245614035088,0,0.444444444444444,0.298245614035088,ReadingArea_rsl0-rcl11-esl310-rsm0-rcm69-esm29-rsr0-rcr44-esr29,exr/ReadingArea_rsl0-rcl11-esl310-rsm0-rcm69-esm29-rsr0-rcr44-esr29.exr,ReadingArea_rsl0-rcl11-esl310-rsm0-rcm69-esm29-rsr0-rcr44-esr29.npz,,,,,0,143,143,143,480.8916292190552,,left,green,0.96,481.1794500350952,2,,EB,1,brightness,readingArea,realistic,72,2023-03-07_13h24.07.615,tripletExp_regina_11082022,2022.2.4,119.91845907085654,
6,11,3,0,0.027777777777778,1.0,0,1.0,1.0,0,0.444444444444444,0.298245614035088,ReadingArea_rsl0-rcl2-esl100-rsm0-rcm100-esm100-rsr0-rcr44-esr29,exr/ReadingArea_rsl0-rcl2-esl100-rsm0-rcm100-esm100-rsr0-rcr44-esr29.exr,ReadingArea_rsl0-rcl2-esl100-rsm0-rcm100-esm100-rsr0-rcr44-esr29.npz,,,,,0,144,144,144,545.301470041275,,right,red,0.79,545.6470341682434,3,,EB,1,brightness,readingArea,realistic,72,2023-03-07_13h24.07.615,tripletExp_regina_11082022,2022.2.4,119.91845907085654,
7,1,14,0,0.111111111111111,1.0,0,0.111111111111111,0.298245614035088,0,0.25,3.10526315789474,ReadingArea_rsl0-rcl11-esl100-rsm0-rcm11-esm29-rsr0-rcr25-esr310,exr/ReadingArea_rsl0-rcl11-esl100-rsm0-rcm11-esm29-rsr0-rcr25-esr310.exr,ReadingArea_rsl0-rcl11-esl100-rsm0-rcm11-esm29-rsr0-rcr25-esr310.npz,,,,,0,145,145,145,547.3769130706787,,left,green,0.58,547.6509170532227,3,,EB,1,brightness,readingArea,realistic,72,2023-03-07_13h24.07.615,tripletExp_regina_11082022,2022.2.4,119.91845907085654,
7,14,10,0,0.111111111111111,1.0,0,0.25,3.10526315789474,0,0.694444444444444,1.0,ReadingArea_rsl0-rcl11-esl100-rsm0-rcm25-esm310-rsr0-rcr69-esr100,exr/ReadingArea_rsl0-rcl11-esl100-rsm0-rcm25-esm310-rsr0-rcr69-esr100.exr,ReadingArea_rsl0-rcl11-esl100-rsm0-rcm25-esm310-rsr0-rcr69-esr100.npz,,,,,0,146,146,146,549.3916440010071,,right,red,0.6,549.6665060520172,3,,EB,1,brightness,readingArea,realistic,72,2023-03-07_13h24.07.615,tripletExp_regina_11082022,2022.2.4,119.91845907085654,
10,3,0,0,0.694444444444444,1.0,0,0.444444444444444,0.298245614035088,0,0.027777777777778,0.298245614035088,ReadingArea_rsl0-rcl69-esl100-rsm0-rcm44-esm29-rsr0-rcr2-esr29,exr/ReadingArea_rsl0-rcl69-esl100-rsm0-rcm44-esm29-rsr0-rcr2-esr29.exr,ReadingArea_rsl0-rcl69-esl100-rsm0-rcm44-esm29-rsr0-rcr2-esr29.npz,,,,,0,147,147,147,551.4311451911926,,left,green,0.7,,3,,EB,1,brightness,readingArea,realistic,72,2023-03-07_13h24.07.615,tripletExp_regina_11082022,2022.2.4,119.91845907085654,
9,0,3,0,0.444444444444444,1.0,0,0.027777777777778,0.298245614035088,0,0.444444444444444,0.298245614035088,ReadingArea_rsl0-rcl44-esl100-rsm0-rcm2-esm29-rsr0-rcr44-esr29,exr/ReadingArea_rsl0-rcl44-esl100-rsm0-rcm2-esm29-rsr0-rcr44-esr29.exr,ReadingArea_rsl0-rcl44-esl100-rsm0-rcm2-esm29-rsr0-rcr44-esr29.npz,,,,,0,148,148,148,553.4691061973572,,right,red,0.97,553.7578701972961,3,,EB,1,brightness,readingArea,realistic,72,2023-03-07_13h24.07.615,tripletExp_regina_11082022,2022.2.4,119.91845907085654,
6,10,3,0,0.027777777777778,1.0,0,0.694444444444444,1.0,0,0.444444444444444,0.298245614035088,ReadingArea_rsl0-rcl2-esl100-rsm0-rcm69-esm100-rsr0-rcr44-esr29,exr/ReadingArea_rsl0-rcl2-esl100-rsm0-rcm69-esm100-rsr0-rcr44-esr29.exr,ReadingArea_rsl0-rcl2-esl100-rsm0-rcm69-esm100-rsr0-rcr44-esr29.npz,,,,,0,149,149,149,555.5156490802765,,right,red,0.86,,3,,EB,1,brightness,readingArea,realistic,72,2023-03-07_13h24.07.615,tripletExp_regina_11082022,2022.2.4,119.91845907085654,
1,8,6,0,0.111111111111111,0.298245614035088,0,0.25,1.0,0,0.027777777777778,1.0,ReadingArea_rsl0-rcl11-esl29-rsm0-rcm25-esm100-rsr0-rcr2-esr100,exr/ReadingArea_rsl0-rcl11-esl29-rsm0-rcm25-esm100-rsr0-rcr2-esr100.exr,ReadingArea_rsl0-rcl11-esl29-rsm0-rcm25-esm100-rsr0-rcr2-esr100.npz,,,,,0,150,150,150,557.5831332206726,,left,green,1.05,557.8617219924927,3,,EB,1,brightness,readingArea,realistic,72,2023-03-07_13h24.07.615,tripletExp_regina_11082022,2022.2.4,119.91845907085654,
12,14,6,0,0.027777777777778,3.10526315789474,0,0.25,3.10526315789474,0,0.027777777777778,1.0,ReadingArea_rsl0-rcl2-esl310-rsm0-rcm25-esm310-rsr0-rcr2-esr100,exr/ReadingArea_rsl0-rcl2-esl310-rsm0-rcm25-esm310-rsr0-rcr2-esr100.exr,ReadingArea_rsl0-rcl2-esl310-rsm0-rcm25-esm310-rsr0-rcr2-esr100.npz,,,,,0,151,151,151,559.6026680469513,,left,green,1.09,559.8986871242523,3,,EB,1,brightness,readingArea,realistic,72,2023-03-07_13h24.07.615,tripletExp_regina_11082022,2022.2.4,119.91845907085654,
2,8,0,0,0.25,0.298245614035088,0,0.25,1.0,0,0.027777777777778,0.298245614035088,ReadingArea_rsl0-rcl25-esl29-rsm0-rcm25-esm100-rsr0-rcr2-esr29,exr/ReadingArea_rsl0-rcl25-esl29-rsm0-rcm25-esm100-rsr0-rcr2-esr29.exr,ReadingArea_rsl0-rcl25-esl29-rsm0-rcm25-esm100-rsr0-rcr2-esr29.npz,,,,,0,152,152,152,561.6496942043304,,left,green,2.18,,3,,EB,1,brightness,readingArea,realistic,72,2023-03-07_13h24.07.615,tripletExp_regina_11082022,2022.2.4,119.91845907085654,
10,6,9,0,0.694444444444444,1.0,0,0.027777777777778,1.0,0,0.444444444444444,1.0,ReadingArea_rsl0-rcl69-esl100-rsm0-rcm2-esm100-rsr0-rcr44-esr100,exr/ReadingArea_rsl0-rcl69-esl100-rsm0-rcm2-esm100-rsr0-rcr44-esr100.exr,ReadingArea_rsl0-rcl69-esl100-rsm0-rcm2-esm100-rsr0-rcr44-esr100.npz,,,,,0,153,153,153,565.4418251514435,,right,red,0.78,,3,,EB,1,brightness,readingArea,realistic,72,2023-03-07_13h24.07.615,tripletExp_regina_11082022,2022.2.4,119.91845907085654,
3,5,12,0,0.444444444444444,0.298245614035088,0,1.0,0.298245614035088,0,0.027777777777778,3.10526315789474,ReadingArea_rsl0-rcl44-esl29-rsm0-rcm100-esm29-rsr0-rcr2-esr310,exr/ReadingArea_rsl0-rcl44-esl29-rsm0-rcm100-esm29-rsr0-rcr2-esr310.exr,ReadingArea_rsl0-rcl44-esl29-rsm0-rcm100-esm29-rsr0-rcr2-esr310.npz,,,,,0,154,154,154,567.4947280883789,,left,green,2.45,567.7817101478577,3,,EB,1,brightness,readingArea,realistic,72,2023-03-07_13h24.07.615,tripletExp_regina_11082022,2022.2.4,119.91845907085654,
4,6,9,0,0.694444444444444,0.298245614035088,0,0.027777777777778,1.0,0,0.444444444444444,1.0,ReadingArea_rsl0-rcl69-esl29-rsm0-rcm2-esm100-rsr0-rcr44-esr100,exr/ReadingArea_rsl0-rcl69-esl29-rsm0-rcm2-esm100-rsr0-rcr44-esr100.exr,ReadingArea_rsl0-rcl69-esl29-rsm0-rcm2-esm100-rsr0-rcr44-esr100.npz,,,,,0,155,155,155,571.2984440326691,,left,green,1.13,571.5709180831909,3,,EB,1,brightness,readingArea,realistic,72,2023-03-07_13h24.07.615,tripletExp_regina_11082022,2022.2.4,119.91845907085654,
0,6,4,0,0.027777777777778,0.298245614035088,0,0.027777777777778,1.0,0,0.694444444444444,0.298245614035088,ReadingArea_rsl0-rcl2-esl29-rsm0-rcm2-esm100-rsr0-rcr69-esr29,exr/ReadingArea_rsl0-rcl2-esl29-rsm0-rcm2-esm100-rsr0-rcr69-esr29.exr,ReadingArea_rsl0-rcl2-esl29-rsm0-rcm2-esm100-rsr0-rcr69-esr29.npz,,,,,0,156,156,156,573.3329391479492,,left,green,0.7,573.6175670623779,3,,EB,1,brightness,readingArea,realistic,72,2023-03-07_13h24.07.615,tripletExp_regina_11082022,2022.2.4,119.91845907085654,
2,6,5,0,0.25,0.298245614035088,0,0.027777777777778,1.0,0,1.0,0.298245614035088,ReadingArea_rsl0-rcl25-esl29-rsm0-rcm2-esm100-rsr0-rcr100-esr29,exr/ReadingArea_rsl0-rcl25-esl29-rsm0-rcm2-esm100-rsr0-rcr100-esr29.exr,ReadingArea_rsl0-rcl25-esl29-rsm0-rcm2-esm100-rsr0-rcr100-esr29.npz,,,,,0,157,157,157,575.3786652088165,,left,green,0.87,575.6643431186676,3,,EB,1,brightness,readingArea,realistic,72,2023-03-07_13h24.07.615,tripletExp_regina_11082022,2022.2.4,119.91845907085654,
1,5,11,0,0.111111111111111,0.298245614035088,0,1.0,0.298245614035088,0,1.0,1.0,ReadingArea_rsl0-rcl11-esl29-rsm0-rcm100-esm29-rsr0-rcr100-esr100,exr/ReadingArea_rsl0-rcl11-esl29-rsm0-rcm100-esm29-rsr0-rcr100-esr100.exr,ReadingArea_rsl0-rcl11-esl29-rsm0-rcm100-esm29-rsr0-rcr100-esr100.npz,,,,,0,158,158,158,577.4250741004944,,right,red,2.44,577.699273109436,3,,EB,1,brightness,readingArea,realistic,72,2023-03-07_13h24.07.615,tripletExp_regina_11082022,2022.2.4,119.91845907085654,
12,7,3,0,0.027777777777778,3.10526315789474,0,0.111111111111111,1.0,0,0.444444444444444,0.298245614035088,ReadingArea_rsl0-rcl2-esl310-rsm0-rcm11-esm100-rsr0-rcr44-esr29,exr/ReadingArea_rsl0-rcl2-esl310-rsm0-rcm11-esm100-rsr0-rcr44-esr29.exr,ReadingArea_rsl0-rcl2-esl310-rsm0-rcm11-esm100-rsr0-rcr44-esr29.npz,,,,,0,159,159,159,581.2263100147247,,left,green,2.48,581.5200140476227,3,,EB,1,brightness,readingArea,realistic,72,2023-03-07_13h24.07.615,tripletExp_regina_11082022,2022.2.4,119.91845907085654,
11,13,9,0,1.0,1.0,0,0.111111111111111,3.10526315789474,0,0.444444444444444,1.0,ReadingArea_rsl0-rcl100-esl100-rsm0-rcm11-esm310-rsr0-rcr44-esr100,exr/ReadingArea_rsl0-rcl100-esl100-rsm0-rcm11-esm310-rsr0-rcr44-esr100.exr,ReadingArea_rsl0-rcl100-esl100-rsm0-rcm11-esm310-rsr0-rcr44-esr100.npz,,,,,0,160,160,160,585.0108060836792,,right,red,2.16,,3,,EB,1,brightness,readingArea,realistic,72,2023-03-07_13h24.07.615,tripletExp_regina_11082022,2022.2.4,119.91845907085654,
2,1,14,0,0.25,0.298245614035088,0,0.111111111111111,0.298245614035088,0,0.25,3.10526315789474,ReadingArea_rsl0-rcl25-esl29-rsm0-rcm11-esm29-rsr0-rcr25-esr310,exr/ReadingArea_rsl0-rcl25-esl29-rsm0-rcm11-esm29-rsr0-rcr25-esr310.exr,ReadingArea_rsl0-rcl25-esl29-rsm0-rcm11-esm29-rsr0-rcr25-esr310.npz,,,,,0,161,161,161,588.9516270160675,,left,green,0.78,589.2695980072021,3,,EB,1,brightness,readingArea,realistic,72,2023-03-07_13h24.07.615,tripletExp_regina_11082022,2022.2.4,119.91845907085654,
9,2,12,0,0.444444444444444,1.0,0,0.25,0.298245614035088,0,0.027777777777778,3.10526315789474,ReadingArea_rsl0-rcl44-esl100-rsm0-rcm25-esm29-rsr0-rcr2-esr310,exr/ReadingArea_rsl0-rcl44-esl100-rsm0-rcm25-esm29-rsr0-rcr2-esr310.exr,ReadingArea_rsl0-rcl44-esl100-rsm0-rcm25-esm29-rsr0-rcr2-esr310.npz,,,,,0,162,162,162,591.0267550945282,,right,red,0.64,591.3099851608276,3,,EB,1,brightness,readingArea,realistic,72,2023-03-07_13h24.07.615,tripletExp_regina_11082022,2022.2.4,119.91845907085654,
8,2,12,0,0.25,1.0,0,0.25,0.298245614035088,0,0.027777777777778,3.10526315789474,ReadingArea_rsl0-rcl25-esl100-rsm0-rcm25-esm29-rsr0-rcr2-esr310,exr/ReadingArea_rsl0-rcl25-esl100-rsm0-rcm25-esm29-rsr0-rcr2-esr310.exr,ReadingArea_rsl0-rcl25-esl100-rsm0-rcm25-esm29-rsr0-rcr2-esr310.npz,,,,,0,163,163,163,593.0619490146637,,right,red,0.87,,3,,EB,1,brightness,readingArea,realistic,72,2023-03-07_13h24.07.615,tripletExp_regina_11082022,2022.2.4,119.91845907085654,
12,10,9,0,0.027777777777778,3.10526315789474,0,0.694444444444444,1.0,0,0.444444444444444,1.0,ReadingArea_rsl0-rcl2-esl310-rsm0-rcm69-esm100-rsr0-rcr44-esr100,exr/ReadingArea_rsl0-rcl2-esl310-rsm0-rcm69-esm100-rsr0-rcr44-esr100.exr,ReadingArea_rsl0-rcl2-esl310-rsm0-rcm69-esm100-rsr0-rcr44-esr100.npz,,,,,0,164,164,164,595.093554019928,,right,red,0.78,595.3811001777649,3,,EB,1,brightness,readingArea,realistic,72,2023-03-07_13h24.07.615,tripletExp_regina_11082022,2022.2.4,119.91845907085654,
4,0,6,0,0.694444444444444,0.298245614035088,0,0.027777777777778,0.298245614035088,0,0.027777777777778,1.0,ReadingArea_rsl0-rcl69-esl29-rsm0-rcm2-esm29-rsr0-rcr2-esr100,exr/ReadingArea_rsl0-rcl69-esl29-rsm0-rcm2-esm29-rsr0-rcr2-esr100.exr,ReadingArea_rsl0-rcl69-esl29-rsm0-rcm2-esm29-rsr0-rcr2-esr100.npz,,,,,0,165,165,165,597.1274781227112,,right,red,0.74,597.4130911827087,3,,EB,1,brightness,readingArea,realistic,72,2023-03-07_13h24.07.615,tripletExp_regina_11082022,2022.2.4,119.91845907085654,
0,13,1,0,0.027777777777778,0.298245614035088,0,0.111111111111111,3.10526315789474,0,0.111111111111111,0.298245614035088,ReadingArea_rsl0-rcl2-esl29-rsm0-rcm11-esm310-rsr0-rcr11-esr29,exr/ReadingArea_rsl0-rcl2-esl29-rsm0-rcm11-esm310-rsr0-rcr11-esr29.exr,ReadingArea_rsl0-rcl2-esl29-rsm0-rcm11-esm310-rsr0-rcr11-esr29.npz,,,,,0,166,166,166,599.1827411651611,,right,red,2.02,599.4750730991364,3,,EB,1,brightness,readingArea,realistic,72,2023-03-07_13h24.07.615,tripletExp_regina_11082022,2022.2.4,119.91845907085654,
3,5,14,0,0.444444444444444,0.298245614035088,0,1.0,0.298245614035088,0,0.25,3.10526315789474,ReadingArea_rsl0-rcl44-esl29-rsm0-rcm100-esm29-rsr0-rcr25-esr310,exr/ReadingArea_rsl0-rcl44-esl29-rsm0-rcm100-esm29-rsr0-rcr25-esr310.exr,ReadingArea_rsl0-rcl44-esl29-rsm0-rcm100-esm29-rsr0-rcr25-esr310.npz,,,,,0,167,167,167,602.9777081012726,,left,green,2.84,603.263218164444,3,,EB,1,brightness,readingArea,realistic,72,2023-03-07_13h24.07.615,tripletExp_regina_11082022,2022.2.4,119.91845907085654,
10,3,11,0,0.694444444444444,1.0,0,0.444444444444444,0.298245614035088,0,1.0,1.0,ReadingArea_rsl0-rcl69-esl100-rsm0-rcm44-esm29-rsr0-rcr100-esr100,exr/ReadingArea_rsl0-rcl69-esl100-rsm0-rcm44-esm29-rsr0-rcr100-esr100.exr,ReadingArea_rsl0-rcl69-esl100-rsm0-rcm44-esm29-rsr0-rcr100-esr100.npz,,,,,0,168,168,168,606.7977931499481,,left,green,1.98,,3,,EB,1,brightness,readingArea,realistic,72,2023-03-07_13h24.07.615,tripletExp_regina_11082022,2022.2.4,119.91845907085654,
3,1,2,0,0.444444444444444,0.298245614035088,0,0.111111111111111,0.298245614035088,0,0.25,0.298245614035088,ReadingArea_rsl0-rcl44-esl29-rsm0-rcm11-esm29-rsr0-rcr25-esr29,exr/ReadingArea_rsl0-rcl44-esl29-rsm0-rcm11-esm29-rsr0-rcr25-esr29.exr,ReadingArea_rsl0-rcl44-esl29-rsm0-rcm11-esm29-rsr0-rcr25-esr29.npz,,,,,0,169,169,169,610.6339612007141,,right,red,0.75,610.9359240531921,3,,EB,1,brightness,readingArea,realistic,72,2023-03-07_13h24.07.615,tripletExp_regina_11082022,2022.2.4,119.91845907085654,
6,10,8,0,0.027777777777778,1.0,0,0.694444444444444,1.0,0,0.25,1.0,ReadingArea_rsl0-rcl2-esl100-rsm0-rcm69-esm100-rsr0-rcr25-esr100,exr/ReadingArea_rsl0-rcl2-esl100-rsm0-rcm69-esm100-rsr0-rcr25-esr100.exr,ReadingArea_rsl0-rcl2-esl100-rsm0-rcm69-esm100-rsr0-rcr25-esr100.npz,,,,,0,170,170,170,612.6905641555786,,right,red,0.98,,3,,EB,1,brightness,readingArea,realistic,72,2023-03-07_13h24.07.615,tripletExp_regina_11082022,2022.2.4,119.91845907085654,
11,10,14,0,1.0,1.0,0,0.694444444444444,1.0,0,0.25,3.10526315789474,ReadingArea_rsl0-rcl100-esl100-rsm0-rcm69-esm100-rsr0-rcr25-esr310,exr/ReadingArea_rsl0-rcl100-esl100-rsm0-rcm69-esm100-rsr0-rcr25-esr310.exr,ReadingArea_rsl0-rcl100-esl100-rsm0-rcm69-esm100-rsr0-rcr25-esr310.npz,,,,,0,171,171,171,614.7415840625763,,right,red,2.01,,3,,EB,1,brightness,readingArea,realistic,72,2023-03-07_13h24.07.615,tripletExp_regina_11082022,2022.2.4,119.91845907085654,
0,8,9,0,0.027777777777778,0.298245614035088,0,0.25,1.0,0,0.444444444444444,1.0,ReadingArea_rsl0-rcl2-esl29-rsm0-rcm25-esm100-rsr0-rcr44-esr100,exr/ReadingArea_rsl0-rcl2-esl29-rsm0-rcm25-esm100-rsr0-rcr44-esr100.exr,ReadingArea_rsl0-rcl2-esl29-rsm0-rcm25-esm100-rsr0-rcr44-esr100.npz,,,,,0,172,172,172,618.6321179866791,,right,red,1.04,618.9226930141449,3,,EB,1,brightness,readingArea,realistic,72,2023-03-07_13h24.07.615,tripletExp_regina_11082022,2022.2.4,119.91845907085654,
0,3,2,0,0.027777777777778,0.298245614035088,0,0.444444444444444,0.298245614035088,0,0.25,0.298245614035088,ReadingArea_rsl0-rcl2-esl29-rsm0-rcm44-esm29-rsr0-rcr25-esr29,exr/ReadingArea_rsl0-rcl2-esl29-rsm0-rcm44-esm29-rsr0-rcr25-esr29.exr,ReadingArea_rsl0-rcl2-esl29-rsm0-rcm44-esm29-rsr0-rcr25-esr29.npz,,,,,0,173,173,173,620.6921072006226,,right,red,0.88,,3,,EB,1,brightness,readingArea,realistic,72,2023-03-07_13h24.07.615,tripletExp_regina_11082022,2022.2.4,119.91845907085654,
2,9,7,0,0.25,0.298245614035088,0,0.444444444444444,1.0,0,0.111111111111111,1.0,ReadingArea_rsl0-rcl25-esl29-rsm0-rcm44-esm100-rsr0-rcr11-esr100,exr/ReadingArea_rsl0-rcl25-esl29-rsm0-rcm44-esm100-rsr0-rcr11-esr100.exr,ReadingArea_rsl0-rcl25-esl29-rsm0-rcm44-esm100-rsr0-rcr11-esr100.npz,,,,,0,174,174,174,622.740040063858,,right,red,1.92,623.0243141651154,3,,EB,1,brightness,readingArea,realistic,72,2023-03-07_13h24.07.615,tripletExp_regina_11082022,2022.2.4,119.91845907085654,
11,10,4,0,1.0,1.0,0,0.694444444444444,1.0,0,0.694444444444444,0.298245614035088,ReadingArea_rsl0-rcl100-esl100-rsm0-rcm69-esm100-rsr0-rcr69-esr29,exr/ReadingArea_rsl0-rcl100-esl100-rsm0-rcm69-esm100-rsr0-rcr69-esr29.exr,ReadingArea_rsl0-rcl100-esl100-rsm0-rcm69-esm100-rsr0-rcr69-esr29.npz,,,,,0,175,175,175,626.536502122879,,left,green,1.5,626.8127820491791,3,,EB,1,brightness,readingArea,realistic,72,2023-03-07_13h24.07.615,tripletExp_regina_11082022,2022.2.4,119.91845907085654,
14,12,11,0,0.25,3.10526315789474,0,0.027777777777778,3.10526315789474,0,1.0,1.0,ReadingArea_rsl0-rcl25-esl310-rsm0-rcm2-esm310-rsr0-rcr100-esr100,exr/ReadingArea_rsl0-rcl25-esl310-rsm0-rcm2-esm310-rsr0-rcr100-esr100.exr,ReadingArea_rsl0-rcl25-esl310-rsm0-rcm2-esm310-rsr0-rcr100-esr100.npz,,,,,0,176,176,176,628.5652492046356,,left,green,1.95,628.8397371768951,3,,EB,1,brightness,readingArea,realistic,72,2023-03-07_13h24.07.615,tripletExp_regina_11082022,2022.2.4,119.91845907085654,
7,4,10,0,0.111111111111111,1.0,0,0.694444444444444,0.298245614035088,0,0.694444444444444,1.0,ReadingArea_rsl0-rcl11-esl100-rsm0-rcm69-esm29-rsr0-rcr69-esr100,exr/ReadingArea_rsl0-rcl11-esl100-rsm0-rcm69-esm29-rsr0-rcr69-esr100.exr,ReadingArea_rsl0-rcl11-esl100-rsm0-rcm69-esm29-rsr0-rcr69-esr100.npz,,,,,0,177,177,177,632.382395029068,,left,green,2.07,632.6567521095276,3,,EB,1,brightness,readingArea,realistic,72,2023-03-07_13h24.07.615,tripletExp_regina_11082022,2022.2.4,119.91845907085654,
5,1,8,0,1.0,0.298245614035088,0,0.111111111111111,0.298245614035088,0,0.25,1.0,ReadingArea_rsl0-rcl100-esl29-rsm0-rcm11-esm29-rsr0-rcr25-esr100,exr/ReadingArea_rsl0-rcl100-esl29-rsm0-rcm11-esm29-rsr0-rcr25-esr100.exr,ReadingArea_rsl0-rcl100-esl29-rsm0-rcm11-esm29-rsr0-rcr25-esr100.npz,,,,,0,178,178,178,636.1963791847229,,right,red,0.9,636.4718070030212,3,,EB,1,brightness,readingArea,realistic,72,2023-03-07_13h24.07.615,tripletExp_regina_11082022,2022.2.4,119.91845907085654,
7,6,14,0,0.111111111111111,1.0,0,0.027777777777778,1.0,0,0.25,3.10526315789474,ReadingArea_rsl0-rcl11-esl100-rsm0-rcm2-esm100-rsr0-rcr25-esr310,exr/ReadingArea_rsl0-rcl11-esl100-rsm0-rcm2-esm100-rsr0-rcr25-esr310.exr,ReadingArea_rsl0-rcl11-esl100-rsm0-rcm2-esm100-rsr0-rcr25-esr310.npz,,,,,0,179,179,179,638.2216861248016,,left,green,0.87,638.4979591369629,3,,EB,1,brightness,readingArea,realistic,72,2023-03-07_13h24.07.615,tripletExp_regina_11082022,2022.2.4,119.91845907085654,
10,3,8,0,0.694444444444444,1.0,0,0.444444444444444,0.298245614035088,0,0.25,1.0,ReadingArea_rsl0-rcl69-esl100-rsm0-rcm44-esm29-rsr0-rcr25-esr100,exr/ReadingArea_rsl0-rcl69-esl100-rsm0-rcm44-esm29-rsr0-rcr25-esr100.exr,ReadingArea_rsl0-rcl69-esl100-rsm0-rcm44-esm29-rsr0-rcr25-esr100.npz,,,,,0,180,180,180,640.2858290672302,,right,red,0.89,,3,,EB,1,brightness,readingArea,realistic,72,2023-03-07_13h24.07.615,tripletExp_regina_11082022,2022.2.4,119.91845907085654,
13,7,1,0,0.111111111111111,3.10526315789474,0,0.111111111111111,1.0,0,0.111111111111111,0.298245614035088,ReadingArea_rsl0-rcl11-esl310-rsm0-rcm11-esm100-rsr0-rcr11-esr29,exr/ReadingArea_rsl0-rcl11-esl310-rsm0-rcm11-esm100-rsr0-rcr11-esr29.exr,ReadingArea_rsl0-rcl11-esl310-rsm0-rcm11-esm100-rsr0-rcr11-esr29.npz,,,,,0,181,181,181,642.3366332054138,,right,red,2.17,,3,,EB,1,brightness,readingArea,realistic,72,2023-03-07_13h24.07.615,tripletExp_regina_11082022,2022.2.4,119.91845907085654,
12,5,0,0,0.027777777777778,3.10526315789474,0,1.0,0.298245614035088,0,0.027777777777778,0.298245614035088,ReadingArea_rsl0-rcl2-esl310-rsm0-rcm100-esm29-rsr0-rcr2-esr29,exr/ReadingArea_rsl0-rcl2-esl310-rsm0-rcm100-esm29-rsr0-rcr2-esr29.exr,ReadingArea_rsl0-rcl2-esl310-rsm0-rcm100-esm29-rsr0-rcr2-esr29.npz,,,,,0,182,182,182,646.139769077301,,left,green,0.8,646.4290680885315,3,,EB,1,brightness,readingArea,realistic,72,2023-03-07_13h24.07.615,tripletExp_regina_11082022,2022.2.4,119.91845907085654,
11,9,14,0,1.0,1.0,0,0.444444444444444,1.0,0,0.25,3.10526315789474,ReadingArea_rsl0-rcl100-esl100-rsm0-rcm44-esm100-rsr0-rcr25-esr310,exr/ReadingArea_rsl0-rcl100-esl100-rsm0-rcm44-esm100-rsr0-rcr25-esr310.exr,ReadingArea_rsl0-rcl100-esl100-rsm0-rcm44-esm100-rsr0-rcr25-esr310.npz,,,,,0,183,183,183,648.1952931880951,,right,red,2.05,648.494861125946,3,,EB,1,brightness,readingArea,realistic,72,2023-03-07_13h24.07.615,tripletExp_regina_11082022,2022.2.4,119.91845907085654,
7,9,6,0,0.111111111111111,1.0,0,0.444444444444444,1.0,0,0.027777777777778,1.0,ReadingArea_rsl0-rcl11-esl100-rsm0-rcm44-esm100-rsr0-rcr2-esr100,exr/ReadingArea_rsl0-rcl11-esl100-rsm0-rcm44-esm100-rsr0-rcr2-esr100.exr,ReadingArea_rsl0-rcl11-esl100-rsm0-rcm44-esm100-rsr0-rcr2-esr100.npz,,,,,0,184,184,184,652.0478122234344,,left,green,0.62,,3,,EB,1,brightness,readingArea,realistic,72,2023-03-07_13h24.07.615,tripletExp_regina_11082022,2022.2.4,119.91845907085654,
8,3,14,0,0.25,1.0,0,0.444444444444444,0.298245614035088,0,0.25,3.10526315789474,ReadingArea_rsl0-rcl25-esl100-rsm0-rcm44-esm29-rsr0-rcr25-esr310,exr/ReadingArea_rsl0-rcl25-esl100-rsm0-rcm44-esm29-rsr0-rcr25-esr310.exr,ReadingArea_rsl0-rcl25-esl100-rsm0-rcm44-esm29-rsr0-rcr25-esr310.npz,,,,,0,185,185,185,654.1076350212097,,left,green,0.76,654.4012360572815,3,,EB,1,brightness,readingArea,realistic,72,2023-03-07_13h24.07.615,tripletExp_regina_11082022,2022.2.4,119.91845907085654,
5,11,10,0,1.0,0.298245614035088,0,1.0,1.0,0,0.694444444444444,1.0,ReadingArea_rsl0-rcl100-esl29-rsm0-rcm100-esm100-rsr0-rcr69-esr100,exr/ReadingArea_rsl0-rcl100-esl29-rsm0-rcm100-esm100-rsr0-rcr69-esr100.exr,ReadingArea_rsl0-rcl100-esl29-rsm0-rcm100-esm100-rsr0-rcr69-esr100.npz,,,,,0,186,186,186,656.1490001678467,,right,red,0.84,656.4439179897308,3,,EB,1,brightness,readingArea,realistic,72,2023-03-07_13h24.07.615,tripletExp_regina_11082022,2022.2.4,119.91845907085654,
9,1,6,0,0.444444444444444,1.0,0,0.111111111111111,0.298245614035088,0,0.027777777777778,1.0,ReadingArea_rsl0-rcl44-esl100-rsm0-rcm11-esm29-rsr0-rcr2-esr100,exr/ReadingArea_rsl0-rcl44-esl100-rsm0-rcm11-esm29-rsr0-rcr2-esr100.exr,ReadingArea_rsl0-rcl44-esl100-rsm0-rcm11-esm29-rsr0-rcr2-esr100.npz,,,,,0,187,187,187,658.2089052200317,,right,red,0.82,658.4965970516205,3,,EB,1,brightness,readingArea,realistic,72,2023-03-07_13h24.07.615,tripletExp_regina_11082022,2022.2.4,119.91845907085654,
11,5,6,0,1.0,1.0,0,1.0,0.298245614035088,0,0.027777777777778,1.0,ReadingArea_rsl0-rcl100-esl100-rsm0-rcm100-esm29-rsr0-rcr2-esr100,exr/ReadingArea_rsl0-rcl100-esl100-rsm0-rcm100-esm29-rsr0-rcr2-esr100.exr,ReadingArea_rsl0-rcl100-esl100-rsm0-rcm100-esm29-rsr0-rcr2-esr100.npz,,,,,0,188,188,188,660.2486250400543,,left,green,2.2,,3,,EB,1,brightness,readingArea,realistic,72,2023-03-07_13h24.07.615,tripletExp_regina_11082022,2022.2.4,119.91845907085654,
7,11,6,0,0.111111111111111,1.0,0,1.0,1.0,0,0.027777777777778,1.0,ReadingArea_rsl0-rcl11-esl100-rsm0-rcm100-esm100-rsr0-rcr2-esr100,exr/ReadingArea_rsl0-rcl11-esl100-rsm0-rcm100-esm100-rsr0-rcr2-esr100.exr,ReadingArea_rsl0-rcl11-esl100-rsm0-rcm100-esm100-rsr0-rcr2-esr100.npz,,,,,0,189,189,189,664.063136100769,,left,green,0.72,664.3367111682892,3,,EB,1,brightness,readingArea,realistic,72,2023-03-07_13h24.07.615,tripletExp_regina_11082022,2022.2.4,119.91845907085654,
3,11,2,0,0.444444444444444,0.298245614035088,0,1.0,1.0,0,0.25,0.298245614035088,ReadingArea_rsl0-rcl44-esl29-rsm0-rcm100-esm100-rsr0-rcr25-esr29,exr/ReadingArea_rsl0-rcl44-esl29-rsm0-rcm100-esm100-rsr0-rcr25-esr29.exr,ReadingArea_rsl0-rcl44-esl29-rsm0-rcm100-esm100-rsr0-rcr25-esr29.npz,,,,,0,190,190,190,666.0981152057648,,left,green,0.94,,3,,EB,1,brightness,readingArea,realistic,72,2023-03-07_13h24.07.615,tripletExp_regina_11082022,2022.2.4,119.91845907085654,
5,6,8,0,1.0,0.298245614035088,0,0.027777777777778,1.0,0,0.25,1.0,ReadingArea_rsl0-rcl100-esl29-rsm0-rcm2-esm100-rsr0-rcr25-esr100,exr/ReadingArea_rsl0-rcl100-esl29-rsm0-rcm2-esm100-rsr0-rcr25-esr100.exr,ReadingArea_rsl0-rcl100-esl29-rsm0-rcm2-esm100-rsr0-rcr25-esr100.npz,,,,,0,191,191,191,668.1578299999237,,right,red,0.74,,3,,EB,1,brightness,readingArea,realistic,72,2023-03-07_13h24.07.615,tripletExp_regina_11082022,2022.2.4,119.91845907085654,
11,14,7,0,1.0,1.0,0,0.25,3.10526315789474,0,0.111111111111111,1.0,ReadingArea_rsl0-rcl100-esl100-rsm0-rcm25-esm310-rsr0-rcr11-esr100,exr/ReadingArea_rsl0-rcl100-esl100-rsm0-rcm25-esm310-rsr0-rcr11-esr100.exr,ReadingArea_rsl0-rcl100-esl100-rsm0-rcm25-esm310-rsr0-rcr11-esr100.npz,,,,,0,192,192,192,670.2154610157013,,left,green,1.02,,3,,EB,1,brightness,readingArea,realistic,72,2023-03-07_13h24.07.615,tripletExp_regina_11082022,2022.2.4,119.91845907085654,
2,5,8,0,0.25,0.298245614035088,0,1.0,0.298245614035088,0,0.25,1.0,ReadingArea_rsl0-rcl25-esl29-rsm0-rcm100-esm29-rsr0-rcr25-esr100,exr/ReadingArea_rsl0-rcl25-esl29-rsm0-rcm100-esm29-rsr0-rcr25-esr100.exr,ReadingArea_rsl0-rcl25-esl29-rsm0-rcm100-esm29-rsr0-rcr25-esr100.npz,,,,,0,193,193,193,672.3335411548615,,right,red,0.56,,3,,EB,1,brightness,readingArea,realistic,72,2023-03-07_13h24.07.615,tripletExp_regina_11082022,2022.2.4,119.91845907085654,
14,13,5,0,0.25,3.10526315789474,0,0.111111111111111,3.10526315789474,0,1.0,0.298245614035088,ReadingArea_rsl0-rcl25-esl310-rsm0-rcm11-esm310-rsr0-rcr100-esr29,exr/ReadingArea_rsl0-rcl25-esl310-rsm0-rcm11-esm310-rsr0-rcr100-esr29.exr,ReadingArea_rsl0-rcl25-esl310-rsm0-rcm11-esm310-rsr0-rcr100-esr29.npz,,,,,0,194,194,194,674.3751611709595,,right,red,0.87,,3,,EB,1,brightness,readingArea,realistic,72,2023-03-07_13h24.07.615,tripletExp_regina_11082022,2022.2.4,119.91845907085654,
11,1,8,0,1.0,1.0,0,0.111111111111111,0.298245614035088,0,0.25,1.0,ReadingArea_rsl0-rcl100-esl100-rsm0-rcm11-esm29-rsr0-rcr25-esr100,exr/ReadingArea_rsl0-rcl100-esl100-rsm0-rcm11-esm29-rsr0-rcr25-esr100.exr,ReadingArea_rsl0-rcl100-esl100-rsm0-rcm11-esm29-rsr0-rcr25-esr100.npz,,,,,0,195,195,195,676.4450280666351,,right,red,0.77,676.7310900688171,3,,EB,1,brightness,readingArea,realistic,72,2023-03-07_13h24.07.615,tripletExp_regina_11082022,2022.2.4,119.91845907085654,
13,7,3,0,0.111111111111111,3.10526315789474,0,0.111111111111111,1.0,0,0.444444444444444,0.298245614035088,ReadingArea_rsl0-rcl11-esl310-rsm0-rcm11-esm100-rsr0-rcr44-esr29,exr/ReadingArea_rsl0-rcl11-esl310-rsm0-rcm11-esm100-rsr0-rcr44-esr29.exr,ReadingArea_rsl0-rcl11-esl310-rsm0-rcm11-esm100-rsr0-rcr44-esr29.npz,,,,,0,196,196,196,678.509211063385,,right,red,0.98,,3,,EB,1,brightness,readingArea,realistic,72,2023-03-07_13h24.07.615,tripletExp_regina_11082022,2022.2.4,119.91845907085654,
9,12,3,0,0.444444444444444,1.0,0,0.027777777777778,3.10526315789474,0,0.444444444444444,0.298245614035088,ReadingArea_rsl0-rcl44-esl100-rsm0-rcm2-esm310-rsr0-rcr44-esr29,exr/ReadingArea_rsl0-rcl44-esl100-rsm0-rcm2-esm310-rsr0-rcr44-esr29.exr,ReadingArea_rsl0-rcl44-esl100-rsm0-rcm2-esm310-rsr0-rcr44-esr29.npz,,,,,0,197,197,197,680.5660130977631,,right,red,1.05,680.8473629951477,3,,EB,1,brightness,readingArea,realistic,72,2023-03-07_13h24.07.615,tripletExp_regina_11082022,2022.2.4,119.91845907085654,
11,8,3,0,1.0,1.0,0,0.25,1.0,0,0.444444444444444,0.298245614035088,ReadingArea_rsl0-rcl100-esl100-rsm0-rcm25-esm100-rsr0-rcr44-esr29,exr/ReadingArea_rsl0-rcl100-esl100-rsm0-rcm25-esm100-rsr0-rcr44-esr29.exr,ReadingArea_rsl0-rcl100-esl100-rsm0-rcm25-esm100-rsr0-rcr44-esr29.npz,,,,,0,198,198,198,682.5962932109833,,right,red,1.06,682.8713281154633,3,,EB,1,brightness,readingArea,realistic,72,2023-03-07_13h24.07.615,tripletExp_regina_11082022,2022.2.4,119.91845907085654,
4,14,5,0,0.694444444444444,0.298245614035088,0,0.25,3.10526315789474,0,1.0,0.298245614035088,ReadingArea_rsl0-rcl69-esl29-rsm0-rcm25-esm310-rsr0-rcr100-esr29,exr/ReadingArea_rsl0-rcl69-esl29-rsm0-rcm25-esm310-rsr0-rcr100-esr29.exr,ReadingArea_rsl0-rcl69-esl29-rsm0-rcm25-esm310-rsr0-rcr100-esr29.npz,,,,,0,199,199,199,684.624260187149,,right,red,1.05,684.9064412117004,3,,EB,1,brightness,readingArea,realistic,72,2023-03-07_13h24.07.615,tripletExp_regina_11082022,2022.2.4,119.91845907085654,
4,7,5,0,0.694444444444444,0.298245614035088,0,0.111111111111111,1.0,0,1.0,0.298245614035088,ReadingArea_rsl0-rcl69-esl29-rsm0-rcm11-esm100-rsr0-rcr100-esr29,exr/ReadingArea_rsl0-rcl69-esl29-rsm0-rcm11-esm100-rsr0-rcr100-esr29.exr,ReadingArea_rsl0-rcl69-esl29-rsm0-rcm11-esm100-rsr0-rcr100-esr29.npz,,,,,0,200,200,200,686.6602501869202,,left,green,1.16,,3,,EB,1,brightness,readingArea,realistic,72,2023-03-07_13h24.07.615,tripletExp_regina_11082022,2022.2.4,119.91845907085654,
4,13,9,0,0.694444444444444,0.298245614035088,0,0.111111111111111,3.10526315789474,0,0.444444444444444,1.0,ReadingArea_rsl0-rcl69-esl29-rsm0-rcm11-esm310-rsr0-rcr44-esr100,exr/ReadingArea_rsl0-rcl69-esl29-rsm0-rcm11-esm310-rsr0-rcr44-esr100.exr,ReadingArea_rsl0-rcl69-esl29-rsm0-rcm11-esm310-rsr0-rcr44-esr100.npz,,,,,0,201,201,201,688.7199242115021,,left,green,2.77,,3,,EB,1,brightness,readingArea,realistic,72,2023-03-07_13h24.07.615,tripletExp_regina_11082022,2022.2.4,119.91845907085654,
11,12,8,0,1.0,1.0,0,0.027777777777778,3.10526315789474,0,0.25,1.0,ReadingArea_rsl0-rcl100-esl100-rsm0-rcm2-esm310-rsr0-rcr25-esr100,exr/ReadingArea_rsl0-rcl100-esl100-rsm0-rcm2-esm310-rsr0-rcr25-esr100.exr,ReadingArea_rsl0-rcl100-esl100-rsm0-rcm2-esm310-rsr0-rcr25-esr100.npz,,,,,0,202,202,202,692.5357761383057,,right,red,0.76,,3,,EB,1,brightness,readingArea,realistic,72,2023-03-07_13h24.07.615,tripletExp_regina_11082022,2022.2.4,119.91845907085654,
14,10,7,0,0.25,3.10526315789474,0,0.694444444444444,1.0,0,0.111111111111111,1.0,ReadingArea_rsl0-rcl25-esl310-rsm0-rcm69-esm100-rsr0-rcr11-esr100,exr/ReadingArea_rsl0-rcl25-esl310-rsm0-rcm69-esm100-rsr0-rcr11-esr100.exr,ReadingArea_rsl0-rcl25-esl310-rsm0-rcm69-esm100-rsr0-rcr11-esr100.npz,,,,,0,203,203,203,694.7262570858002,,left,green,0.91,695.0528810024261,3,,EB,1,brightness,readingArea,realistic,72,2023-03-07_13h24.07.615,tripletExp_regina_11082022,2022.2.4,119.91845907085654,
1,0,5,0,0.111111111111111,0.298245614035088,0,0.027777777777778,0.298245614035088,0,1.0,0.298245614035088,ReadingArea_rsl0-rcl11-esl29-rsm0-rcm2-esm29-rsr0-rcr100-esr29,exr/ReadingArea_rsl0-rcl11-esl29-rsm0-rcm2-esm29-rsr0-rcr100-esr29.exr,ReadingArea_rsl0-rcl11-esl29-rsm0-rcm2-esm29-rsr0-rcr100-esr29.npz,,,,,0,204,204,204,696.7975912094116,,left,green,0.99,697.085942029953,3,,EB,1,brightness,readingArea,realistic,72,2023-03-07_13h24.07.615,tripletExp_regina_11082022,2022.2.4,119.91845907085654,
