index_left,index_middle,index_right,reflectance_surround_left,reflectance_center_left,emission_spot_left,reflectance_surround_middle,reflectance_center_middle,emission_spot_middle,reflectance_surround_right,reflectance_center_right,emission_spot_right,ImageName,ImageExr,ImageNpy,trials_2.thisRepN,trials_2.thisTrialN,trials_2.thisN,trials_2.thisIndex,trials.thisRepN,trials.thisTrialN,trials.thisN,trials.thisIndex,sound_1.started,BB_Trial.resp,BB_Trial.color,BB_Trial.rt,text.started,text.stopped,block,sound_4.started,participant,session,L/B,scene,condition,nTrialsPerBlock,date,expName,psychopyVersion,frameRate,Unnamed: 41
2,3,13,2,0.25,0.298245614035088,2,0.444444444444444,0.298245614035088,2,0.111111111111111,3.10526315789474,ReadingArea_rsl2-rcl25-esl29-rsm2-rcm44-esm29-rsr2-rcr11-esr310,exr/ReadingArea_rsl2-rcl25-esl29-rsm2-rcm44-esm29-rsr2-rcr11-esr310.exr,ReadingArea_rsl2-rcl25-esl29-rsm2-rcm44-esm29-rsr2-rcr11-esr310.npz,,,,,0,0,0,498,88.88605375289917,left,green,2.8,94.8158519268036,95.23529505729675,1,,1,8,lightness,readingArea,realistic,75,2023-03-31_13h43.01.343,tripletExp_regina_11082022,2022.2.4,119.93834803620194,
8,1,14,2,0.25,1.0,2,0.111111111111111,0.298245614035088,2,0.25,3.10526315789474,ReadingArea_rsl2-rcl25-esl100-rsm2-rcm11-esm29-rsr2-rcr25-esr310,exr/ReadingArea_rsl2-rcl25-esl100-rsm2-rcm11-esm29-rsr2-rcr25-esr310.exr,ReadingArea_rsl2-rcl25-esl100-rsm2-rcm11-esm29-rsr2-rcr25-esr310.npz,,,,,0,1,1,500,,left,green,1.07,96.9244101047516,97.49442291259766,1,,1,8,lightness,readingArea,realistic,75,2023-03-31_13h43.01.343,tripletExp_regina_11082022,2022.2.4,119.93834803620194,
7,12,2,2,0.111111111111111,1.0,2,0.027777777777778,3.10526315789474,2,0.25,0.298245614035088,ReadingArea_rsl2-rcl11-esl100-rsm2-rcm2-esm310-rsr2-rcr25-esr29,exr/ReadingArea_rsl2-rcl11-esl100-rsm2-rcm2-esm310-rsr2-rcr25-esr29.exr,ReadingArea_rsl2-rcl11-esl100-rsm2-rcm2-esm310-rsr2-rcr25-esr29.npz,,,,,0,2,2,72,,left,green,1.12,99.17937803268433,99.59494996070862,1,,1,8,lightness,readingArea,realistic,75,2023-03-31_13h43.01.343,tripletExp_regina_11082022,2022.2.4,119.93834803620194,
3,2,8,2,0.444444444444444,0.298245614035088,2,0.25,0.298245614035088,2,0.25,1.0,ReadingArea_rsl2-rcl44-esl29-rsm2-rcm25-esm29-rsr2-rcr25-esr100,exr/ReadingArea_rsl2-rcl44-esl29-rsm2-rcm25-esm29-rsr2-rcr25-esr100.exr,ReadingArea_rsl2-rcl44-esl29-rsm2-rcm25-esm29-rsr2-rcr25-esr100.npz,,,,,0,3,3,181,,left,green,2.83,103.06599807739258,103.48471212387084,1,,1,8,lightness,readingArea,realistic,75,2023-03-31_13h43.01.343,tripletExp_regina_11082022,2022.2.4,119.93834803620194,
1,13,8,2,0.111111111111111,0.298245614035088,2,0.111111111111111,3.10526315789474,2,0.25,1.0,ReadingArea_rsl2-rcl11-esl29-rsm2-rcm11-esm310-rsr2-rcr25-esr100,exr/ReadingArea_rsl2-rcl11-esl29-rsm2-rcm11-esm310-rsr2-rcr25-esr100.exr,ReadingArea_rsl2-rcl11-esl29-rsm2-rcm11-esm310-rsr2-rcr25-esr100.npz,,,,,0,4,4,64,,right,red,2.13,106.97113609313963,,1,,1,8,lightness,readingArea,realistic,75,2023-03-31_13h43.01.343,tripletExp_regina_11082022,2022.2.4,119.93834803620194,
14,5,9,2,0.25,3.10526315789474,2,1.0,0.298245614035088,2,0.444444444444444,1.0,ReadingArea_rsl2-rcl25-esl310-rsm2-rcm100-esm29-rsr2-rcr44-esr100,exr/ReadingArea_rsl2-rcl25-esl310-rsm2-rcm100-esm29-rsr2-rcr44-esr100.exr,ReadingArea_rsl2-rcl25-esl310-rsm2-rcm100-esm29-rsr2-rcr44-esr100.npz,,,,,0,5,5,482,,right,red,2.32,110.90961694717409,111.37384796142578,1,,1,8,lightness,readingArea,realistic,75,2023-03-31_13h43.01.343,tripletExp_regina_11082022,2022.2.4,119.93834803620194,
13,6,10,2,0.111111111111111,3.10526315789474,2,0.027777777777778,1.0,2,0.694444444444444,1.0,ReadingArea_rsl2-rcl11-esl310-rsm2-rcm2-esm100-rsr2-rcr69-esr100,exr/ReadingArea_rsl2-rcl11-esl310-rsm2-rcm2-esm100-rsr2-rcr69-esr100.exr,ReadingArea_rsl2-rcl11-esl310-rsm2-rcm2-esm100-rsr2-rcr69-esr100.npz,,,,,0,6,6,593,,left,green,0.67,113.08606600761414,113.49848890304564,1,,1,8,lightness,readingArea,realistic,75,2023-03-31_13h43.01.343,tripletExp_regina_11082022,2022.2.4,119.93834803620194,
12,13,14,2,0.027777777777778,3.10526315789474,2,0.111111111111111,3.10526315789474,2,0.25,3.10526315789474,ReadingArea_rsl2-rcl2-esl310-rsm2-rcm11-esm310-rsr2-rcr25-esr310,exr/ReadingArea_rsl2-rcl2-esl310-rsm2-rcm11-esm310-rsr2-rcr25-esr310.exr,ReadingArea_rsl2-rcl2-esl310-rsm2-rcm11-esm310-rsr2-rcr25-esr310.npz,,,,,0,7,7,208,,left,green,2.14,117.00166296958923,117.41584706306458,1,,1,8,lightness,readingArea,realistic,75,2023-03-31_13h43.01.343,tripletExp_regina_11082022,2022.2.4,119.93834803620194,
13,9,6,2,0.111111111111111,3.10526315789474,2,0.444444444444444,1.0,2,0.027777777777778,1.0,ReadingArea_rsl2-rcl11-esl310-rsm2-rcm44-esm100-rsr2-rcr2-esr100,exr/ReadingArea_rsl2-rcl11-esl310-rsm2-rcm44-esm100-rsr2-rcr2-esr100.exr,ReadingArea_rsl2-rcl11-esl310-rsm2-rcm44-esm100-rsr2-rcr2-esr100.npz,,,,,0,8,8,19,,left,green,0.68,119.1237370967865,119.54102802276611,1,,1,8,lightness,readingArea,realistic,75,2023-03-31_13h43.01.343,tripletExp_regina_11082022,2022.2.4,119.93834803620194,
7,14,5,2,0.111111111111111,1.0,2,0.25,3.10526315789474,2,1.0,0.298245614035088,ReadingArea_rsl2-rcl11-esl100-rsm2-rcm25-esm310-rsr2-rcr100-esr29,exr/ReadingArea_rsl2-rcl11-esl100-rsm2-rcm25-esm310-rsr2-rcr100-esr29.exr,ReadingArea_rsl2-rcl11-esl100-rsm2-rcm25-esm310-rsr2-rcr100-esr29.npz,,,,,0,9,9,372,,right,red,0.69,121.2310860157013,121.64951705932616,1,,1,8,lightness,readingArea,realistic,75,2023-03-31_13h43.01.343,tripletExp_regina_11082022,2022.2.4,119.93834803620194,
5,11,8,2,1.0,0.298245614035088,2,1.0,1.0,2,0.25,1.0,ReadingArea_rsl2-rcl100-esl29-rsm2-rcm100-esm100-rsr2-rcr25-esr100,exr/ReadingArea_rsl2-rcl100-esl29-rsm2-rcm100-esm100-rsr2-rcr25-esr100.exr,ReadingArea_rsl2-rcl100-esl29-rsm2-rcm100-esm100-rsr2-rcr25-esr100.npz,,,,,0,10,10,548,,left,green,1.03,123.34343600273132,123.75759291648863,1,,1,8,lightness,readingArea,realistic,75,2023-03-31_13h43.01.343,tripletExp_regina_11082022,2022.2.4,119.93834803620194,
10,14,4,2,0.694444444444444,1.0,2,0.25,3.10526315789474,2,0.694444444444444,0.298245614035088,ReadingArea_rsl2-rcl69-esl100-rsm2-rcm25-esm310-rsr2-rcr69-esr29,exr/ReadingArea_rsl2-rcl69-esl100-rsm2-rcm25-esm310-rsr2-rcr69-esr29.exr,ReadingArea_rsl2-rcl69-esl100-rsm2-rcm25-esm310-rsr2-rcr69-esr29.npz,,,,,0,11,11,267,,right,red,0.8,125.46619510650636,125.88602995872498,1,,1,8,lightness,readingArea,realistic,75,2023-03-31_13h43.01.343,tripletExp_regina_11082022,2022.2.4,119.93834803620194,
7,6,11,2,0.111111111111111,1.0,2,0.027777777777778,1.0,2,1.0,1.0,ReadingArea_rsl2-rcl11-esl100-rsm2-rcm2-esm100-rsr2-rcr100-esr100,exr/ReadingArea_rsl2-rcl11-esl100-rsm2-rcm2-esm100-rsr2-rcr100-esr100.exr,ReadingArea_rsl2-rcl11-esl100-rsm2-rcm2-esm100-rsr2-rcr100-esr100.npz,,,,,0,12,12,84,,left,green,0.61,127.60701513290404,128.02611804008484,1,,1,8,lightness,readingArea,realistic,75,2023-03-31_13h43.01.343,tripletExp_regina_11082022,2022.2.4,119.93834803620194,
5,0,6,2,1.0,0.298245614035088,2,0.027777777777778,0.298245614035088,2,0.027777777777778,1.0,ReadingArea_rsl2-rcl100-esl29-rsm2-rcm2-esm29-rsr2-rcr2-esr100,exr/ReadingArea_rsl2-rcl100-esl29-rsm2-rcm2-esm29-rsr2-rcr2-esr100.exr,ReadingArea_rsl2-rcl100-esl29-rsm2-rcm2-esm29-rsr2-rcr2-esr100.npz,,,,,0,13,13,1,,right,red,0.74,129.73639798164368,130.15327501296997,1,,1,8,lightness,readingArea,realistic,75,2023-03-31_13h43.01.343,tripletExp_regina_11082022,2022.2.4,119.93834803620194,
3,6,5,2,0.444444444444444,0.298245614035088,2,0.027777777777778,1.0,2,1.0,0.298245614035088,ReadingArea_rsl2-rcl44-esl29-rsm2-rcm2-esm100-rsr2-rcr100-esr29,exr/ReadingArea_rsl2-rcl44-esl29-rsm2-rcm2-esm100-rsr2-rcr100-esr29.exr,ReadingArea_rsl2-rcl44-esl29-rsm2-rcm2-esm100-rsr2-rcr100-esr29.npz,,,,,0,14,14,274,,left,green,0.89,131.85085010528564,132.27069997787476,1,,1,8,lightness,readingArea,realistic,75,2023-03-31_13h43.01.343,tripletExp_regina_11082022,2022.2.4,119.93834803620194,
10,6,3,2,0.694444444444444,1.0,2,0.027777777777778,1.0,2,0.444444444444444,0.298245614035088,ReadingArea_rsl2-rcl69-esl100-rsm2-rcm2-esm100-rsr2-rcr44-esr29,exr/ReadingArea_rsl2-rcl69-esl100-rsm2-rcm2-esm100-rsr2-rcr44-esr29.exr,ReadingArea_rsl2-rcl69-esl100-rsm2-rcm2-esm100-rsr2-rcr44-esr29.npz,,,,,0,15,15,0,,right,red,0.68,133.96554803848267,,1,,1,8,lightness,readingArea,realistic,75,2023-03-31_13h43.01.343,tripletExp_regina_11082022,2022.2.4,119.93834803620194,
7,3,12,2,0.111111111111111,1.0,2,0.444444444444444,0.298245614035088,2,0.027777777777778,3.10526315789474,ReadingArea_rsl2-rcl11-esl100-rsm2-rcm44-esm29-rsr2-rcr2-esr310,exr/ReadingArea_rsl2-rcl11-esl100-rsm2-rcm44-esm29-rsr2-rcr2-esr310.exr,ReadingArea_rsl2-rcl11-esl100-rsm2-rcm44-esm29-rsr2-rcr2-esr310.npz,,,,,0,16,16,443,,left,green,0.97,136.10253596305847,136.51810097694397,1,,1,8,lightness,readingArea,realistic,75,2023-03-31_13h43.01.343,tripletExp_regina_11082022,2022.2.4,119.93834803620194,
12,0,2,2,0.027777777777778,3.10526315789474,2,0.027777777777778,0.298245614035088,2,0.25,0.298245614035088,ReadingArea_rsl2-rcl2-esl310-rsm2-rcm2-esm29-rsr2-rcr25-esr29,exr/ReadingArea_rsl2-rcl2-esl310-rsm2-rcm2-esm29-rsr2-rcr25-esr29.exr,ReadingArea_rsl2-rcl2-esl310-rsm2-rcm2-esm29-rsr2-rcr25-esr29.npz,,,,,0,17,17,77,,left,green,0.71,138.24074697494507,138.6701090335846,1,,1,8,lightness,readingArea,realistic,75,2023-03-31_13h43.01.343,tripletExp_regina_11082022,2022.2.4,119.93834803620194,
8,6,0,2,0.25,1.0,2,0.027777777777778,1.0,2,0.027777777777778,0.298245614035088,ReadingArea_rsl2-rcl25-esl100-rsm2-rcm2-esm100-rsr2-rcr2-esr29,exr/ReadingArea_rsl2-rcl25-esl100-rsm2-rcm2-esm100-rsr2-rcr2-esr29.exr,ReadingArea_rsl2-rcl25-esl100-rsm2-rcm2-esm100-rsr2-rcr2-esr29.npz,,,,,0,18,18,187,,right,red,0.62,140.37660598754883,140.79918313026428,1,,1,8,lightness,readingArea,realistic,75,2023-03-31_13h43.01.343,tripletExp_regina_11082022,2022.2.4,119.93834803620194,
13,0,8,2,0.111111111111111,3.10526315789474,2,0.027777777777778,0.298245614035088,2,0.25,1.0,ReadingArea_rsl2-rcl11-esl310-rsm2-rcm2-esm29-rsr2-rcr25-esr100,exr/ReadingArea_rsl2-rcl11-esl310-rsm2-rcm2-esm29-rsr2-rcr25-esr100.exr,ReadingArea_rsl2-rcl11-esl310-rsm2-rcm2-esm29-rsr2-rcr25-esr100.npz,,,,,0,19,19,249,,left,green,0.95,142.4939410686493,142.91299295425415,1,,1,8,lightness,readingArea,realistic,75,2023-03-31_13h43.01.343,tripletExp_regina_11082022,2022.2.4,119.93834803620194,
5,10,0,2,1.0,0.298245614035088,2,0.694444444444444,1.0,2,0.027777777777778,0.298245614035088,ReadingArea_rsl2-rcl100-esl29-rsm2-rcm69-esm100-rsr2-rcr2-esr29,exr/ReadingArea_rsl2-rcl100-esl29-rsm2-rcm69-esm100-rsr2-rcr2-esr29.exr,ReadingArea_rsl2-rcl100-esl29-rsm2-rcm69-esm100-rsr2-rcr2-esr29.npz,,,,,0,20,20,293,,left,green,0.62,144.63170194625854,145.04667806625366,1,,1,8,lightness,readingArea,realistic,75,2023-03-31_13h43.01.343,tripletExp_regina_11082022,2022.2.4,119.93834803620194,
7,9,3,2,0.111111111111111,1.0,2,0.444444444444444,1.0,2,0.444444444444444,0.298245614035088,ReadingArea_rsl2-rcl11-esl100-rsm2-rcm44-esm100-rsr2-rcr44-esr29,exr/ReadingArea_rsl2-rcl11-esl100-rsm2-rcm44-esm100-rsr2-rcr44-esr29.exr,ReadingArea_rsl2-rcl11-esl100-rsm2-rcm44-esm100-rsr2-rcr44-esr29.npz,,,,,0,21,21,311,,right,red,0.99,146.76112294197085,147.18071007728577,1,,1,8,lightness,readingArea,realistic,75,2023-03-31_13h43.01.343,tripletExp_regina_11082022,2022.2.4,119.93834803620194,
11,13,1,2,1.0,1.0,2,0.111111111111111,3.10526315789474,2,0.111111111111111,0.298245614035088,ReadingArea_rsl2-rcl100-esl100-rsm2-rcm11-esm310-rsr2-rcr11-esr29,exr/ReadingArea_rsl2-rcl100-esl100-rsm2-rcm11-esm310-rsr2-rcr11-esr29.exr,ReadingArea_rsl2-rcl100-esl100-rsm2-rcm11-esm310-rsr2-rcr11-esr29.npz,,,,,0,22,22,185,,right,red,0.81,148.8924789428711,149.30495691299438,1,,1,8,lightness,readingArea,realistic,75,2023-03-31_13h43.01.343,tripletExp_regina_11082022,2022.2.4,119.93834803620194,
1,10,0,2,0.111111111111111,0.298245614035088,2,0.694444444444444,1.0,2,0.027777777777778,0.298245614035088,ReadingArea_rsl2-rcl11-esl29-rsm2-rcm69-esm100-rsr2-rcr2-esr29,exr/ReadingArea_rsl2-rcl11-esl29-rsm2-rcm69-esm100-rsr2-rcr2-esr29.exr,ReadingArea_rsl2-rcl11-esl29-rsm2-rcm69-esm100-rsr2-rcr2-esr29.npz,,,,,0,23,23,196,,left,green,0.94,151.0204939842224,151.43942499160767,1,,1,8,lightness,readingArea,realistic,75,2023-03-31_13h43.01.343,tripletExp_regina_11082022,2022.2.4,119.93834803620194,
7,8,3,2,0.111111111111111,1.0,2,0.25,1.0,2,0.444444444444444,0.298245614035088,ReadingArea_rsl2-rcl11-esl100-rsm2-rcm25-esm100-rsr2-rcr44-esr29,exr/ReadingArea_rsl2-rcl11-esl100-rsm2-rcm25-esm100-rsr2-rcr44-esr29.exr,ReadingArea_rsl2-rcl11-esl100-rsm2-rcm25-esm100-rsr2-rcr44-esr29.npz,,,,,0,24,24,459,,right,red,0.82,153.1310110092163,153.56590008735657,1,,1,8,lightness,readingArea,realistic,75,2023-03-31_13h43.01.343,tripletExp_regina_11082022,2022.2.4,119.93834803620194,
9,14,7,2,0.444444444444444,1.0,2,0.25,3.10526315789474,2,0.111111111111111,1.0,ReadingArea_rsl2-rcl44-esl100-rsm2-rcm25-esm310-rsr2-rcr11-esr100,exr/ReadingArea_rsl2-rcl44-esl100-rsm2-rcm25-esm310-rsr2-rcr11-esr100.exr,ReadingArea_rsl2-rcl44-esl100-rsm2-rcm25-esm310-rsr2-rcr11-esr100.npz,,,,,0,25,25,44,,left,green,0.61,155.2832899093628,155.69775390625,1,,1,8,lightness,readingArea,realistic,75,2023-03-31_13h43.01.343,tripletExp_regina_11082022,2022.2.4,119.93834803620194,
9,4,6,2,0.444444444444444,1.0,2,0.694444444444444,0.298245614035088,2,0.027777777777778,1.0,ReadingArea_rsl2-rcl44-esl100-rsm2-rcm69-esm29-rsr2-rcr2-esr100,exr/ReadingArea_rsl2-rcl44-esl100-rsm2-rcm69-esm29-rsr2-rcr2-esr100.exr,ReadingArea_rsl2-rcl44-esl100-rsm2-rcm69-esm29-rsr2-rcr2-esr100.npz,,,,,0,26,26,453,,left,green,0.51,157.40480613708496,157.8224959373474,1,,1,8,lightness,readingArea,realistic,75,2023-03-31_13h43.01.343,tripletExp_regina_11082022,2022.2.4,119.93834803620194,
14,10,5,2,0.25,3.10526315789474,2,0.694444444444444,1.0,2,1.0,0.298245614035088,ReadingArea_rsl2-rcl25-esl310-rsm2-rcm69-esm100-rsr2-rcr100-esr29,exr/ReadingArea_rsl2-rcl25-esl310-rsm2-rcm69-esm100-rsr2-rcr100-esr29.exr,ReadingArea_rsl2-rcl25-esl310-rsm2-rcm69-esm100-rsr2-rcr100-esr29.npz,,,,,0,27,27,96,,left,green,1.0,159.54347205162048,159.9611201286316,1,,1,8,lightness,readingArea,realistic,75,2023-03-31_13h43.01.343,tripletExp_regina_11082022,2022.2.4,119.93834803620194,
7,10,13,2,0.111111111111111,1.0,2,0.694444444444444,1.0,2,0.111111111111111,3.10526315789474,ReadingArea_rsl2-rcl11-esl100-rsm2-rcm69-esm100-rsr2-rcr11-esr310,exr/ReadingArea_rsl2-rcl11-esl100-rsm2-rcm69-esm100-rsr2-rcr11-esr310.exr,ReadingArea_rsl2-rcl11-esl100-rsm2-rcm69-esm100-rsr2-rcr11-esr310.npz,,,,,0,28,28,446,,right,red,0.87,161.6592080593109,162.07648992538452,1,,1,8,lightness,readingArea,realistic,75,2023-03-31_13h43.01.343,tripletExp_regina_11082022,2022.2.4,119.93834803620194,
2,9,11,2,0.25,0.298245614035088,2,0.444444444444444,1.0,2,1.0,1.0,ReadingArea_rsl2-rcl25-esl29-rsm2-rcm44-esm100-rsr2-rcr100-esr100,exr/ReadingArea_rsl2-rcl25-esl29-rsm2-rcm44-esm100-rsr2-rcr100-esr100.exr,ReadingArea_rsl2-rcl25-esl29-rsm2-rcm44-esm100-rsr2-rcr100-esr100.npz,,,,,0,29,29,164,,right,red,0.71,163.80531096458435,164.22397208213806,1,,1,8,lightness,readingArea,realistic,75,2023-03-31_13h43.01.343,tripletExp_regina_11082022,2022.2.4,119.93834803620194,
3,8,7,2,0.444444444444444,0.298245614035088,2,0.25,1.0,2,0.111111111111111,1.0,ReadingArea_rsl2-rcl44-esl29-rsm2-rcm25-esm100-rsr2-rcr11-esr100,exr/ReadingArea_rsl2-rcl44-esl29-rsm2-rcm25-esm100-rsr2-rcr11-esr100.exr,ReadingArea_rsl2-rcl44-esl29-rsm2-rcm25-esm100-rsr2-rcr11-esr100.npz,,,,,0,30,30,484,,left,green,0.93,165.9296679496765,166.35234308242798,1,,1,8,lightness,readingArea,realistic,75,2023-03-31_13h43.01.343,tripletExp_regina_11082022,2022.2.4,119.93834803620194,
11,6,14,2,1.0,1.0,2,0.027777777777778,1.0,2,0.25,3.10526315789474,ReadingArea_rsl2-rcl100-esl100-rsm2-rcm2-esm100-rsr2-rcr25-esr310,exr/ReadingArea_rsl2-rcl100-esl100-rsm2-rcm2-esm100-rsr2-rcr25-esr310.exr,ReadingArea_rsl2-rcl100-esl100-rsm2-rcm2-esm100-rsr2-rcr25-esr310.npz,,,,,0,31,31,305,,right,red,0.61,168.0503499507904,168.47346997261047,1,,1,8,lightness,readingArea,realistic,75,2023-03-31_13h43.01.343,tripletExp_regina_11082022,2022.2.4,119.93834803620194,
11,1,4,2,1.0,1.0,2,0.111111111111111,0.298245614035088,2,0.694444444444444,0.298245614035088,ReadingArea_rsl2-rcl100-esl100-rsm2-rcm11-esm29-rsr2-rcr69-esr29,exr/ReadingArea_rsl2-rcl100-esl100-rsm2-rcm11-esm29-rsr2-rcr69-esr29.exr,ReadingArea_rsl2-rcl100-esl100-rsm2-rcm11-esm29-rsr2-rcr69-esr29.npz,,,,,0,32,32,110,,right,red,0.62,170.17744994163513,170.59275913238525,1,,1,8,lightness,readingArea,realistic,75,2023-03-31_13h43.01.343,tripletExp_regina_11082022,2022.2.4,119.93834803620194,
1,2,12,2,0.111111111111111,0.298245614035088,2,0.25,0.298245614035088,2,0.027777777777778,3.10526315789474,ReadingArea_rsl2-rcl11-esl29-rsm2-rcm25-esm29-rsr2-rcr2-esr310,exr/ReadingArea_rsl2-rcl11-esl29-rsm2-rcm25-esm29-rsr2-rcr2-esr310.exr,ReadingArea_rsl2-rcl11-esl29-rsm2-rcm25-esm29-rsr2-rcr2-esr310.npz,,,,,0,33,33,229,,left,green,0.85,172.31032609939575,172.72889399528503,1,,1,8,lightness,readingArea,realistic,75,2023-03-31_13h43.01.343,tripletExp_regina_11082022,2022.2.4,119.93834803620194,
13,6,8,2,0.111111111111111,3.10526315789474,2,0.027777777777778,1.0,2,0.25,1.0,ReadingArea_rsl2-rcl11-esl310-rsm2-rcm2-esm100-rsr2-rcr25-esr100,exr/ReadingArea_rsl2-rcl11-esl310-rsm2-rcm2-esm100-rsr2-rcr25-esr100.exr,ReadingArea_rsl2-rcl11-esl310-rsm2-rcm2-esm100-rsr2-rcr25-esr100.npz,,,,,0,34,34,340,,left,green,0.81,174.4494469165802,174.88248205184937,1,,1,8,lightness,readingArea,realistic,75,2023-03-31_13h43.01.343,tripletExp_regina_11082022,2022.2.4,119.93834803620194,
7,5,1,2,0.111111111111111,1.0,2,1.0,0.298245614035088,2,0.111111111111111,0.298245614035088,ReadingArea_rsl2-rcl11-esl100-rsm2-rcm100-esm29-rsr2-rcr11-esr29,exr/ReadingArea_rsl2-rcl11-esl100-rsm2-rcm100-esm29-rsr2-rcr11-esr29.exr,ReadingArea_rsl2-rcl11-esl100-rsm2-rcm100-esm29-rsr2-rcr11-esr29.npz,,,,,0,35,35,513,,left,green,1.23,176.59501004219055,177.00971603393555,1,,1,8,lightness,readingArea,realistic,75,2023-03-31_13h43.01.343,tripletExp_regina_11082022,2022.2.4,119.93834803620194,
6,10,8,2,0.027777777777778,1.0,2,0.694444444444444,1.0,2,0.25,1.0,ReadingArea_rsl2-rcl2-esl100-rsm2-rcm69-esm100-rsr2-rcr25-esr100,exr/ReadingArea_rsl2-rcl2-esl100-rsm2-rcm69-esm100-rsr2-rcr25-esr100.exr,ReadingArea_rsl2-rcl2-esl100-rsm2-rcm69-esm100-rsr2-rcr25-esr100.npz,,,,,0,36,36,167,,right,red,0.61,178.7001280784607,179.11857295036316,1,,1,8,lightness,readingArea,realistic,75,2023-03-31_13h43.01.343,tripletExp_regina_11082022,2022.2.4,119.93834803620194,
2,1,6,2,0.25,0.298245614035088,2,0.111111111111111,0.298245614035088,2,0.027777777777778,1.0,ReadingArea_rsl2-rcl25-esl29-rsm2-rcm11-esm29-rsr2-rcr2-esr100,exr/ReadingArea_rsl2-rcl25-esl29-rsm2-rcm11-esm29-rsr2-rcr2-esr100.exr,ReadingArea_rsl2-rcl25-esl29-rsm2-rcm11-esm29-rsr2-rcr2-esr100.npz,,,,,0,37,37,171,,right,red,0.9,180.8421220779419,181.2633049488068,1,,1,8,lightness,readingArea,realistic,75,2023-03-31_13h43.01.343,tripletExp_regina_11082022,2022.2.4,119.93834803620194,
4,13,1,2,0.694444444444444,0.298245614035088,2,0.111111111111111,3.10526315789474,2,0.111111111111111,0.298245614035088,ReadingArea_rsl2-rcl69-esl29-rsm2-rcm11-esm310-rsr2-rcr11-esr29,exr/ReadingArea_rsl2-rcl69-esl29-rsm2-rcm11-esm310-rsr2-rcr11-esr29.exr,ReadingArea_rsl2-rcl69-esl29-rsm2-rcm11-esm310-rsr2-rcr11-esr29.npz,,,,,0,38,38,192,,left,green,1.17,182.9832921028137,183.4039099216461,1,,1,8,lightness,readingArea,realistic,75,2023-03-31_13h43.01.343,tripletExp_regina_11082022,2022.2.4,119.93834803620194,
10,11,9,2,0.694444444444444,1.0,2,1.0,1.0,2,0.444444444444444,1.0,ReadingArea_rsl2-rcl69-esl100-rsm2-rcm100-esm100-rsr2-rcr44-esr100,exr/ReadingArea_rsl2-rcl69-esl100-rsm2-rcm100-esm100-rsr2-rcr44-esr100.exr,ReadingArea_rsl2-rcl69-esl100-rsm2-rcm100-esm100-rsr2-rcr44-esr100.npz,,,,,0,39,39,492,,left,green,0.9,185.0929110050201,185.5144040584564,1,,1,8,lightness,readingArea,realistic,75,2023-03-31_13h43.01.343,tripletExp_regina_11082022,2022.2.4,119.93834803620194,
12,11,6,2,0.027777777777778,3.10526315789474,2,1.0,1.0,2,0.027777777777778,1.0,ReadingArea_rsl2-rcl2-esl310-rsm2-rcm100-esm100-rsr2-rcr2-esr100,exr/ReadingArea_rsl2-rcl2-esl310-rsm2-rcm100-esm100-rsr2-rcr2-esr100.exr,ReadingArea_rsl2-rcl2-esl310-rsm2-rcm100-esm100-rsr2-rcr2-esr100.npz,,,,,0,40,40,163,,left,green,2.31,189.0011100769043,189.42342591285703,1,,1,8,lightness,readingArea,realistic,75,2023-03-31_13h43.01.343,tripletExp_regina_11082022,2022.2.4,119.93834803620194,
12,14,8,2,0.027777777777778,3.10526315789474,2,0.25,3.10526315789474,2,0.25,1.0,ReadingArea_rsl2-rcl2-esl310-rsm2-rcm25-esm310-rsr2-rcr25-esr100,exr/ReadingArea_rsl2-rcl2-esl310-rsm2-rcm25-esm310-rsr2-rcr25-esr100.exr,ReadingArea_rsl2-rcl2-esl310-rsm2-rcm25-esm310-rsr2-rcr25-esr100.npz,,,,,0,41,41,466,,right,red,0.77,191.1466031074524,191.5628809928894,1,,1,8,lightness,readingArea,realistic,75,2023-03-31_13h43.01.343,tripletExp_regina_11082022,2022.2.4,119.93834803620194,
13,3,5,2,0.111111111111111,3.10526315789474,2,0.444444444444444,0.298245614035088,2,1.0,0.298245614035088,ReadingArea_rsl2-rcl11-esl310-rsm2-rcm44-esm29-rsr2-rcr100-esr29,exr/ReadingArea_rsl2-rcl11-esl310-rsm2-rcm44-esm29-rsr2-rcr100-esr29.exr,ReadingArea_rsl2-rcl11-esl310-rsm2-rcm44-esm29-rsr2-rcr100-esr29.npz,,,,,0,42,42,398,,left,green,0.69,193.28278708457947,193.69670796394348,1,,1,8,lightness,readingArea,realistic,75,2023-03-31_13h43.01.343,tripletExp_regina_11082022,2022.2.4,119.93834803620194,
11,7,12,2,1.0,1.0,2,0.111111111111111,1.0,2,0.027777777777778,3.10526315789474,ReadingArea_rsl2-rcl100-esl100-rsm2-rcm11-esm100-rsr2-rcr2-esr310,exr/ReadingArea_rsl2-rcl100-esl100-rsm2-rcm11-esm100-rsr2-rcr2-esr310.exr,ReadingArea_rsl2-rcl100-esl100-rsm2-rcm11-esm100-rsr2-rcr2-esr310.npz,,,,,0,43,43,352,,right,red,0.66,195.405858039856,195.82954001426697,1,,1,8,lightness,readingArea,realistic,75,2023-03-31_13h43.01.343,tripletExp_regina_11082022,2022.2.4,119.93834803620194,
8,4,1,2,0.25,1.0,2,0.694444444444444,0.298245614035088,2,0.111111111111111,0.298245614035088,ReadingArea_rsl2-rcl25-esl100-rsm2-rcm69-esm29-rsr2-rcr11-esr29,exr/ReadingArea_rsl2-rcl25-esl100-rsm2-rcm69-esm29-rsr2-rcr11-esr29.exr,ReadingArea_rsl2-rcl25-esl100-rsm2-rcm69-esm29-rsr2-rcr11-esr29.npz,,,,,0,44,44,286,,left,green,0.91,197.52313804626465,197.94062113761905,1,,1,8,lightness,readingArea,realistic,75,2023-03-31_13h43.01.343,tripletExp_regina_11082022,2022.2.4,119.93834803620194,
2,1,8,2,0.25,0.298245614035088,2,0.111111111111111,0.298245614035088,2,0.25,1.0,ReadingArea_rsl2-rcl25-esl29-rsm2-rcm11-esm29-rsr2-rcr25-esr100,exr/ReadingArea_rsl2-rcl25-esl29-rsm2-rcm11-esm29-rsr2-rcr25-esr100.exr,ReadingArea_rsl2-rcl25-esl29-rsm2-rcm11-esm29-rsr2-rcr25-esr100.npz,,,,,0,45,45,125,,left,green,0.85,199.6529610157013,200.0798671245575,1,,1,8,lightness,readingArea,realistic,75,2023-03-31_13h43.01.343,tripletExp_regina_11082022,2022.2.4,119.93834803620194,
11,7,8,2,1.0,1.0,2,0.111111111111111,1.0,2,0.25,1.0,ReadingArea_rsl2-rcl100-esl100-rsm2-rcm11-esm100-rsr2-rcr25-esr100,exr/ReadingArea_rsl2-rcl100-esl100-rsm2-rcm11-esm100-rsr2-rcr25-esr100.exr,ReadingArea_rsl2-rcl100-esl100-rsm2-rcm11-esm100-rsr2-rcr25-esr100.npz,,,,,0,46,46,37,,right,red,0.63,201.77042508125305,202.19305610656733,1,,1,8,lightness,readingArea,realistic,75,2023-03-31_13h43.01.343,tripletExp_regina_11082022,2022.2.4,119.93834803620194,
4,2,0,2,0.694444444444444,0.298245614035088,2,0.25,0.298245614035088,2,0.027777777777778,0.298245614035088,ReadingArea_rsl2-rcl69-esl29-rsm2-rcm25-esm29-rsr2-rcr2-esr29,exr/ReadingArea_rsl2-rcl69-esl29-rsm2-rcm25-esm29-rsr2-rcr2-esr29.exr,ReadingArea_rsl2-rcl69-esl29-rsm2-rcm25-esm29-rsr2-rcr2-esr29.npz,,,,,0,47,47,71,,left,green,0.78,203.8803489208221,204.2998149394989,1,,1,8,lightness,readingArea,realistic,75,2023-03-31_13h43.01.343,tripletExp_regina_11082022,2022.2.4,119.93834803620194,
14,9,0,2,0.25,3.10526315789474,2,0.444444444444444,1.0,2,0.027777777777778,0.298245614035088,ReadingArea_rsl2-rcl25-esl310-rsm2-rcm44-esm100-rsr2-rcr2-esr29,exr/ReadingArea_rsl2-rcl25-esl310-rsm2-rcm44-esm100-rsr2-rcr2-esr29.exr,ReadingArea_rsl2-rcl25-esl310-rsm2-rcm44-esm100-rsr2-rcr2-esr29.npz,,,,,0,48,48,313,,left,green,0.59,206.00587701797485,206.42172813415527,1,,1,8,lightness,readingArea,realistic,75,2023-03-31_13h43.01.343,tripletExp_regina_11082022,2022.2.4,119.93834803620194,
14,0,9,2,0.25,3.10526315789474,2,0.027777777777778,0.298245614035088,2,0.444444444444444,1.0,ReadingArea_rsl2-rcl25-esl310-rsm2-rcm2-esm29-rsr2-rcr44-esr100,exr/ReadingArea_rsl2-rcl25-esl310-rsm2-rcm2-esm29-rsr2-rcr44-esr100.exr,ReadingArea_rsl2-rcl25-esl310-rsm2-rcm2-esm29-rsr2-rcr44-esr100.npz,,,,,0,49,49,90,,right,red,1.01,208.1281220912933,208.55355501174927,1,,1,8,lightness,readingArea,realistic,75,2023-03-31_13h43.01.343,tripletExp_regina_11082022,2022.2.4,119.93834803620194,
1,0,4,2,0.111111111111111,0.298245614035088,2,0.027777777777778,0.298245614035088,2,0.694444444444444,0.298245614035088,ReadingArea_rsl2-rcl11-esl29-rsm2-rcm2-esm29-rsr2-rcr69-esr29,exr/ReadingArea_rsl2-rcl11-esl29-rsm2-rcm2-esm29-rsr2-rcr69-esr29.exr,ReadingArea_rsl2-rcl11-esl29-rsm2-rcm2-esm29-rsr2-rcr69-esr29.npz,,,,,0,50,50,494,,left,green,0.71,210.2686879634857,210.6859660148621,1,,1,8,lightness,readingArea,realistic,75,2023-03-31_13h43.01.343,tripletExp_regina_11082022,2022.2.4,119.93834803620194,
0,5,6,2,0.027777777777778,0.298245614035088,2,1.0,0.298245614035088,2,0.027777777777778,1.0,ReadingArea_rsl2-rcl2-esl29-rsm2-rcm100-esm29-rsr2-rcr2-esr100,exr/ReadingArea_rsl2-rcl2-esl29-rsm2-rcm100-esm29-rsr2-rcr2-esr100.exr,ReadingArea_rsl2-rcl2-esl29-rsm2-rcm100-esm29-rsr2-rcr2-esr100.npz,,,,,0,51,51,374,,right,red,0.89,212.38740491867063,212.80835008621216,1,,1,8,lightness,readingArea,realistic,75,2023-03-31_13h43.01.343,tripletExp_regina_11082022,2022.2.4,119.93834803620194,
13,10,11,2,0.111111111111111,3.10526315789474,2,0.694444444444444,1.0,2,1.0,1.0,ReadingArea_rsl2-rcl11-esl310-rsm2-rcm69-esm100-rsr2-rcr100-esr100,exr/ReadingArea_rsl2-rcl11-esl310-rsm2-rcm69-esm100-rsr2-rcr100-esr100.exr,ReadingArea_rsl2-rcl11-esl310-rsm2-rcm69-esm100-rsr2-rcr100-esr100.npz,,,,,0,52,52,320,,right,red,0.72,214.51583909988403,214.9387359619141,1,,1,8,lightness,readingArea,realistic,75,2023-03-31_13h43.01.343,tripletExp_regina_11082022,2022.2.4,119.93834803620194,
14,5,13,2,0.25,3.10526315789474,2,1.0,0.298245614035088,2,0.111111111111111,3.10526315789474,ReadingArea_rsl2-rcl25-esl310-rsm2-rcm100-esm29-rsr2-rcr11-esr310,exr/ReadingArea_rsl2-rcl25-esl310-rsm2-rcm100-esm29-rsr2-rcr11-esr310.exr,ReadingArea_rsl2-rcl25-esl310-rsm2-rcm100-esm29-rsr2-rcr11-esr310.npz,,,,,0,53,53,524,,left,green,0.84,216.63652110099792,217.0541410446167,1,,1,8,lightness,readingArea,realistic,75,2023-03-31_13h43.01.343,tripletExp_regina_11082022,2022.2.4,119.93834803620194,
3,7,8,2,0.444444444444444,0.298245614035088,2,0.111111111111111,1.0,2,0.25,1.0,ReadingArea_rsl2-rcl44-esl29-rsm2-rcm11-esm100-rsr2-rcr25-esr100,exr/ReadingArea_rsl2-rcl44-esl29-rsm2-rcm11-esm100-rsr2-rcr25-esr100.exr,ReadingArea_rsl2-rcl44-esl29-rsm2-rcm11-esm100-rsr2-rcr25-esr100.npz,,,,,0,54,54,246,,left,green,0.71,218.7692711353302,219.18748497962952,1,,1,8,lightness,readingArea,realistic,75,2023-03-31_13h43.01.343,tripletExp_regina_11082022,2022.2.4,119.93834803620194,
6,13,5,2,0.027777777777778,1.0,2,0.111111111111111,3.10526315789474,2,1.0,0.298245614035088,ReadingArea_rsl2-rcl2-esl100-rsm2-rcm11-esm310-rsr2-rcr100-esr29,exr/ReadingArea_rsl2-rcl2-esl100-rsm2-rcm11-esm310-rsr2-rcr100-esr29.exr,ReadingArea_rsl2-rcl2-esl100-rsm2-rcm11-esm310-rsr2-rcr100-esr29.npz,,,,,0,55,55,53,,,green,0.71,224.4413111209869,224.86554598808289,1,224.07419581413268,1,8,lightness,readingArea,realistic,75,2023-03-31_13h43.01.343,tripletExp_regina_11082022,2022.2.4,119.93834803620194,
12,8,6,2,0.027777777777778,3.10526315789474,2,0.25,1.0,2,0.027777777777778,1.0,ReadingArea_rsl2-rcl2-esl310-rsm2-rcm25-esm100-rsr2-rcr2-esr100,exr/ReadingArea_rsl2-rcl2-esl310-rsm2-rcm25-esm100-rsr2-rcr2-esr100.exr,ReadingArea_rsl2-rcl2-esl310-rsm2-rcm25-esm100-rsr2-rcr2-esr100.npz,,,,,0,56,56,281,,left,green,1.06,226.59240794181824,227.0181920528412,1,,1,8,lightness,readingArea,realistic,75,2023-03-31_13h43.01.343,tripletExp_regina_11082022,2022.2.4,119.93834803620194,
14,11,0,2,0.25,3.10526315789474,2,1.0,1.0,2,0.027777777777778,0.298245614035088,ReadingArea_rsl2-rcl25-esl310-rsm2-rcm100-esm100-rsr2-rcr2-esr29,exr/ReadingArea_rsl2-rcl25-esl310-rsm2-rcm100-esm100-rsr2-rcr2-esr29.exr,ReadingArea_rsl2-rcl25-esl310-rsm2-rcm100-esm100-rsr2-rcr2-esr29.npz,,,,,0,57,57,227,,left,green,0.7,228.70678997039795,229.1475179195404,1,,1,8,lightness,readingArea,realistic,75,2023-03-31_13h43.01.343,tripletExp_regina_11082022,2022.2.4,119.93834803620194,
6,5,11,2,0.027777777777778,1.0,2,1.0,0.298245614035088,2,1.0,1.0,ReadingArea_rsl2-rcl2-esl100-rsm2-rcm100-esm29-rsr2-rcr100-esr100,exr/ReadingArea_rsl2-rcl2-esl100-rsm2-rcm100-esm29-rsr2-rcr100-esr100.exr,ReadingArea_rsl2-rcl2-esl100-rsm2-rcm100-esm29-rsr2-rcr100-esr100.npz,,,,,0,58,58,289,,right,red,0.68,230.8394379615784,,1,,1,8,lightness,readingArea,realistic,75,2023-03-31_13h43.01.343,tripletExp_regina_11082022,2022.2.4,119.93834803620194,
2,5,0,2,0.25,0.298245614035088,2,1.0,0.298245614035088,2,0.027777777777778,0.298245614035088,ReadingArea_rsl2-rcl25-esl29-rsm2-rcm100-esm29-rsr2-rcr2-esr29,exr/ReadingArea_rsl2-rcl25-esl29-rsm2-rcm100-esm29-rsr2-rcr2-esr29.exr,ReadingArea_rsl2-rcl25-esl29-rsm2-rcm100-esm29-rsr2-rcr2-esr29.npz,,,,,0,59,59,414,,left,green,0.66,232.98264694213867,233.40609407424927,1,,1,8,lightness,readingArea,realistic,75,2023-03-31_13h43.01.343,tripletExp_regina_11082022,2022.2.4,119.93834803620194,
13,8,5,2,0.111111111111111,3.10526315789474,2,0.25,1.0,2,1.0,0.298245614035088,ReadingArea_rsl2-rcl11-esl310-rsm2-rcm25-esm100-rsr2-rcr100-esr29,exr/ReadingArea_rsl2-rcl11-esl310-rsm2-rcm25-esm100-rsr2-rcr100-esr29.exr,ReadingArea_rsl2-rcl11-esl310-rsm2-rcm25-esm100-rsr2-rcr100-esr29.npz,,,,,0,60,60,209,,left,green,0.71,235.10803198814392,235.53023290634155,1,,1,8,lightness,readingArea,realistic,75,2023-03-31_13h43.01.343,tripletExp_regina_11082022,2022.2.4,119.93834803620194,
12,3,5,2,0.027777777777778,3.10526315789474,2,0.444444444444444,0.298245614035088,2,1.0,0.298245614035088,ReadingArea_rsl2-rcl2-esl310-rsm2-rcm44-esm29-rsr2-rcr100-esr29,exr/ReadingArea_rsl2-rcl2-esl310-rsm2-rcm44-esm29-rsr2-rcr100-esr29.exr,ReadingArea_rsl2-rcl2-esl310-rsm2-rcm44-esm29-rsr2-rcr100-esr29.npz,,,,,0,61,61,188,,left,green,2.6,239.00785994529724,239.4330279827118,1,,1,8,lightness,readingArea,realistic,75,2023-03-31_13h43.01.343,tripletExp_regina_11082022,2022.2.4,119.93834803620194,
6,0,4,2,0.027777777777778,1.0,2,0.027777777777778,0.298245614035088,2,0.694444444444444,0.298245614035088,ReadingArea_rsl2-rcl2-esl100-rsm2-rcm2-esm29-rsr2-rcr69-esr29,exr/ReadingArea_rsl2-rcl2-esl100-rsm2-rcm2-esm29-rsr2-rcr69-esr29.exr,ReadingArea_rsl2-rcl2-esl100-rsm2-rcm2-esm29-rsr2-rcr69-esr29.npz,,,,,0,62,62,555,,left,green,0.62,241.13266611099243,,1,,1,8,lightness,readingArea,realistic,75,2023-03-31_13h43.01.343,tripletExp_regina_11082022,2022.2.4,119.93834803620194,
1,11,14,2,0.111111111111111,0.298245614035088,2,1.0,1.0,2,0.25,3.10526315789474,ReadingArea_rsl2-rcl11-esl29-rsm2-rcm100-esm100-rsr2-rcr25-esr310,exr/ReadingArea_rsl2-rcl11-esl29-rsm2-rcm100-esm100-rsr2-rcr25-esr310.exr,ReadingArea_rsl2-rcl11-esl29-rsm2-rcm100-esm100-rsr2-rcr25-esr310.npz,,,,,0,63,63,399,,right,red,0.65,243.2604260444641,243.682874917984,1,,1,8,lightness,readingArea,realistic,75,2023-03-31_13h43.01.343,tripletExp_regina_11082022,2022.2.4,119.93834803620194,
13,8,14,2,0.111111111111111,3.10526315789474,2,0.25,1.0,2,0.25,3.10526315789474,ReadingArea_rsl2-rcl11-esl310-rsm2-rcm25-esm100-rsr2-rcr25-esr310,exr/ReadingArea_rsl2-rcl11-esl310-rsm2-rcm25-esm100-rsr2-rcr25-esr310.exr,ReadingArea_rsl2-rcl11-esl310-rsm2-rcm25-esm100-rsr2-rcr25-esr310.npz,,,,,0,64,64,345,,left,green,0.65,245.37289094924927,245.7931699752808,1,,1,8,lightness,readingArea,realistic,75,2023-03-31_13h43.01.343,tripletExp_regina_11082022,2022.2.4,119.93834803620194,
14,2,8,2,0.25,3.10526315789474,2,0.25,0.298245614035088,2,0.25,1.0,ReadingArea_rsl2-rcl25-esl310-rsm2-rcm25-esm29-rsr2-rcr25-esr100,exr/ReadingArea_rsl2-rcl25-esl310-rsm2-rcm25-esm29-rsr2-rcr25-esr100.exr,ReadingArea_rsl2-rcl25-esl310-rsm2-rcm25-esm29-rsr2-rcr25-esr100.npz,,,,,0,65,65,212,,right,red,0.63,247.48574995994568,247.9098479747772,1,,1,8,lightness,readingArea,realistic,75,2023-03-31_13h43.01.343,tripletExp_regina_11082022,2022.2.4,119.93834803620194,
6,13,0,2,0.027777777777778,1.0,2,0.111111111111111,3.10526315789474,2,0.027777777777778,0.298245614035088,ReadingArea_rsl2-rcl2-esl100-rsm2-rcm11-esm310-rsr2-rcr2-esr29,exr/ReadingArea_rsl2-rcl2-esl100-rsm2-rcm11-esm310-rsr2-rcr2-esr29.exr,ReadingArea_rsl2-rcl2-esl100-rsm2-rcm11-esm310-rsr2-rcr2-esr29.npz,,,,,0,66,66,580,,left,green,1.18,249.63321113586423,250.08153200149536,1,,1,8,lightness,readingArea,realistic,75,2023-03-31_13h43.01.343,tripletExp_regina_11082022,2022.2.4,119.93834803620194,
8,9,2,2,0.25,1.0,2,0.444444444444444,1.0,2,0.25,0.298245614035088,ReadingArea_rsl2-rcl25-esl100-rsm2-rcm44-esm100-rsr2-rcr25-esr29,exr/ReadingArea_rsl2-rcl25-esl100-rsm2-rcm44-esm100-rsr2-rcr25-esr29.exr,ReadingArea_rsl2-rcl25-esl100-rsm2-rcm44-esm100-rsr2-rcr25-esr29.npz,,,,,0,67,67,559,,left,green,2.48,253.54341411590576,253.974613904953,1,,1,8,lightness,readingArea,realistic,75,2023-03-31_13h43.01.343,tripletExp_regina_11082022,2022.2.4,119.93834803620194,
12,6,8,2,0.027777777777778,3.10526315789474,2,0.027777777777778,1.0,2,0.25,1.0,ReadingArea_rsl2-rcl2-esl310-rsm2-rcm2-esm100-rsr2-rcr25-esr100,exr/ReadingArea_rsl2-rcl2-esl310-rsm2-rcm2-esm100-rsr2-rcr25-esr100.exr,ReadingArea_rsl2-rcl2-esl310-rsm2-rcm2-esm100-rsr2-rcr25-esr100.npz,,,,,0,68,68,540,,left,green,0.64,255.69690108299253,256.1184251308441,1,,1,8,lightness,readingArea,realistic,75,2023-03-31_13h43.01.343,tripletExp_regina_11082022,2022.2.4,119.93834803620194,
12,3,0,2,0.027777777777778,3.10526315789474,2,0.444444444444444,0.298245614035088,2,0.027777777777778,0.298245614035088,ReadingArea_rsl2-rcl2-esl310-rsm2-rcm44-esm29-rsr2-rcr2-esr29,exr/ReadingArea_rsl2-rcl2-esl310-rsm2-rcm44-esm29-rsr2-rcr2-esr29.exr,ReadingArea_rsl2-rcl2-esl310-rsm2-rcm44-esm29-rsr2-rcr2-esr29.npz,,,,,0,69,69,502,,left,green,0.83,257.8121221065521,258.32637095451355,1,,1,8,lightness,readingArea,realistic,75,2023-03-31_13h43.01.343,tripletExp_regina_11082022,2022.2.4,119.93834803620194,
11,1,12,2,1.0,1.0,2,0.111111111111111,0.298245614035088,2,0.027777777777778,3.10526315789474,ReadingArea_rsl2-rcl100-esl100-rsm2-rcm11-esm29-rsr2-rcr2-esr310,exr/ReadingArea_rsl2-rcl100-esl100-rsm2-rcm11-esm29-rsr2-rcr2-esr310.exr,ReadingArea_rsl2-rcl100-esl100-rsm2-rcm11-esm29-rsr2-rcr2-esr310.npz,,,,,0,70,70,339,,right,red,0.65,260.031613111496,260.4523129463196,1,,1,8,lightness,readingArea,realistic,75,2023-03-31_13h43.01.343,tripletExp_regina_11082022,2022.2.4,119.93834803620194,
11,7,14,2,1.0,1.0,2,0.111111111111111,1.0,2,0.25,3.10526315789474,ReadingArea_rsl2-rcl100-esl100-rsm2-rcm11-esm100-rsr2-rcr25-esr310,exr/ReadingArea_rsl2-rcl100-esl100-rsm2-rcm11-esm100-rsr2-rcr25-esr310.exr,ReadingArea_rsl2-rcl100-esl100-rsm2-rcm11-esm100-rsr2-rcr25-esr310.npz,,,,,0,71,71,119,,right,red,0.87,262.1448600292206,262.5724289417267,1,,1,8,lightness,readingArea,realistic,75,2023-03-31_13h43.01.343,tripletExp_regina_11082022,2022.2.4,119.93834803620194,
7,13,4,2,0.111111111111111,1.0,2,0.111111111111111,3.10526315789474,2,0.694444444444444,0.298245614035088,ReadingArea_rsl2-rcl11-esl100-rsm2-rcm11-esm310-rsr2-rcr69-esr29,exr/ReadingArea_rsl2-rcl11-esl100-rsm2-rcm11-esm310-rsr2-rcr69-esr29.exr,ReadingArea_rsl2-rcl11-esl100-rsm2-rcm11-esm310-rsr2-rcr69-esr29.npz,,,,,0,72,72,456,,left,green,1.0,264.29189801216125,264.7124071121216,1,,1,8,lightness,readingArea,realistic,75,2023-03-31_13h43.01.343,tripletExp_regina_11082022,2022.2.4,119.93834803620194,
9,4,11,2,0.444444444444444,1.0,2,0.694444444444444,0.298245614035088,2,1.0,1.0,ReadingArea_rsl2-rcl44-esl100-rsm2-rcm69-esm29-rsr2-rcr100-esr100,exr/ReadingArea_rsl2-rcl44-esl100-rsm2-rcm69-esm29-rsr2-rcr100-esr100.exr,ReadingArea_rsl2-rcl44-esl100-rsm2-rcm69-esm29-rsr2-rcr100-esr100.npz,,,,,0,73,73,133,,left,green,0.92,266.4290430545807,266.8537781238556,1,,1,8,lightness,readingArea,realistic,75,2023-03-31_13h43.01.343,tripletExp_regina_11082022,2022.2.4,119.93834803620194,
13,14,7,2,0.111111111111111,3.10526315789474,2,0.25,3.10526315789474,2,0.111111111111111,1.0,ReadingArea_rsl2-rcl11-esl310-rsm2-rcm25-esm310-rsr2-rcr11-esr100,exr/ReadingArea_rsl2-rcl11-esl310-rsm2-rcm25-esm310-rsr2-rcr11-esr100.exr,ReadingArea_rsl2-rcl11-esl310-rsm2-rcm25-esm310-rsr2-rcr11-esr100.npz,,,,,0,74,74,324,,left,green,1.03,268.5626199245453,268.7689459323883,1,,1,8,lightness,readingArea,realistic,75,2023-03-31_13h43.01.343,tripletExp_regina_11082022,2022.2.4,119.93834803620194,
10,1,6,2,0.694444444444444,1.0,2,0.111111111111111,0.298245614035088,2,0.027777777777778,1.0,ReadingArea_rsl2-rcl69-esl100-rsm2-rcm11-esm29-rsr2-rcr2-esr100,exr/ReadingArea_rsl2-rcl69-esl100-rsm2-rcm11-esm29-rsr2-rcr2-esr100.exr,ReadingArea_rsl2-rcl69-esl100-rsm2-rcm11-esm29-rsr2-rcr2-esr100.npz,,,,,0,75,75,160,,right,red,0.77,271.9581799507141,272.3886580467224,2,,1,8,lightness,readingArea,realistic,75,2023-03-31_13h43.01.343,tripletExp_regina_11082022,2022.2.4,119.93834803620194,
9,4,14,2,0.444444444444444,1.0,2,0.694444444444444,0.298245614035088,2,0.25,3.10526315789474,ReadingArea_rsl2-rcl44-esl100-rsm2-rcm69-esm29-rsr2-rcr25-esr310,exr/ReadingArea_rsl2-rcl44-esl100-rsm2-rcm69-esm29-rsr2-rcr25-esr310.exr,ReadingArea_rsl2-rcl44-esl100-rsm2-rcm69-esm29-rsr2-rcr25-esr310.npz,,,,,0,76,76,104,,left,green,0.8,274.0809419155121,274.51181197166443,2,,1,8,lightness,readingArea,realistic,75,2023-03-31_13h43.01.343,tripletExp_regina_11082022,2022.2.4,119.93834803620194,
1,13,14,2,0.111111111111111,0.298245614035088,2,0.111111111111111,3.10526315789474,2,0.25,3.10526315789474,ReadingArea_rsl2-rcl11-esl29-rsm2-rcm11-esm310-rsr2-rcr25-esr310,exr/ReadingArea_rsl2-rcl11-esl29-rsm2-rcm11-esm310-rsr2-rcr25-esr310.exr,ReadingArea_rsl2-rcl11-esl29-rsm2-rcm11-esm310-rsr2-rcr25-esr310.npz,,,,,0,77,77,183,,left,green,0.91,276.21187710762024,276.6349720954895,2,,1,8,lightness,readingArea,realistic,75,2023-03-31_13h43.01.343,tripletExp_regina_11082022,2022.2.4,119.93834803620194,
14,8,2,2,0.25,3.10526315789474,2,0.25,1.0,2,0.25,0.298245614035088,ReadingArea_rsl2-rcl25-esl310-rsm2-rcm25-esm100-rsr2-rcr25-esr29,exr/ReadingArea_rsl2-rcl25-esl310-rsm2-rcm25-esm100-rsr2-rcr25-esr29.exr,ReadingArea_rsl2-rcl25-esl310-rsm2-rcm25-esm100-rsr2-rcr25-esr29.npz,,,,,0,78,78,251,,right,red,0.78,278.32668113708496,278.7467849254608,2,,1,8,lightness,readingArea,realistic,75,2023-03-31_13h43.01.343,tripletExp_regina_11082022,2022.2.4,119.93834803620194,
1,7,8,2,0.111111111111111,0.298245614035088,2,0.111111111111111,1.0,2,0.25,1.0,ReadingArea_rsl2-rcl11-esl29-rsm2-rcm11-esm100-rsr2-rcr25-esr100,exr/ReadingArea_rsl2-rcl11-esl29-rsm2-rcm11-esm100-rsr2-rcr25-esr100.exr,ReadingArea_rsl2-rcl11-esl29-rsm2-rcm11-esm100-rsr2-rcr25-esr100.npz,,,,,0,79,79,260,,left,green,0.71,280.45665407180786,280.88180899620056,2,,1,8,lightness,readingArea,realistic,75,2023-03-31_13h43.01.343,tripletExp_regina_11082022,2022.2.4,119.93834803620194,
6,9,5,2,0.027777777777778,1.0,2,0.444444444444444,1.0,2,1.0,0.298245614035088,ReadingArea_rsl2-rcl2-esl100-rsm2-rcm44-esm100-rsr2-rcr100-esr29,exr/ReadingArea_rsl2-rcl2-esl100-rsm2-rcm44-esm100-rsr2-rcr100-esr29.exr,ReadingArea_rsl2-rcl2-esl100-rsm2-rcm44-esm100-rsr2-rcr100-esr29.npz,,,,,0,80,80,29,,right,red,0.64,282.600515127182,283.0230350494385,2,,1,8,lightness,readingArea,realistic,75,2023-03-31_13h43.01.343,tripletExp_regina_11082022,2022.2.4,119.93834803620194,
7,10,4,2,0.111111111111111,1.0,2,0.694444444444444,1.0,2,0.694444444444444,0.298245614035088,ReadingArea_rsl2-rcl11-esl100-rsm2-rcm69-esm100-rsr2-rcr69-esr29,exr/ReadingArea_rsl2-rcl11-esl100-rsm2-rcm69-esm100-rsr2-rcr69-esr29.exr,ReadingArea_rsl2-rcl11-esl100-rsm2-rcm69-esm100-rsr2-rcr69-esr29.npz,,,,,0,81,81,46,,right,red,0.76,284.71517300605774,285.14314103126526,2,,1,8,lightness,readingArea,realistic,75,2023-03-31_13h43.01.343,tripletExp_regina_11082022,2022.2.4,119.93834803620194,
1,12,10,2,0.111111111111111,0.298245614035088,2,0.027777777777778,3.10526315789474,2,0.694444444444444,1.0,ReadingArea_rsl2-rcl11-esl29-rsm2-rcm2-esm310-rsr2-rcr69-esr100,exr/ReadingArea_rsl2-rcl11-esl29-rsm2-rcm2-esm310-rsr2-rcr69-esr100.exr,ReadingArea_rsl2-rcl11-esl29-rsm2-rcm2-esm310-rsr2-rcr69-esr100.npz,,,,,0,82,82,567,,left,green,0.64,286.8331251144409,287.2587809562683,2,,1,8,lightness,readingArea,realistic,75,2023-03-31_13h43.01.343,tripletExp_regina_11082022,2022.2.4,119.93834803620194,
1,8,5,2,0.111111111111111,0.298245614035088,2,0.25,1.0,2,1.0,0.298245614035088,ReadingArea_rsl2-rcl11-esl29-rsm2-rcm25-esm100-rsr2-rcr100-esr29,exr/ReadingArea_rsl2-rcl11-esl29-rsm2-rcm25-esm100-rsr2-rcr100-esr29.exr,ReadingArea_rsl2-rcl11-esl29-rsm2-rcm25-esm100-rsr2-rcr100-esr29.npz,,,,,0,83,83,445,,left,green,2.47,290.71306705474854,291.1334960460663,2,,1,8,lightness,readingArea,realistic,75,2023-03-31_13h43.01.343,tripletExp_regina_11082022,2022.2.4,119.93834803620194,
6,1,10,2,0.027777777777778,1.0,2,0.111111111111111,0.298245614035088,2,0.694444444444444,1.0,ReadingArea_rsl2-rcl2-esl100-rsm2-rcm11-esm29-rsr2-rcr69-esr100,exr/ReadingArea_rsl2-rcl2-esl100-rsm2-rcm11-esm29-rsr2-rcr69-esr100.exr,ReadingArea_rsl2-rcl2-esl100-rsm2-rcm11-esm29-rsr2-rcr69-esr100.npz,,,,,0,84,84,561,,left,green,0.59,292.8241789340973,,2,,1,8,lightness,readingArea,realistic,75,2023-03-31_13h43.01.343,tripletExp_regina_11082022,2022.2.4,119.93834803620194,
2,9,10,2,0.25,0.298245614035088,2,0.444444444444444,1.0,2,0.694444444444444,1.0,ReadingArea_rsl2-rcl25-esl29-rsm2-rcm44-esm100-rsr2-rcr69-esr100,exr/ReadingArea_rsl2-rcl25-esl29-rsm2-rcm44-esm100-rsr2-rcr69-esr100.exr,ReadingArea_rsl2-rcl25-esl29-rsm2-rcm44-esm100-rsr2-rcr69-esr100.npz,,,,,0,85,85,117,,right,red,0.66,294.9601149559021,295.3818199634552,2,,1,8,lightness,readingArea,realistic,75,2023-03-31_13h43.01.343,tripletExp_regina_11082022,2022.2.4,119.93834803620194,
6,11,14,2,0.027777777777778,1.0,2,1.0,1.0,2,0.25,3.10526315789474,ReadingArea_rsl2-rcl2-esl100-rsm2-rcm100-esm100-rsr2-rcr25-esr310,exr/ReadingArea_rsl2-rcl2-esl100-rsm2-rcm100-esm100-rsr2-rcr25-esr310.exr,ReadingArea_rsl2-rcl2-esl100-rsm2-rcm100-esm100-rsr2-rcr25-esr310.npz,,,,,0,86,86,262,,right,red,0.6,297.0894911289215,297.507609128952,2,,1,8,lightness,readingArea,realistic,75,2023-03-31_13h43.01.343,tripletExp_regina_11082022,2022.2.4,119.93834803620194,
5,3,0,2,1.0,0.298245614035088,2,0.444444444444444,0.298245614035088,2,0.027777777777778,0.298245614035088,ReadingArea_rsl2-rcl100-esl29-rsm2-rcm44-esm29-rsr2-rcr2-esr29,exr/ReadingArea_rsl2-rcl100-esl29-rsm2-rcm44-esm29-rsr2-rcr2-esr29.exr,ReadingArea_rsl2-rcl100-esl29-rsm2-rcm44-esm29-rsr2-rcr2-esr29.npz,,,,,0,87,87,303,,left,green,0.93,299.2197151184082,299.6468689441681,2,,1,8,lightness,readingArea,realistic,75,2023-03-31_13h43.01.343,tripletExp_regina_11082022,2022.2.4,119.93834803620194,
3,4,0,2,0.444444444444444,0.298245614035088,2,0.694444444444444,0.298245614035088,2,0.027777777777778,0.298245614035088,ReadingArea_rsl2-rcl44-esl29-rsm2-rcm69-esm29-rsr2-rcr2-esr29,exr/ReadingArea_rsl2-rcl44-esl29-rsm2-rcm69-esm29-rsr2-rcr2-esr29.exr,ReadingArea_rsl2-rcl44-esl29-rsm2-rcm69-esm29-rsr2-rcr2-esr29.npz,,,,,0,88,88,130,,left,green,0.55,301.36918807029724,301.8033440113068,2,,1,8,lightness,readingArea,realistic,75,2023-03-31_13h43.01.343,tripletExp_regina_11082022,2022.2.4,119.93834803620194,
2,6,12,2,0.25,0.298245614035088,2,0.027777777777778,1.0,2,0.027777777777778,3.10526315789474,ReadingArea_rsl2-rcl25-esl29-rsm2-rcm2-esm100-rsr2-rcr2-esr310,exr/ReadingArea_rsl2-rcl25-esl29-rsm2-rcm2-esm100-rsr2-rcr2-esr310.exr,ReadingArea_rsl2-rcl25-esl29-rsm2-rcm2-esm100-rsr2-rcr2-esr310.npz,,,,,0,89,89,97,,right,red,0.57,303.4953200817108,303.92076301574707,2,,1,8,lightness,readingArea,realistic,75,2023-03-31_13h43.01.343,tripletExp_regina_11082022,2022.2.4,119.93834803620194,
4,14,12,2,0.694444444444444,0.298245614035088,2,0.25,3.10526315789474,2,0.027777777777778,3.10526315789474,ReadingArea_rsl2-rcl69-esl29-rsm2-rcm25-esm310-rsr2-rcr2-esr310,exr/ReadingArea_rsl2-rcl69-esl29-rsm2-rcm25-esm310-rsr2-rcr2-esr310.exr,ReadingArea_rsl2-rcl69-esl29-rsm2-rcm25-esm310-rsr2-rcr2-esr310.npz,,,,,0,90,90,392,,left,green,0.92,305.6097629070282,306.0425879955292,2,,1,8,lightness,readingArea,realistic,75,2023-03-31_13h43.01.343,tripletExp_regina_11082022,2022.2.4,119.93834803620194,
12,6,9,2,0.027777777777778,3.10526315789474,2,0.027777777777778,1.0,2,0.444444444444444,1.0,ReadingArea_rsl2-rcl2-esl310-rsm2-rcm2-esm100-rsr2-rcr44-esr100,exr/ReadingArea_rsl2-rcl2-esl310-rsm2-rcm2-esm100-rsr2-rcr44-esr100.exr,ReadingArea_rsl2-rcl2-esl310-rsm2-rcm2-esm100-rsr2-rcr44-esr100.npz,,,,,0,91,91,177,,left,green,0.56,307.7629849910736,308.19000911712646,2,,1,8,lightness,readingArea,realistic,75,2023-03-31_13h43.01.343,tripletExp_regina_11082022,2022.2.4,119.93834803620194,
3,10,4,2,0.444444444444444,0.298245614035088,2,0.694444444444444,1.0,2,0.694444444444444,0.298245614035088,ReadingArea_rsl2-rcl44-esl29-rsm2-rcm69-esm100-rsr2-rcr69-esr29,exr/ReadingArea_rsl2-rcl44-esl29-rsm2-rcm69-esm100-rsr2-rcr69-esr29.exr,ReadingArea_rsl2-rcl44-esl29-rsm2-rcm69-esm100-rsr2-rcr69-esr29.npz,,,,,0,92,92,435,,right,red,0.68,309.8851521015167,,2,,1,8,lightness,readingArea,realistic,75,2023-03-31_13h43.01.343,tripletExp_regina_11082022,2022.2.4,119.93834803620194,
13,11,8,2,0.111111111111111,3.10526315789474,2,1.0,1.0,2,0.25,1.0,ReadingArea_rsl2-rcl11-esl310-rsm2-rcm100-esm100-rsr2-rcr25-esr100,exr/ReadingArea_rsl2-rcl11-esl310-rsm2-rcm100-esm100-rsr2-rcr25-esr100.exr,ReadingArea_rsl2-rcl11-esl310-rsm2-rcm100-esm100-rsr2-rcr25-esr100.npz,,,,,0,93,93,410,,right,red,0.81,312.0057849884033,312.43298506736755,2,,1,8,lightness,readingArea,realistic,75,2023-03-31_13h43.01.343,tripletExp_regina_11082022,2022.2.4,119.93834803620194,
3,13,10,2,0.444444444444444,0.298245614035088,2,0.111111111111111,3.10526315789474,2,0.694444444444444,1.0,ReadingArea_rsl2-rcl44-esl29-rsm2-rcm11-esm310-rsr2-rcr69-esr100,exr/ReadingArea_rsl2-rcl44-esl29-rsm2-rcm11-esm310-rsr2-rcr69-esr100.exr,ReadingArea_rsl2-rcl44-esl29-rsm2-rcm11-esm310-rsr2-rcr69-esr100.npz,,,,,0,94,94,416,,left,green,0.53,314.1433560848236,314.56622791290283,2,,1,8,lightness,readingArea,realistic,75,2023-03-31_13h43.01.343,tripletExp_regina_11082022,2022.2.4,119.93834803620194,
6,2,5,2,0.027777777777778,1.0,2,0.25,0.298245614035088,2,1.0,0.298245614035088,ReadingArea_rsl2-rcl2-esl100-rsm2-rcm25-esm29-rsr2-rcr100-esr29,exr/ReadingArea_rsl2-rcl2-esl100-rsm2-rcm25-esm29-rsr2-rcr100-esr29.exr,ReadingArea_rsl2-rcl2-esl100-rsm2-rcm25-esm29-rsr2-rcr100-esr29.npz,,,,,0,95,95,504,,left,green,2.18,318.0563111305237,318.4847660064697,2,,1,8,lightness,readingArea,realistic,75,2023-03-31_13h43.01.343,tripletExp_regina_11082022,2022.2.4,119.93834803620194,
4,12,2,2,0.694444444444444,0.298245614035088,2,0.027777777777778,3.10526315789474,2,0.25,0.298245614035088,ReadingArea_rsl2-rcl69-esl29-rsm2-rcm2-esm310-rsr2-rcr25-esr29,exr/ReadingArea_rsl2-rcl69-esl29-rsm2-rcm2-esm310-rsr2-rcr25-esr29.exr,ReadingArea_rsl2-rcl69-esl29-rsm2-rcm2-esm310-rsr2-rcr25-esr29.npz,,,,,0,96,96,543,,right,red,0.68,320.1732470989228,320.5987861156464,2,,1,8,lightness,readingArea,realistic,75,2023-03-31_13h43.01.343,tripletExp_regina_11082022,2022.2.4,119.93834803620194,
14,5,11,2,0.25,3.10526315789474,2,1.0,0.298245614035088,2,1.0,1.0,ReadingArea_rsl2-rcl25-esl310-rsm2-rcm100-esm29-rsr2-rcr100-esr100,exr/ReadingArea_rsl2-rcl25-esl310-rsm2-rcm100-esm29-rsr2-rcr100-esr100.exr,ReadingArea_rsl2-rcl25-esl310-rsm2-rcm100-esm29-rsr2-rcr100-esr100.npz,,,,,0,97,97,161,,left,green,0.95,322.2938230037689,322.7199070453644,2,,1,8,lightness,readingArea,realistic,75,2023-03-31_13h43.01.343,tripletExp_regina_11082022,2022.2.4,119.93834803620194,
3,1,0,2,0.444444444444444,0.298245614035088,2,0.111111111111111,0.298245614035088,2,0.027777777777778,0.298245614035088,ReadingArea_rsl2-rcl44-esl29-rsm2-rcm11-esm29-rsr2-rcr2-esr29,exr/ReadingArea_rsl2-rcl44-esl29-rsm2-rcm11-esm29-rsr2-rcr2-esr29.exr,ReadingArea_rsl2-rcl44-esl29-rsm2-rcm11-esm29-rsr2-rcr2-esr29.npz,,,,,0,98,98,343,,left,green,1.07,324.4265239238739,324.8505859375,2,,1,8,lightness,readingArea,realistic,75,2023-03-31_13h43.01.343,tripletExp_regina_11082022,2022.2.4,119.93834803620194,
1,5,13,2,0.111111111111111,0.298245614035088,2,1.0,0.298245614035088,2,0.111111111111111,3.10526315789474,ReadingArea_rsl2-rcl11-esl29-rsm2-rcm100-esm29-rsr2-rcr11-esr310,exr/ReadingArea_rsl2-rcl11-esl29-rsm2-rcm100-esm29-rsr2-rcr11-esr310.exr,ReadingArea_rsl2-rcl11-esl29-rsm2-rcm100-esm29-rsr2-rcr11-esr310.npz,,,,,0,99,99,598,,right,red,0.62,326.5546169281006,,2,,1,8,lightness,readingArea,realistic,75,2023-03-31_13h43.01.343,tripletExp_regina_11082022,2022.2.4,119.93834803620194,
10,0,8,2,0.694444444444444,1.0,2,0.027777777777778,0.298245614035088,2,0.25,1.0,ReadingArea_rsl2-rcl69-esl100-rsm2-rcm2-esm29-rsr2-rcr25-esr100,exr/ReadingArea_rsl2-rcl69-esl100-rsm2-rcm2-esm29-rsr2-rcr25-esr100.exr,ReadingArea_rsl2-rcl69-esl100-rsm2-rcm2-esm29-rsr2-rcr25-esr100.npz,,,,,0,100,100,552,,right,red,0.65,328.6908960342407,329.11799693107605,2,,1,8,lightness,readingArea,realistic,75,2023-03-31_13h43.01.343,tripletExp_regina_11082022,2022.2.4,119.93834803620194,
2,1,13,2,0.25,0.298245614035088,2,0.111111111111111,0.298245614035088,2,0.111111111111111,3.10526315789474,ReadingArea_rsl2-rcl25-esl29-rsm2-rcm11-esm29-rsr2-rcr11-esr310,exr/ReadingArea_rsl2-rcl25-esl29-rsm2-rcm11-esm29-rsr2-rcr11-esr310.exr,ReadingArea_rsl2-rcl25-esl29-rsm2-rcm11-esm29-rsr2-rcr11-esr310.npz,,,,,0,101,101,290,,left,green,1.02,330.8413510322571,331.26647901535034,2,,1,8,lightness,readingArea,realistic,75,2023-03-31_13h43.01.343,tripletExp_regina_11082022,2022.2.4,119.93834803620194,
13,7,6,2,0.111111111111111,3.10526315789474,2,0.111111111111111,1.0,2,0.027777777777778,1.0,ReadingArea_rsl2-rcl11-esl310-rsm2-rcm11-esm100-rsr2-rcr2-esr100,exr/ReadingArea_rsl2-rcl11-esl310-rsm2-rcm11-esm100-rsr2-rcr2-esr100.exr,ReadingArea_rsl2-rcl11-esl310-rsm2-rcm11-esm100-rsr2-rcr2-esr100.npz,,,,,0,102,102,283,,right,red,2.11,334.7182869911194,335.1452901363373,2,,1,8,lightness,readingArea,realistic,75,2023-03-31_13h43.01.343,tripletExp_regina_11082022,2022.2.4,119.93834803620194,
3,14,12,2,0.444444444444444,0.298245614035088,2,0.25,3.10526315789474,2,0.027777777777778,3.10526315789474,ReadingArea_rsl2-rcl44-esl29-rsm2-rcm25-esm310-rsr2-rcr2-esr310,exr/ReadingArea_rsl2-rcl44-esl29-rsm2-rcm25-esm310-rsr2-rcr2-esr310.exr,ReadingArea_rsl2-rcl44-esl29-rsm2-rcm25-esm310-rsr2-rcr2-esr310.npz,,,,,0,103,103,336,,left,green,0.9,336.859689950943,337.28445410728455,2,,1,8,lightness,readingArea,realistic,75,2023-03-31_13h43.01.343,tripletExp_regina_11082022,2022.2.4,119.93834803620194,
4,1,9,2,0.694444444444444,0.298245614035088,2,0.111111111111111,0.298245614035088,2,0.444444444444444,1.0,ReadingArea_rsl2-rcl69-esl29-rsm2-rcm11-esm29-rsr2-rcr44-esr100,exr/ReadingArea_rsl2-rcl69-esl29-rsm2-rcm11-esm29-rsr2-rcr44-esr100.exr,ReadingArea_rsl2-rcl69-esl29-rsm2-rcm11-esm29-rsr2-rcr44-esr100.npz,,,,,0,104,104,7,,left,green,1.0,339.0060679912567,,2,,1,8,lightness,readingArea,realistic,75,2023-03-31_13h43.01.343,tripletExp_regina_11082022,2022.2.4,119.93834803620194,
0,9,10,2,0.027777777777778,0.298245614035088,2,0.444444444444444,1.0,2,0.694444444444444,1.0,ReadingArea_rsl2-rcl2-esl29-rsm2-rcm44-esm100-rsr2-rcr69-esr100,exr/ReadingArea_rsl2-rcl2-esl29-rsm2-rcm44-esm100-rsr2-rcr69-esr100.exr,ReadingArea_rsl2-rcl2-esl29-rsm2-rcm44-esm100-rsr2-rcr69-esr100.npz,,,,,0,105,105,434,,right,red,0.61,341.14518094062805,341.5657789707184,2,,1,8,lightness,readingArea,realistic,75,2023-03-31_13h43.01.343,tripletExp_regina_11082022,2022.2.4,119.93834803620194,
1,14,7,2,0.111111111111111,0.298245614035088,2,0.25,3.10526315789474,2,0.111111111111111,1.0,ReadingArea_rsl2-rcl11-esl29-rsm2-rcm25-esm310-rsr2-rcr11-esr100,exr/ReadingArea_rsl2-rcl11-esl29-rsm2-rcm25-esm310-rsr2-rcr11-esr100.exr,ReadingArea_rsl2-rcl11-esl29-rsm2-rcm25-esm310-rsr2-rcr11-esr100.npz,,,,,0,106,106,583,,right,red,2.91,345.0342810153961,345.4816679954529,2,,1,8,lightness,readingArea,realistic,75,2023-03-31_13h43.01.343,tripletExp_regina_11082022,2022.2.4,119.93834803620194,
0,1,7,2,0.027777777777778,0.298245614035088,2,0.111111111111111,0.298245614035088,2,0.111111111111111,1.0,ReadingArea_rsl2-rcl2-esl29-rsm2-rcm11-esm29-rsr2-rcr11-esr100,exr/ReadingArea_rsl2-rcl2-esl29-rsm2-rcm11-esm29-rsr2-rcr11-esr100.exr,ReadingArea_rsl2-rcl2-esl29-rsm2-rcm11-esm29-rsr2-rcr11-esr100.npz,,,,,0,107,107,243,,right,red,1.07,347.19322896003723,347.6210501194,2,,1,8,lightness,readingArea,realistic,75,2023-03-31_13h43.01.343,tripletExp_regina_11082022,2022.2.4,119.93834803620194,
13,0,12,2,0.111111111111111,3.10526315789474,2,0.027777777777778,0.298245614035088,2,0.027777777777778,3.10526315789474,ReadingArea_rsl2-rcl11-esl310-rsm2-rcm2-esm29-rsr2-rcr2-esr310,exr/ReadingArea_rsl2-rcl11-esl310-rsm2-rcm2-esm29-rsr2-rcr2-esr310.exr,ReadingArea_rsl2-rcl11-esl310-rsm2-rcm2-esm29-rsr2-rcr2-esr310.npz,,,,,0,108,108,56,,right,red,0.7,349.3453440666199,349.77290391922,2,,1,8,lightness,readingArea,realistic,75,2023-03-31_13h43.01.343,tripletExp_regina_11082022,2022.2.4,119.93834803620194,
0,4,9,2,0.027777777777778,0.298245614035088,2,0.694444444444444,0.298245614035088,2,0.444444444444444,1.0,ReadingArea_rsl2-rcl2-esl29-rsm2-rcm69-esm29-rsr2-rcr44-esr100,exr/ReadingArea_rsl2-rcl2-esl29-rsm2-rcm69-esm29-rsr2-rcr44-esr100.exr,ReadingArea_rsl2-rcl2-esl29-rsm2-rcm69-esm29-rsr2-rcr44-esr100.npz,,,,,0,109,109,21,,right,red,0.62,351.4691641330719,351.8985550403595,2,,1,8,lightness,readingArea,realistic,75,2023-03-31_13h43.01.343,tripletExp_regina_11082022,2022.2.4,119.93834803620194,
6,1,14,2,0.027777777777778,1.0,2,0.111111111111111,0.298245614035088,2,0.25,3.10526315789474,ReadingArea_rsl2-rcl2-esl100-rsm2-rcm11-esm29-rsr2-rcr25-esr310,exr/ReadingArea_rsl2-rcl2-esl100-rsm2-rcm11-esm29-rsr2-rcr25-esr310.exr,ReadingArea_rsl2-rcl2-esl100-rsm2-rcm11-esm29-rsr2-rcr25-esr310.npz,,,,,0,110,110,381,,left,green,0.73,353.6187720298767,354.05197405815125,2,,1,8,lightness,readingArea,realistic,75,2023-03-31_13h43.01.343,tripletExp_regina_11082022,2022.2.4,119.93834803620194,
9,8,0,2,0.444444444444444,1.0,2,0.25,1.0,2,0.027777777777778,0.298245614035088,ReadingArea_rsl2-rcl44-esl100-rsm2-rcm25-esm100-rsr2-rcr2-esr29,exr/ReadingArea_rsl2-rcl44-esl100-rsm2-rcm25-esm100-rsr2-rcr2-esr29.exr,ReadingArea_rsl2-rcl44-esl100-rsm2-rcm25-esm100-rsr2-rcr2-esr29.npz,,,,,0,111,111,66,,right,red,2.8,357.5291681289673,357.95823097229004,2,,1,8,lightness,readingArea,realistic,75,2023-03-31_13h43.01.343,tripletExp_regina_11082022,2022.2.4,119.93834803620194,
6,5,13,2,0.027777777777778,1.0,2,1.0,0.298245614035088,2,0.111111111111111,3.10526315789474,ReadingArea_rsl2-rcl2-esl100-rsm2-rcm100-esm29-rsr2-rcr11-esr310,exr/ReadingArea_rsl2-rcl2-esl100-rsm2-rcm100-esm29-rsr2-rcr11-esr310.exr,ReadingArea_rsl2-rcl2-esl100-rsm2-rcm100-esm29-rsr2-rcr11-esr310.npz,,,,,0,112,112,450,,right,red,0.72,359.6502070426941,360.0933361053467,2,,1,8,lightness,readingArea,realistic,75,2023-03-31_13h43.01.343,tripletExp_regina_11082022,2022.2.4,119.93834803620194,
8,9,1,2,0.25,1.0,2,0.444444444444444,1.0,2,0.111111111111111,0.298245614035088,ReadingArea_rsl2-rcl25-esl100-rsm2-rcm44-esm100-rsr2-rcr11-esr29,exr/ReadingArea_rsl2-rcl25-esl100-rsm2-rcm44-esm100-rsr2-rcr11-esr29.exr,ReadingArea_rsl2-rcl25-esl100-rsm2-rcm44-esm100-rsr2-rcr11-esr29.npz,,,,,0,113,113,266,,left,green,2.21,363.53667402267456,363.9672040939331,2,,1,8,lightness,readingArea,realistic,75,2023-03-31_13h43.01.343,tripletExp_regina_11082022,2022.2.4,119.93834803620194,
13,6,4,2,0.111111111111111,3.10526315789474,2,0.027777777777778,1.0,2,0.694444444444444,0.298245614035088,ReadingArea_rsl2-rcl11-esl310-rsm2-rcm2-esm100-rsr2-rcr69-esr29,exr/ReadingArea_rsl2-rcl11-esl310-rsm2-rcm2-esm100-rsr2-rcr69-esr29.exr,ReadingArea_rsl2-rcl11-esl310-rsm2-rcm2-esm100-rsr2-rcr69-esr29.npz,,,,,0,114,114,328,,left,green,0.9,365.6851420402527,,2,,1,8,lightness,readingArea,realistic,75,2023-03-31_13h43.01.343,tripletExp_regina_11082022,2022.2.4,119.93834803620194,
14,12,10,2,0.25,3.10526315789474,2,0.027777777777778,3.10526315789474,2,0.694444444444444,1.0,ReadingArea_rsl2-rcl25-esl310-rsm2-rcm2-esm310-rsr2-rcr69-esr100,exr/ReadingArea_rsl2-rcl25-esl310-rsm2-rcm2-esm310-rsr2-rcr69-esr100.exr,ReadingArea_rsl2-rcl25-esl310-rsm2-rcm2-esm310-rsr2-rcr69-esr100.npz,,,,,0,115,115,331,,left,green,0.87,367.834489107132,368.25799012184143,2,,1,8,lightness,readingArea,realistic,75,2023-03-31_13h43.01.343,tripletExp_regina_11082022,2022.2.4,119.93834803620194,
10,14,13,2,0.694444444444444,1.0,2,0.25,3.10526315789474,2,0.111111111111111,3.10526315789474,ReadingArea_rsl2-rcl69-esl100-rsm2-rcm25-esm310-rsr2-rcr11-esr310,exr/ReadingArea_rsl2-rcl69-esl100-rsm2-rcm25-esm310-rsr2-rcr11-esr310.exr,ReadingArea_rsl2-rcl69-esl100-rsm2-rcm25-esm310-rsr2-rcr11-esr310.npz,,,,,0,116,116,168,,left,green,2.12,371.74366307258606,372.2651281356812,2,,1,8,lightness,readingArea,realistic,75,2023-03-31_13h43.01.343,tripletExp_regina_11082022,2022.2.4,119.93834803620194,
13,4,12,2,0.111111111111111,3.10526315789474,2,0.694444444444444,0.298245614035088,2,0.027777777777778,3.10526315789474,ReadingArea_rsl2-rcl11-esl310-rsm2-rcm69-esm29-rsr2-rcr2-esr310,exr/ReadingArea_rsl2-rcl11-esl310-rsm2-rcm69-esm29-rsr2-rcr2-esr310.exr,ReadingArea_rsl2-rcl11-esl310-rsm2-rcm69-esm29-rsr2-rcr2-esr310.npz,,,,,0,117,117,122,,left,green,0.75,373.96670293807983,374.423712015152,2,,1,8,lightness,readingArea,realistic,75,2023-03-31_13h43.01.343,tripletExp_regina_11082022,2022.2.4,119.93834803620194,
6,1,9,2,0.027777777777778,1.0,2,0.111111111111111,0.298245614035088,2,0.444444444444444,1.0,ReadingArea_rsl2-rcl2-esl100-rsm2-rcm11-esm29-rsr2-rcr44-esr100,exr/ReadingArea_rsl2-rcl2-esl100-rsm2-rcm11-esm29-rsr2-rcr44-esr100.exr,ReadingArea_rsl2-rcl2-esl100-rsm2-rcm11-esm29-rsr2-rcr44-esr100.npz,,,,,0,118,118,74,,left,green,0.66,376.15263509750366,376.5795569419861,2,,1,8,lightness,readingArea,realistic,75,2023-03-31_13h43.01.343,tripletExp_regina_11082022,2022.2.4,119.93834803620194,
12,9,13,2,0.027777777777778,3.10526315789474,2,0.444444444444444,1.0,2,0.111111111111111,3.10526315789474,ReadingArea_rsl2-rcl2-esl310-rsm2-rcm44-esm100-rsr2-rcr11-esr310,exr/ReadingArea_rsl2-rcl2-esl310-rsm2-rcm44-esm100-rsr2-rcr11-esr310.exr,ReadingArea_rsl2-rcl2-esl310-rsm2-rcm44-esm100-rsr2-rcr11-esr310.npz,,,,,0,119,119,529,,right,red,0.79,378.27049112319946,,2,,1,8,lightness,readingArea,realistic,75,2023-03-31_13h43.01.343,tripletExp_regina_11082022,2022.2.4,119.93834803620194,
5,9,12,2,1.0,0.298245614035088,2,0.444444444444444,1.0,2,0.027777777777778,3.10526315789474,ReadingArea_rsl2-rcl100-esl29-rsm2-rcm44-esm100-rsr2-rcr2-esr310,exr/ReadingArea_rsl2-rcl100-esl29-rsm2-rcm44-esm100-rsr2-rcr2-esr310.exr,ReadingArea_rsl2-rcl100-esl29-rsm2-rcm44-esm100-rsr2-rcr2-esr310.npz,,,,,0,120,120,539,,left,green,0.82,380.42234802246094,380.85601592063904,2,,1,8,lightness,readingArea,realistic,75,2023-03-31_13h43.01.343,tripletExp_regina_11082022,2022.2.4,119.93834803620194,
9,0,11,2,0.444444444444444,1.0,2,0.027777777777778,0.298245614035088,2,1.0,1.0,ReadingArea_rsl2-rcl44-esl100-rsm2-rcm2-esm29-rsr2-rcr100-esr100,exr/ReadingArea_rsl2-rcl44-esl100-rsm2-rcm2-esm29-rsr2-rcr100-esr100.exr,ReadingArea_rsl2-rcl44-esl100-rsm2-rcm2-esm29-rsr2-rcr100-esr100.npz,,,,,0,121,121,319,,left,green,0.91,382.556174993515,382.9877419471741,2,,1,8,lightness,readingArea,realistic,75,2023-03-31_13h43.01.343,tripletExp_regina_11082022,2022.2.4,119.93834803620194,
14,5,10,2,0.25,3.10526315789474,2,1.0,0.298245614035088,2,0.694444444444444,1.0,ReadingArea_rsl2-rcl25-esl310-rsm2-rcm100-esm29-rsr2-rcr69-esr100,exr/ReadingArea_rsl2-rcl25-esl310-rsm2-rcm100-esm29-rsr2-rcr69-esr100.exr,ReadingArea_rsl2-rcl25-esl310-rsm2-rcm100-esm29-rsr2-rcr69-esr100.npz,,,,,0,122,122,170,,right,red,2.8,386.4687840938568,386.8991289138794,2,,1,8,lightness,readingArea,realistic,75,2023-03-31_13h43.01.343,tripletExp_regina_11082022,2022.2.4,119.93834803620194,
1,14,8,2,0.111111111111111,0.298245614035088,2,0.25,3.10526315789474,2,0.25,1.0,ReadingArea_rsl2-rcl11-esl29-rsm2-rcm25-esm310-rsr2-rcr25-esr100,exr/ReadingArea_rsl2-rcl11-esl29-rsm2-rcm25-esm310-rsr2-rcr25-esr100.exr,ReadingArea_rsl2-rcl11-esl29-rsm2-rcm25-esm310-rsr2-rcr25-esr100.npz,,,,,0,123,123,108,,right,red,1.01,388.58898091316223,,2,,1,8,lightness,readingArea,realistic,75,2023-03-31_13h43.01.343,tripletExp_regina_11082022,2022.2.4,119.93834803620194,
12,11,13,2,0.027777777777778,3.10526315789474,2,1.0,1.0,2,0.111111111111111,3.10526315789474,ReadingArea_rsl2-rcl2-esl310-rsm2-rcm100-esm100-rsr2-rcr11-esr310,exr/ReadingArea_rsl2-rcl2-esl310-rsm2-rcm100-esm100-rsr2-rcr11-esr310.exr,ReadingArea_rsl2-rcl2-esl310-rsm2-rcm100-esm100-rsr2-rcr11-esr310.npz,,,,,0,124,124,151,,right,red,0.9,390.73897409439087,,2,,1,8,lightness,readingArea,realistic,75,2023-03-31_13h43.01.343,tripletExp_regina_11082022,2022.2.4,119.93834803620194,
2,1,12,2,0.25,0.298245614035088,2,0.111111111111111,0.298245614035088,2,0.027777777777778,3.10526315789474,ReadingArea_rsl2-rcl25-esl29-rsm2-rcm11-esm29-rsr2-rcr2-esr310,exr/ReadingArea_rsl2-rcl25-esl29-rsm2-rcm11-esm29-rsr2-rcr2-esr310.exr,ReadingArea_rsl2-rcl25-esl29-rsm2-rcm11-esm29-rsr2-rcr2-esr310.npz,,,,,0,125,125,12,,right,red,0.82,392.8624451160431,393.2891979217529,2,,1,8,lightness,readingArea,realistic,75,2023-03-31_13h43.01.343,tripletExp_regina_11082022,2022.2.4,119.93834803620194,
5,0,10,2,1.0,0.298245614035088,2,0.027777777777778,0.298245614035088,2,0.694444444444444,1.0,ReadingArea_rsl2-rcl100-esl29-rsm2-rcm2-esm29-rsr2-rcr69-esr100,exr/ReadingArea_rsl2-rcl100-esl29-rsm2-rcm2-esm29-rsr2-rcr69-esr100.exr,ReadingArea_rsl2-rcl100-esl29-rsm2-rcm2-esm29-rsr2-rcr69-esr100.npz,,,,,0,126,126,361,,left,green,0.92,395.0132720470429,395.4389259815216,2,,1,8,lightness,readingArea,realistic,75,2023-03-31_13h43.01.343,tripletExp_regina_11082022,2022.2.4,119.93834803620194,
12,8,9,2,0.027777777777778,3.10526315789474,2,0.25,1.0,2,0.444444444444444,1.0,ReadingArea_rsl2-rcl2-esl310-rsm2-rcm25-esm100-rsr2-rcr44-esr100,exr/ReadingArea_rsl2-rcl2-esl310-rsm2-rcm25-esm100-rsr2-rcr44-esr100.exr,ReadingArea_rsl2-rcl2-esl310-rsm2-rcm25-esm100-rsr2-rcr44-esr100.npz,,,,,0,127,127,517,,right,red,2.17,398.88646602630615,399.3145670890808,2,,1,8,lightness,readingArea,realistic,75,2023-03-31_13h43.01.343,tripletExp_regina_11082022,2022.2.4,119.93834803620194,
12,6,2,2,0.027777777777778,3.10526315789474,2,0.027777777777778,1.0,2,0.25,0.298245614035088,ReadingArea_rsl2-rcl2-esl310-rsm2-rcm2-esm100-rsr2-rcr25-esr29,exr/ReadingArea_rsl2-rcl2-esl310-rsm2-rcm2-esm100-rsr2-rcr25-esr29.exr,ReadingArea_rsl2-rcl2-esl310-rsm2-rcm2-esm100-rsr2-rcr25-esr29.npz,,,,,0,128,128,106,,left,green,0.64,401.0290069580078,401.4548699855805,2,,1,8,lightness,readingArea,realistic,75,2023-03-31_13h43.01.343,tripletExp_regina_11082022,2022.2.4,119.93834803620194,
13,3,14,2,0.111111111111111,3.10526315789474,2,0.444444444444444,0.298245614035088,2,0.25,3.10526315789474,ReadingArea_rsl2-rcl11-esl310-rsm2-rcm44-esm29-rsr2-rcr25-esr310,exr/ReadingArea_rsl2-rcl11-esl310-rsm2-rcm44-esm29-rsr2-rcr25-esr310.exr,ReadingArea_rsl2-rcl11-esl310-rsm2-rcm44-esm29-rsr2-rcr25-esr310.npz,,,,,0,129,129,38,,left,green,1.08,403.1699650287628,403.597326040268,2,,1,8,lightness,readingArea,realistic,75,2023-03-31_13h43.01.343,tripletExp_regina_11082022,2022.2.4,119.93834803620194,
10,11,12,2,0.694444444444444,1.0,2,1.0,1.0,2,0.027777777777778,3.10526315789474,ReadingArea_rsl2-rcl69-esl100-rsm2-rcm100-esm100-rsr2-rcr2-esr310,exr/ReadingArea_rsl2-rcl69-esl100-rsm2-rcm100-esm100-rsr2-rcr2-esr310.exr,ReadingArea_rsl2-rcl69-esl100-rsm2-rcm100-esm100-rsr2-rcr2-esr310.npz,,,,,0,130,130,533,,left,green,0.61,405.311429977417,405.7382209300995,2,,1,8,lightness,readingArea,realistic,75,2023-03-31_13h43.01.343,tripletExp_regina_11082022,2022.2.4,119.93834803620194,
1,12,6,2,0.111111111111111,0.298245614035088,2,0.027777777777778,3.10526315789474,2,0.027777777777778,1.0,ReadingArea_rsl2-rcl11-esl29-rsm2-rcm2-esm310-rsr2-rcr2-esr100,exr/ReadingArea_rsl2-rcl11-esl29-rsm2-rcm2-esm310-rsr2-rcr2-esr100.exr,ReadingArea_rsl2-rcl11-esl29-rsm2-rcm2-esm310-rsr2-rcr2-esr100.npz,,,,,0,131,131,277,,right,red,0.96,407.4541110992432,407.8828759193421,2,,1,8,lightness,readingArea,realistic,75,2023-03-31_13h43.01.343,tripletExp_regina_11082022,2022.2.4,119.93834803620194,
13,12,11,2,0.111111111111111,3.10526315789474,2,0.027777777777778,3.10526315789474,2,1.0,1.0,ReadingArea_rsl2-rcl11-esl310-rsm2-rcm2-esm310-rsr2-rcr100-esr100,exr/ReadingArea_rsl2-rcl11-esl310-rsm2-rcm2-esm310-rsr2-rcr100-esr100.exr,ReadingArea_rsl2-rcl11-esl310-rsm2-rcm2-esm310-rsr2-rcr100-esr100.npz,,,,,0,132,132,441,,left,green,0.74,409.5777199268341,410.0089390277863,2,,1,8,lightness,readingArea,realistic,75,2023-03-31_13h43.01.343,tripletExp_regina_11082022,2022.2.4,119.93834803620194,
3,9,0,2,0.444444444444444,0.298245614035088,2,0.444444444444444,1.0,2,0.027777777777778,0.298245614035088,ReadingArea_rsl2-rcl44-esl29-rsm2-rcm44-esm100-rsr2-rcr2-esr29,exr/ReadingArea_rsl2-rcl44-esl29-rsm2-rcm44-esm100-rsr2-rcr2-esr29.exr,ReadingArea_rsl2-rcl44-esl29-rsm2-rcm44-esm100-rsr2-rcr2-esr29.npz,,,,,0,133,133,551,,left,green,0.57,411.7331941127777,412.1805109977722,2,,1,8,lightness,readingArea,realistic,75,2023-03-31_13h43.01.343,tripletExp_regina_11082022,2022.2.4,119.93834803620194,
14,6,2,2,0.25,3.10526315789474,2,0.027777777777778,1.0,2,0.25,0.298245614035088,ReadingArea_rsl2-rcl25-esl310-rsm2-rcm2-esm100-rsr2-rcr25-esr29,exr/ReadingArea_rsl2-rcl25-esl310-rsm2-rcm2-esm100-rsr2-rcr25-esr29.exr,ReadingArea_rsl2-rcl25-esl310-rsm2-rcm2-esm100-rsr2-rcr25-esr29.npz,,,,,0,134,134,272,,right,red,0.78,413.8982050418854,414.3233940601349,2,,1,8,lightness,readingArea,realistic,75,2023-03-31_13h43.01.343,tripletExp_regina_11082022,2022.2.4,119.93834803620194,
13,10,12,2,0.111111111111111,3.10526315789474,2,0.694444444444444,1.0,2,0.027777777777778,3.10526315789474,ReadingArea_rsl2-rcl11-esl310-rsm2-rcm69-esm100-rsr2-rcr2-esr310,exr/ReadingArea_rsl2-rcl11-esl310-rsm2-rcm69-esm100-rsr2-rcr2-esr310.exr,ReadingArea_rsl2-rcl11-esl310-rsm2-rcm69-esm100-rsr2-rcr2-esr310.npz,,,,,0,135,135,384,,left,green,0.64,416.0483629703522,416.4765539169312,2,,1,8,lightness,readingArea,realistic,75,2023-03-31_13h43.01.343,tripletExp_regina_11082022,2022.2.4,119.93834803620194,
9,6,14,2,0.444444444444444,1.0,2,0.027777777777778,1.0,2,0.25,3.10526315789474,ReadingArea_rsl2-rcl44-esl100-rsm2-rcm2-esm100-rsr2-rcr25-esr310,exr/ReadingArea_rsl2-rcl44-esl100-rsm2-rcm2-esm100-rsr2-rcr25-esr310.exr,ReadingArea_rsl2-rcl44-esl100-rsm2-rcm2-esm100-rsr2-rcr25-esr310.npz,,,,,0,136,136,213,,left,green,0.76,418.1672179698944,418.5942180156708,2,,1,8,lightness,readingArea,realistic,75,2023-03-31_13h43.01.343,tripletExp_regina_11082022,2022.2.4,119.93834803620194,
2,8,4,2,0.25,0.298245614035088,2,0.25,1.0,2,0.694444444444444,0.298245614035088,ReadingArea_rsl2-rcl25-esl29-rsm2-rcm25-esm100-rsr2-rcr69-esr29,exr/ReadingArea_rsl2-rcl25-esl29-rsm2-rcm25-esm100-rsr2-rcr69-esr29.exr,ReadingArea_rsl2-rcl25-esl29-rsm2-rcm25-esm100-rsr2-rcr69-esr29.npz,,,,,0,137,137,507,,right,red,2.32,422.0646240711212,422.49645590782166,2,,1,8,lightness,readingArea,realistic,75,2023-03-31_13h43.01.343,tripletExp_regina_11082022,2022.2.4,119.93834803620194,
7,10,5,2,0.111111111111111,1.0,2,0.694444444444444,1.0,2,1.0,0.298245614035088,ReadingArea_rsl2-rcl11-esl100-rsm2-rcm69-esm100-rsr2-rcr100-esr29,exr/ReadingArea_rsl2-rcl11-esl100-rsm2-rcm69-esm100-rsr2-rcr100-esr29.exr,ReadingArea_rsl2-rcl11-esl100-rsm2-rcm69-esm100-rsr2-rcr100-esr29.npz,,,,,0,138,138,395,,right,red,0.58,424.18952202796936,424.6229479312897,2,,1,8,lightness,readingArea,realistic,75,2023-03-31_13h43.01.343,tripletExp_regina_11082022,2022.2.4,119.93834803620194,
14,2,6,2,0.25,3.10526315789474,2,0.25,0.298245614035088,2,0.027777777777778,1.0,ReadingArea_rsl2-rcl25-esl310-rsm2-rcm25-esm29-rsr2-rcr2-esr100,exr/ReadingArea_rsl2-rcl25-esl310-rsm2-rcm25-esm29-rsr2-rcr2-esr100.exr,ReadingArea_rsl2-rcl25-esl310-rsm2-rcm25-esm29-rsr2-rcr2-esr100.npz,,,,,0,139,139,350,,right,red,0.61,426.31862211227417,426.7456519603729,2,,1,8,lightness,readingArea,realistic,75,2023-03-31_13h43.01.343,tripletExp_regina_11082022,2022.2.4,119.93834803620194,
11,12,2,2,1.0,1.0,2,0.027777777777778,3.10526315789474,2,0.25,0.298245614035088,ReadingArea_rsl2-rcl100-esl100-rsm2-rcm2-esm310-rsr2-rcr25-esr29,exr/ReadingArea_rsl2-rcl100-esl100-rsm2-rcm2-esm310-rsr2-rcr25-esr29.exr,ReadingArea_rsl2-rcl100-esl100-rsm2-rcm2-esm310-rsr2-rcr25-esr29.npz,,,,,0,140,140,423,,right,red,0.68,428.453351020813,,2,,1,8,lightness,readingArea,realistic,75,2023-03-31_13h43.01.343,tripletExp_regina_11082022,2022.2.4,119.93834803620194,
9,12,0,2,0.444444444444444,1.0,2,0.027777777777778,3.10526315789474,2,0.027777777777778,0.298245614035088,ReadingArea_rsl2-rcl44-esl100-rsm2-rcm2-esm310-rsr2-rcr2-esr29,exr/ReadingArea_rsl2-rcl44-esl100-rsm2-rcm2-esm310-rsr2-rcr2-esr29.exr,ReadingArea_rsl2-rcl44-esl100-rsm2-rcm2-esm310-rsr2-rcr2-esr29.npz,,,,,0,141,141,175,,right,red,0.82,430.58969712257385,431.0217399597168,2,,1,8,lightness,readingArea,realistic,75,2023-03-31_13h43.01.343,tripletExp_regina_11082022,2022.2.4,119.93834803620194,
0,5,2,2,0.027777777777778,0.298245614035088,2,1.0,0.298245614035088,2,0.25,0.298245614035088,ReadingArea_rsl2-rcl2-esl29-rsm2-rcm100-esm29-rsr2-rcr25-esr29,exr/ReadingArea_rsl2-rcl2-esl29-rsm2-rcm100-esm29-rsr2-rcr25-esr29.exr,ReadingArea_rsl2-rcl2-esl29-rsm2-rcm100-esm29-rsr2-rcr25-esr29.npz,,,,,0,142,142,25,,right,red,0.64,432.71164894104,433.1390759944916,2,,1,8,lightness,readingArea,realistic,75,2023-03-31_13h43.01.343,tripletExp_regina_11082022,2022.2.4,119.93834803620194,
11,12,10,2,1.0,1.0,2,0.027777777777778,3.10526315789474,2,0.694444444444444,1.0,ReadingArea_rsl2-rcl100-esl100-rsm2-rcm2-esm310-rsr2-rcr69-esr100,exr/ReadingArea_rsl2-rcl100-esl100-rsm2-rcm2-esm310-rsr2-rcr69-esr100.exr,ReadingArea_rsl2-rcl100-esl100-rsm2-rcm2-esm310-rsr2-rcr69-esr100.npz,,,,,0,143,143,465,,right,red,0.8,434.8329291343689,435.2602159976959,2,,1,8,lightness,readingArea,realistic,75,2023-03-31_13h43.01.343,tripletExp_regina_11082022,2022.2.4,119.93834803620194,
4,7,5,2,0.694444444444444,0.298245614035088,2,0.111111111111111,1.0,2,1.0,0.298245614035088,ReadingArea_rsl2-rcl69-esl29-rsm2-rcm11-esm100-rsr2-rcr100-esr29,exr/ReadingArea_rsl2-rcl69-esl29-rsm2-rcm11-esm100-rsr2-rcr100-esr29.exr,ReadingArea_rsl2-rcl69-esl29-rsm2-rcm11-esm100-rsr2-rcr100-esr29.npz,,,,,0,144,144,195,,left,green,0.82,436.9699149131775,437.3948700428009,2,,1,8,lightness,readingArea,realistic,75,2023-03-31_13h43.01.343,tripletExp_regina_11082022,2022.2.4,119.93834803620194,
10,11,5,2,0.694444444444444,1.0,2,1.0,1.0,2,1.0,0.298245614035088,ReadingArea_rsl2-rcl69-esl100-rsm2-rcm100-esm100-rsr2-rcr100-esr29,exr/ReadingArea_rsl2-rcl69-esl100-rsm2-rcm100-esm100-rsr2-rcr100-esr29.exr,ReadingArea_rsl2-rcl69-esl100-rsm2-rcm100-esm100-rsr2-rcr100-esr29.npz,,,,,0,145,145,514,,left,green,0.9,439.1151480674744,439.5532410144806,2,,1,8,lightness,readingArea,realistic,75,2023-03-31_13h43.01.343,tripletExp_regina_11082022,2022.2.4,119.93834803620194,
7,4,6,2,0.111111111111111,1.0,2,0.694444444444444,0.298245614035088,2,0.027777777777778,1.0,ReadingArea_rsl2-rcl11-esl100-rsm2-rcm69-esm29-rsr2-rcr2-esr100,exr/ReadingArea_rsl2-rcl11-esl100-rsm2-rcm69-esm29-rsr2-rcr2-esr100.exr,ReadingArea_rsl2-rcl11-esl100-rsm2-rcm69-esm29-rsr2-rcr2-esr100.npz,,,,,0,146,146,528,,left,green,1.01,441.2525110244751,441.67875504493713,2,,1,8,lightness,readingArea,realistic,75,2023-03-31_13h43.01.343,tripletExp_regina_11082022,2022.2.4,119.93834803620194,
2,3,6,2,0.25,0.298245614035088,2,0.444444444444444,0.298245614035088,2,0.027777777777778,1.0,ReadingArea_rsl2-rcl25-esl29-rsm2-rcm44-esm29-rsr2-rcr2-esr100,exr/ReadingArea_rsl2-rcl25-esl29-rsm2-rcm44-esm29-rsr2-rcr2-esr100.exr,ReadingArea_rsl2-rcl25-esl29-rsm2-rcm44-esm29-rsr2-rcr2-esr100.npz,,,,,0,147,147,357,,left,green,0.67,443.4018309116364,443.8343739509583,2,,1,8,lightness,readingArea,realistic,75,2023-03-31_13h43.01.343,tripletExp_regina_11082022,2022.2.4,119.93834803620194,
6,0,14,2,0.027777777777778,1.0,2,0.027777777777778,0.298245614035088,2,0.25,3.10526315789474,ReadingArea_rsl2-rcl2-esl100-rsm2-rcm2-esm29-rsr2-rcr25-esr310,exr/ReadingArea_rsl2-rcl2-esl100-rsm2-rcm2-esm29-rsr2-rcr25-esr310.exr,ReadingArea_rsl2-rcl2-esl100-rsm2-rcm2-esm29-rsr2-rcr25-esr310.npz,,,,,0,148,148,169,,left,green,0.58,445.526773929596,445.9613540172577,2,,1,8,lightness,readingArea,realistic,75,2023-03-31_13h43.01.343,tripletExp_regina_11082022,2022.2.4,119.93834803620194,
8,1,10,2,0.25,1.0,2,0.111111111111111,0.298245614035088,2,0.694444444444444,1.0,ReadingArea_rsl2-rcl25-esl100-rsm2-rcm11-esm29-rsr2-rcr69-esr100,exr/ReadingArea_rsl2-rcl25-esl100-rsm2-rcm11-esm29-rsr2-rcr69-esr100.exr,ReadingArea_rsl2-rcl25-esl100-rsm2-rcm11-esm29-rsr2-rcr69-esr100.npz,,,,,0,149,149,442,,left,green,0.76,447.6560990810394,447.85532212257385,2,,1,8,lightness,readingArea,realistic,75,2023-03-31_13h43.01.343,tripletExp_regina_11082022,2022.2.4,119.93834803620194,
14,6,13,2,0.25,3.10526315789474,2,0.027777777777778,1.0,2,0.111111111111111,3.10526315789474,ReadingArea_rsl2-rcl25-esl310-rsm2-rcm2-esm100-rsr2-rcr11-esr310,exr/ReadingArea_rsl2-rcl25-esl310-rsm2-rcm2-esm100-rsr2-rcr11-esr310.exr,ReadingArea_rsl2-rcl25-esl310-rsm2-rcm2-esm100-rsr2-rcr11-esr310.npz,,,,,0,150,150,91,,right,red,2.19,566.606724023819,567.0450739860535,3,,1,8,lightness,readingArea,realistic,75,2023-03-31_13h43.01.343,tripletExp_regina_11082022,2022.2.4,119.93834803620194,
14,2,0,2,0.25,3.10526315789474,2,0.25,0.298245614035088,2,0.027777777777778,0.298245614035088,ReadingArea_rsl2-rcl25-esl310-rsm2-rcm25-esm29-rsr2-rcr2-esr29,exr/ReadingArea_rsl2-rcl25-esl310-rsm2-rcm25-esm29-rsr2-rcr2-esr29.exr,ReadingArea_rsl2-rcl25-esl310-rsm2-rcm25-esm29-rsr2-rcr2-esr29.npz,,,,,0,151,151,460,,right,red,0.89,568.7459590435028,569.2767291069031,3,,1,8,lightness,readingArea,realistic,75,2023-03-31_13h43.01.343,tripletExp_regina_11082022,2022.2.4,119.93834803620194,
2,9,8,2,0.25,0.298245614035088,2,0.444444444444444,1.0,2,0.25,1.0,ReadingArea_rsl2-rcl25-esl29-rsm2-rcm44-esm100-rsr2-rcr25-esr100,exr/ReadingArea_rsl2-rcl25-esl29-rsm2-rcm44-esm100-rsr2-rcr25-esr100.exr,ReadingArea_rsl2-rcl25-esl29-rsm2-rcm44-esm100-rsr2-rcr25-esr100.npz,,,,,0,152,152,407,,right,red,0.76,570.9643709659576,571.3935699462891,3,,1,8,lightness,readingArea,realistic,75,2023-03-31_13h43.01.343,tripletExp_regina_11082022,2022.2.4,119.93834803620194,
8,1,3,2,0.25,1.0,2,0.111111111111111,0.298245614035088,2,0.444444444444444,0.298245614035088,ReadingArea_rsl2-rcl25-esl100-rsm2-rcm11-esm29-rsr2-rcr44-esr29,exr/ReadingArea_rsl2-rcl25-esl100-rsm2-rcm11-esm29-rsr2-rcr44-esr29.exr,ReadingArea_rsl2-rcl25-esl100-rsm2-rcm11-esm29-rsr2-rcr44-esr29.npz,,,,,0,153,153,490,,right,red,1.1,573.087014913559,573.6260180473328,3,,1,8,lightness,readingArea,realistic,75,2023-03-31_13h43.01.343,tripletExp_regina_11082022,2022.2.4,119.93834803620194,
12,9,11,2,0.027777777777778,3.10526315789474,2,0.444444444444444,1.0,2,1.0,1.0,ReadingArea_rsl2-rcl2-esl310-rsm2-rcm44-esm100-rsr2-rcr100-esr100,exr/ReadingArea_rsl2-rcl2-esl310-rsm2-rcm44-esm100-rsr2-rcr100-esr100.exr,ReadingArea_rsl2-rcl2-esl310-rsm2-rcm44-esm100-rsr2-rcr100-esr100.npz,,,,,0,154,154,18,,right,red,0.62,575.3199729919434,575.7541379928589,3,,1,8,lightness,readingArea,realistic,75,2023-03-31_13h43.01.343,tripletExp_regina_11082022,2022.2.4,119.93834803620194,
5,10,12,2,1.0,0.298245614035088,2,0.694444444444444,1.0,2,0.027777777777778,3.10526315789474,ReadingArea_rsl2-rcl100-esl29-rsm2-rcm69-esm100-rsr2-rcr2-esr310,exr/ReadingArea_rsl2-rcl100-esl29-rsm2-rcm69-esm100-rsr2-rcr2-esr310.exr,ReadingArea_rsl2-rcl100-esl29-rsm2-rcm69-esm100-rsr2-rcr2-esr310.npz,,,,,0,155,155,587,,left,green,0.56,577.4469819068909,577.8794009685516,3,,1,8,lightness,readingArea,realistic,75,2023-03-31_13h43.01.343,tripletExp_regina_11082022,2022.2.4,119.93834803620194,
10,7,8,2,0.694444444444444,1.0,2,0.111111111111111,1.0,2,0.25,1.0,ReadingArea_rsl2-rcl69-esl100-rsm2-rcm11-esm100-rsr2-rcr25-esr100,exr/ReadingArea_rsl2-rcl69-esl100-rsm2-rcm11-esm100-rsr2-rcr25-esr100.exr,ReadingArea_rsl2-rcl69-esl100-rsm2-rcm11-esm100-rsr2-rcr25-esr100.npz,,,,,0,156,156,57,,right,red,0.54,579.5770359039307,,3,,1,8,lightness,readingArea,realistic,75,2023-03-31_13h43.01.343,tripletExp_regina_11082022,2022.2.4,119.93834803620194,
12,9,2,2,0.027777777777778,3.10526315789474,2,0.444444444444444,1.0,2,0.25,0.298245614035088,ReadingArea_rsl2-rcl2-esl310-rsm2-rcm44-esm100-rsr2-rcr25-esr29,exr/ReadingArea_rsl2-rcl2-esl310-rsm2-rcm44-esm100-rsr2-rcr25-esr29.exr,ReadingArea_rsl2-rcl2-esl310-rsm2-rcm44-esm100-rsr2-rcr25-esr29.npz,,,,,0,157,157,226,,right,red,0.7,581.7170050144196,582.150778055191,3,,1,8,lightness,readingArea,realistic,75,2023-03-31_13h43.01.343,tripletExp_regina_11082022,2022.2.4,119.93834803620194,
6,1,2,2,0.027777777777778,1.0,2,0.111111111111111,0.298245614035088,2,0.25,0.298245614035088,ReadingArea_rsl2-rcl2-esl100-rsm2-rcm11-esm29-rsr2-rcr25-esr29,exr/ReadingArea_rsl2-rcl2-esl100-rsm2-rcm11-esm29-rsr2-rcr25-esr29.exr,ReadingArea_rsl2-rcl2-esl100-rsm2-rcm11-esm29-rsr2-rcr25-esr29.npz,,,,,0,158,158,68,,right,red,0.68,583.8531489372253,,3,,1,8,lightness,readingArea,realistic,75,2023-03-31_13h43.01.343,tripletExp_regina_11082022,2022.2.4,119.93834803620194,
13,10,9,2,0.111111111111111,3.10526315789474,2,0.694444444444444,1.0,2,0.444444444444444,1.0,ReadingArea_rsl2-rcl11-esl310-rsm2-rcm69-esm100-rsr2-rcr44-esr100,exr/ReadingArea_rsl2-rcl11-esl310-rsm2-rcm69-esm100-rsr2-rcr44-esr100.exr,ReadingArea_rsl2-rcl11-esl310-rsm2-rcm69-esm100-rsr2-rcr44-esr100.npz,,,,,0,159,159,330,,right,red,0.69,586.095470905304,586.5315599441528,3,,1,8,lightness,readingArea,realistic,75,2023-03-31_13h43.01.343,tripletExp_regina_11082022,2022.2.4,119.93834803620194,
3,6,11,2,0.444444444444444,0.298245614035088,2,0.027777777777778,1.0,2,1.0,1.0,ReadingArea_rsl2-rcl44-esl29-rsm2-rcm2-esm100-rsr2-rcr100-esr100,exr/ReadingArea_rsl2-rcl44-esl29-rsm2-rcm2-esm100-rsr2-rcr100-esr100.exr,ReadingArea_rsl2-rcl44-esl29-rsm2-rcm2-esm100-rsr2-rcr100-esr100.npz,,,,,0,160,160,155,,left,green,0.84,588.2222099304199,588.6587281227112,3,,1,8,lightness,readingArea,realistic,75,2023-03-31_13h43.01.343,tripletExp_regina_11082022,2022.2.4,119.93834803620194,
7,12,3,2,0.111111111111111,1.0,2,0.027777777777778,3.10526315789474,2,0.444444444444444,0.298245614035088,ReadingArea_rsl2-rcl11-esl100-rsm2-rcm2-esm310-rsr2-rcr44-esr29,exr/ReadingArea_rsl2-rcl11-esl100-rsm2-rcm2-esm310-rsr2-rcr44-esr29.exr,ReadingArea_rsl2-rcl11-esl100-rsm2-rcm2-esm310-rsr2-rcr44-esr29.npz,,,,,0,161,161,584,,left,green,0.7,590.3806800842285,590.8157670497894,3,,1,8,lightness,readingArea,realistic,75,2023-03-31_13h43.01.343,tripletExp_regina_11082022,2022.2.4,119.93834803620194,
3,4,13,2,0.444444444444444,0.298245614035088,2,0.694444444444444,0.298245614035088,2,0.111111111111111,3.10526315789474,ReadingArea_rsl2-rcl44-esl29-rsm2-rcm69-esm29-rsr2-rcr11-esr310,exr/ReadingArea_rsl2-rcl44-esl29-rsm2-rcm69-esm29-rsr2-rcr11-esr310.exr,ReadingArea_rsl2-rcl44-esl29-rsm2-rcm69-esm29-rsr2-rcr11-esr310.npz,,,,,0,162,162,63,,left,green,1.08,592.5063960552216,592.9424169063568,3,,1,8,lightness,readingArea,realistic,75,2023-03-31_13h43.01.343,tripletExp_regina_11082022,2022.2.4,119.93834803620194,
0,13,1,2,0.027777777777778,0.298245614035088,2,0.111111111111111,3.10526315789474,2,0.111111111111111,0.298245614035088,ReadingArea_rsl2-rcl2-esl29-rsm2-rcm11-esm310-rsr2-rcr11-esr29,exr/ReadingArea_rsl2-rcl2-esl29-rsm2-rcm11-esm310-rsr2-rcr11-esr29.exr,ReadingArea_rsl2-rcl2-esl29-rsm2-rcm11-esm310-rsr2-rcr11-esr29.npz,,,,,0,163,163,458,,right,red,0.58,594.6662850379944,595.1035199165344,3,,1,8,lightness,readingArea,realistic,75,2023-03-31_13h43.01.343,tripletExp_regina_11082022,2022.2.4,119.93834803620194,
10,4,9,2,0.694444444444444,1.0,2,0.694444444444444,0.298245614035088,2,0.444444444444444,1.0,ReadingArea_rsl2-rcl69-esl100-rsm2-rcm69-esm29-rsr2-rcr44-esr100,exr/ReadingArea_rsl2-rcl69-esl100-rsm2-rcm69-esm29-rsr2-rcr44-esr100.exr,ReadingArea_rsl2-rcl69-esl100-rsm2-rcm69-esm29-rsr2-rcr44-esr100.npz,,,,,0,164,164,452,,left,green,0.89,596.7990930080414,597.2338910102844,3,,1,8,lightness,readingArea,realistic,75,2023-03-31_13h43.01.343,tripletExp_regina_11082022,2022.2.4,119.93834803620194,
8,14,3,2,0.25,1.0,2,0.25,3.10526315789474,2,0.444444444444444,0.298245614035088,ReadingArea_rsl2-rcl25-esl100-rsm2-rcm25-esm310-rsr2-rcr44-esr29,exr/ReadingArea_rsl2-rcl25-esl100-rsm2-rcm25-esm310-rsr2-rcr44-esr29.exr,ReadingArea_rsl2-rcl25-esl100-rsm2-rcm25-esm310-rsr2-rcr44-esr29.npz,,,,,0,165,165,503,,left,green,0.96,598.9284579753876,599.3583619594574,3,,1,8,lightness,readingArea,realistic,75,2023-03-31_13h43.01.343,tripletExp_regina_11082022,2022.2.4,119.93834803620194,
1,14,0,2,0.111111111111111,0.298245614035088,2,0.25,3.10526315789474,2,0.027777777777778,0.298245614035088,ReadingArea_rsl2-rcl11-esl29-rsm2-rcm25-esm310-rsr2-rcr2-esr29,exr/ReadingArea_rsl2-rcl11-esl29-rsm2-rcm25-esm310-rsr2-rcr2-esr29.exr,ReadingArea_rsl2-rcl11-esl29-rsm2-rcm25-esm310-rsr2-rcr2-esr29.npz,,,,,0,166,166,394,,left,green,2.06,602.8493819236755,603.3363230228424,3,,1,8,lightness,readingArea,realistic,75,2023-03-31_13h43.01.343,tripletExp_regina_11082022,2022.2.4,119.93834803620194,
0,14,10,2,0.027777777777778,0.298245614035088,2,0.25,3.10526315789474,2,0.694444444444444,1.0,ReadingArea_rsl2-rcl2-esl29-rsm2-rcm25-esm310-rsr2-rcr69-esr100,exr/ReadingArea_rsl2-rcl2-esl29-rsm2-rcm25-esm310-rsr2-rcr69-esr100.exr,ReadingArea_rsl2-rcl2-esl29-rsm2-rcm25-esm310-rsr2-rcr69-esr100.npz,,,,,0,167,167,128,,right,red,0.58,605.0317769050598,,3,,1,8,lightness,readingArea,realistic,75,2023-03-31_13h43.01.343,tripletExp_regina_11082022,2022.2.4,119.93834803620194,
5,9,0,2,1.0,0.298245614035088,2,0.444444444444444,1.0,2,0.027777777777778,0.298245614035088,ReadingArea_rsl2-rcl100-esl29-rsm2-rcm44-esm100-rsr2-rcr2-esr29,exr/ReadingArea_rsl2-rcl100-esl29-rsm2-rcm44-esm100-rsr2-rcr2-esr29.exr,ReadingArea_rsl2-rcl100-esl29-rsm2-rcm44-esm100-rsr2-rcr2-esr29.npz,,,,,0,168,168,575,,left,green,0.53,607.1686930656433,607.6066110134125,3,,1,8,lightness,readingArea,realistic,75,2023-03-31_13h43.01.343,tripletExp_regina_11082022,2022.2.4,119.93834803620194,
6,3,13,2,0.027777777777778,1.0,2,0.444444444444444,0.298245614035088,2,0.111111111111111,3.10526315789474,ReadingArea_rsl2-rcl2-esl100-rsm2-rcm44-esm29-rsr2-rcr11-esr310,exr/ReadingArea_rsl2-rcl2-esl100-rsm2-rcm44-esm29-rsr2-rcr11-esr310.exr,ReadingArea_rsl2-rcl2-esl100-rsm2-rcm44-esm29-rsr2-rcr11-esr310.npz,,,,,0,169,169,228,,right,red,0.6,609.2970750331879,609.7311351299286,3,,1,8,lightness,readingArea,realistic,75,2023-03-31_13h43.01.343,tripletExp_regina_11082022,2022.2.4,119.93834803620194,
0,9,14,2,0.027777777777778,0.298245614035088,2,0.444444444444444,1.0,2,0.25,3.10526315789474,ReadingArea_rsl2-rcl2-esl29-rsm2-rcm44-esm100-rsr2-rcr25-esr310,exr/ReadingArea_rsl2-rcl2-esl29-rsm2-rcm44-esm100-rsr2-rcr25-esr310.exr,ReadingArea_rsl2-rcl2-esl29-rsm2-rcm44-esm100-rsr2-rcr25-esr310.npz,,,,,0,170,170,433,,right,red,0.49,611.4477801322937,611.8786370754242,3,,1,8,lightness,readingArea,realistic,75,2023-03-31_13h43.01.343,tripletExp_regina_11082022,2022.2.4,119.93834803620194,
10,7,13,2,0.694444444444444,1.0,2,0.111111111111111,1.0,2,0.111111111111111,3.10526315789474,ReadingArea_rsl2-rcl69-esl100-rsm2-rcm11-esm100-rsr2-rcr11-esr310,exr/ReadingArea_rsl2-rcl69-esl100-rsm2-rcm11-esm100-rsr2-rcr11-esr310.exr,ReadingArea_rsl2-rcl69-esl100-rsm2-rcm11-esm100-rsr2-rcr11-esr310.npz,,,,,0,171,171,379,,right,red,0.57,613.5757429599762,614.0128939151764,3,,1,8,lightness,readingArea,realistic,75,2023-03-31_13h43.01.343,tripletExp_regina_11082022,2022.2.4,119.93834803620194,
11,5,2,2,1.0,1.0,2,1.0,0.298245614035088,2,0.25,0.298245614035088,ReadingArea_rsl2-rcl100-esl100-rsm2-rcm100-esm29-rsr2-rcr25-esr29,exr/ReadingArea_rsl2-rcl100-esl100-rsm2-rcm100-esm29-rsr2-rcr25-esr29.exr,ReadingArea_rsl2-rcl100-esl100-rsm2-rcm100-esm29-rsr2-rcr25-esr29.npz,,,,,0,172,172,596,,left,green,0.78,615.7140989303589,616.1491861343384,3,,1,8,lightness,readingArea,realistic,75,2023-03-31_13h43.01.343,tripletExp_regina_11082022,2022.2.4,119.93834803620194,
5,14,4,2,1.0,0.298245614035088,2,0.25,3.10526315789474,2,0.694444444444444,0.298245614035088,ReadingArea_rsl2-rcl100-esl29-rsm2-rcm25-esm310-rsr2-rcr69-esr29,exr/ReadingArea_rsl2-rcl100-esl29-rsm2-rcm25-esm310-rsr2-rcr69-esr29.exr,ReadingArea_rsl2-rcl100-esl29-rsm2-rcm25-esm310-rsr2-rcr69-esr29.npz,,,,,0,173,173,69,,left,green,1.06,617.8469550609589,618.2836339473724,3,,1,8,lightness,readingArea,realistic,75,2023-03-31_13h43.01.343,tripletExp_regina_11082022,2022.2.4,119.93834803620194,
4,8,0,2,0.694444444444444,0.298245614035088,2,0.25,1.0,2,0.027777777777778,0.298245614035088,ReadingArea_rsl2-rcl69-esl29-rsm2-rcm25-esm100-rsr2-rcr2-esr29,exr/ReadingArea_rsl2-rcl69-esl29-rsm2-rcm25-esm100-rsr2-rcr2-esr29.exr,ReadingArea_rsl2-rcl69-esl29-rsm2-rcm25-esm100-rsr2-rcr2-esr29.npz,,,,,0,174,174,137,,left,green,0.97,619.9775331020355,620.4150910377502,3,,1,8,lightness,readingArea,realistic,75,2023-03-31_13h43.01.343,tripletExp_regina_11082022,2022.2.4,119.93834803620194,
8,6,11,2,0.25,1.0,2,0.027777777777778,1.0,2,1.0,1.0,ReadingArea_rsl2-rcl25-esl100-rsm2-rcm2-esm100-rsr2-rcr100-esr100,exr/ReadingArea_rsl2-rcl25-esl100-rsm2-rcm2-esm100-rsr2-rcr100-esr100.exr,ReadingArea_rsl2-rcl25-esl100-rsm2-rcm2-esm100-rsr2-rcr100-esr100.npz,,,,,0,175,175,236,,left,green,0.75,622.1203770637512,622.5575530529022,3,,1,8,lightness,readingArea,realistic,75,2023-03-31_13h43.01.343,tripletExp_regina_11082022,2022.2.4,119.93834803620194,
14,8,9,2,0.25,3.10526315789474,2,0.25,1.0,2,0.444444444444444,1.0,ReadingArea_rsl2-rcl25-esl310-rsm2-rcm25-esm100-rsr2-rcr44-esr100,exr/ReadingArea_rsl2-rcl25-esl310-rsm2-rcm25-esm100-rsr2-rcr44-esr100.exr,ReadingArea_rsl2-rcl25-esl310-rsm2-rcm25-esm100-rsr2-rcr44-esr100.npz,,,,,0,176,176,518,,right,red,1.11,624.2477650642395,624.6841089725494,3,,1,8,lightness,readingArea,realistic,75,2023-03-31_13h43.01.343,tripletExp_regina_11082022,2022.2.4,119.93834803620194,
5,4,10,2,1.0,0.298245614035088,2,0.694444444444444,0.298245614035088,2,0.694444444444444,1.0,ReadingArea_rsl2-rcl100-esl29-rsm2-rcm69-esm29-rsr2-rcr69-esr100,exr/ReadingArea_rsl2-rcl100-esl29-rsm2-rcm69-esm29-rsr2-rcr69-esr100.exr,ReadingArea_rsl2-rcl100-esl29-rsm2-rcm69-esm29-rsr2-rcr69-esr100.npz,,,,,0,177,177,536,,left,green,0.73,626.3764729499817,,3,,1,8,lightness,readingArea,realistic,75,2023-03-31_13h43.01.343,tripletExp_regina_11082022,2022.2.4,119.93834803620194,
6,4,13,2,0.027777777777778,1.0,2,0.694444444444444,0.298245614035088,2,0.111111111111111,3.10526315789474,ReadingArea_rsl2-rcl2-esl100-rsm2-rcm69-esm29-rsr2-rcr11-esr310,exr/ReadingArea_rsl2-rcl2-esl100-rsm2-rcm69-esm29-rsr2-rcr11-esr310.exr,ReadingArea_rsl2-rcl2-esl100-rsm2-rcm69-esm29-rsr2-rcr11-esr310.npz,,,,,0,178,178,202,,right,red,0.67,628.5323231220245,628.9686191082001,3,,1,8,lightness,readingArea,realistic,75,2023-03-31_13h43.01.343,tripletExp_regina_11082022,2022.2.4,119.93834803620194,
14,7,0,2,0.25,3.10526315789474,2,0.111111111111111,1.0,2,0.027777777777778,0.298245614035088,ReadingArea_rsl2-rcl25-esl310-rsm2-rcm11-esm100-rsr2-rcr2-esr29,exr/ReadingArea_rsl2-rcl25-esl310-rsm2-rcm11-esm100-rsr2-rcr2-esr29.exr,ReadingArea_rsl2-rcl25-esl310-rsm2-rcm11-esm100-rsr2-rcr2-esr29.npz,,,,,0,179,179,412,,right,red,1.05,630.6930179595947,631.1278009414673,3,,1,8,lightness,readingArea,realistic,75,2023-03-31_13h43.01.343,tripletExp_regina_11082022,2022.2.4,119.93834803620194,
2,14,9,2,0.25,0.298245614035088,2,0.25,3.10526315789474,2,0.444444444444444,1.0,ReadingArea_rsl2-rcl25-esl29-rsm2-rcm25-esm310-rsr2-rcr44-esr100,exr/ReadingArea_rsl2-rcl25-esl29-rsm2-rcm25-esm310-rsr2-rcr44-esr100.exr,ReadingArea_rsl2-rcl25-esl29-rsm2-rcm25-esm310-rsr2-rcr44-esr100.npz,,,,,0,180,180,51,,right,red,0.99,632.8188829421997,,3,,1,8,lightness,readingArea,realistic,75,2023-03-31_13h43.01.343,tripletExp_regina_11082022,2022.2.4,119.93834803620194,
14,0,3,2,0.25,3.10526315789474,2,0.027777777777778,0.298245614035088,2,0.444444444444444,0.298245614035088,ReadingArea_rsl2-rcl25-esl310-rsm2-rcm2-esm29-rsr2-rcr44-esr29,exr/ReadingArea_rsl2-rcl25-esl310-rsm2-rcm2-esm29-rsr2-rcr44-esr29.exr,ReadingArea_rsl2-rcl25-esl310-rsm2-rcm2-esm29-rsr2-rcr44-esr29.npz,,,,,0,181,181,75,,right,red,0.73,634.9821000099182,635.4129369258881,3,,1,8,lightness,readingArea,realistic,75,2023-03-31_13h43.01.343,tripletExp_regina_11082022,2022.2.4,119.93834803620194,
10,11,4,2,0.694444444444444,1.0,2,1.0,1.0,2,0.694444444444444,0.298245614035088,ReadingArea_rsl2-rcl69-esl100-rsm2-rcm100-esm100-rsr2-rcr69-esr29,exr/ReadingArea_rsl2-rcl69-esl100-rsm2-rcm100-esm100-rsr2-rcr69-esr29.exr,ReadingArea_rsl2-rcl69-esl100-rsm2-rcm100-esm100-rsr2-rcr69-esr29.npz,,,,,0,182,182,239,,left,green,0.65,637.1084830760956,637.540256023407,3,,1,8,lightness,readingArea,realistic,75,2023-03-31_13h43.01.343,tripletExp_regina_11082022,2022.2.4,119.93834803620194,
3,8,1,2,0.444444444444444,0.298245614035088,2,0.25,1.0,2,0.111111111111111,0.298245614035088,ReadingArea_rsl2-rcl44-esl29-rsm2-rcm25-esm100-rsr2-rcr11-esr29,exr/ReadingArea_rsl2-rcl44-esl29-rsm2-rcm25-esm100-rsr2-rcr11-esr29.exr,ReadingArea_rsl2-rcl44-esl29-rsm2-rcm25-esm100-rsr2-rcr11-esr29.npz,,,,,0,183,183,230,,left,green,0.96,639.2561810016632,639.6935770511627,3,,1,8,lightness,readingArea,realistic,75,2023-03-31_13h43.01.343,tripletExp_regina_11082022,2022.2.4,119.93834803620194,
6,10,11,2,0.027777777777778,1.0,2,0.694444444444444,1.0,2,1.0,1.0,ReadingArea_rsl2-rcl2-esl100-rsm2-rcm69-esm100-rsr2-rcr100-esr100,exr/ReadingArea_rsl2-rcl2-esl100-rsm2-rcm69-esm100-rsr2-rcr100-esr100.exr,ReadingArea_rsl2-rcl2-esl100-rsm2-rcm69-esm100-rsr2-rcr100-esr100.npz,,,,,0,184,184,116,,right,red,1.05,641.4055349826813,641.8469829559326,3,,1,8,lightness,readingArea,realistic,75,2023-03-31_13h43.01.343,tripletExp_regina_11082022,2022.2.4,119.93834803620194,
6,4,10,2,0.027777777777778,1.0,2,0.694444444444444,0.298245614035088,2,0.694444444444444,1.0,ReadingArea_rsl2-rcl2-esl100-rsm2-rcm69-esm29-rsr2-rcr69-esr100,exr/ReadingArea_rsl2-rcl2-esl100-rsm2-rcm69-esm29-rsr2-rcr69-esr100.exr,ReadingArea_rsl2-rcl2-esl100-rsm2-rcm69-esm29-rsr2-rcr69-esr100.npz,,,,,0,185,185,554,,right,red,0.64,643.5421509742737,643.9754331111908,3,,1,8,lightness,readingArea,realistic,75,2023-03-31_13h43.01.343,tripletExp_regina_11082022,2022.2.4,119.93834803620194,
9,13,6,2,0.444444444444444,1.0,2,0.111111111111111,3.10526315789474,2,0.027777777777778,1.0,ReadingArea_rsl2-rcl44-esl100-rsm2-rcm11-esm310-rsr2-rcr2-esr100,exr/ReadingArea_rsl2-rcl44-esl100-rsm2-rcm11-esm310-rsr2-rcr2-esr100.exr,ReadingArea_rsl2-rcl44-esl100-rsm2-rcm11-esm310-rsr2-rcr2-esr100.npz,,,,,0,186,186,13,,left,green,1.04,645.6687121391296,646.0986180305481,3,,1,8,lightness,readingArea,realistic,75,2023-03-31_13h43.01.343,tripletExp_regina_11082022,2022.2.4,119.93834803620194,
2,14,8,2,0.25,0.298245614035088,2,0.25,3.10526315789474,2,0.25,1.0,ReadingArea_rsl2-rcl25-esl29-rsm2-rcm25-esm310-rsr2-rcr25-esr100,exr/ReadingArea_rsl2-rcl25-esl29-rsm2-rcm25-esm310-rsr2-rcr25-esr100.exr,ReadingArea_rsl2-rcl25-esl29-rsm2-rcm25-esm310-rsr2-rcr25-esr100.npz,,,,,0,187,187,255,,right,red,2.06,649.5653009414673,650.0006489753723,3,,1,8,lightness,readingArea,realistic,75,2023-03-31_13h43.01.343,tripletExp_regina_11082022,2022.2.4,119.93834803620194,
7,8,6,2,0.111111111111111,1.0,2,0.25,1.0,2,0.027777777777778,1.0,ReadingArea_rsl2-rcl11-esl100-rsm2-rcm25-esm100-rsr2-rcr2-esr100,exr/ReadingArea_rsl2-rcl11-esl100-rsm2-rcm25-esm100-rsr2-rcr2-esr100.exr,ReadingArea_rsl2-rcl11-esl100-rsm2-rcm25-esm100-rsr2-rcr2-esr100.npz,,,,,0,188,188,387,,left,green,0.63,651.6955740451813,652.1286399364471,3,,1,8,lightness,readingArea,realistic,75,2023-03-31_13h43.01.343,tripletExp_regina_11082022,2022.2.4,119.93834803620194,
8,13,9,2,0.25,1.0,2,0.111111111111111,3.10526315789474,2,0.444444444444444,1.0,ReadingArea_rsl2-rcl25-esl100-rsm2-rcm11-esm310-rsr2-rcr44-esr100,exr/ReadingArea_rsl2-rcl25-esl100-rsm2-rcm11-esm310-rsr2-rcr44-esr100.exr,ReadingArea_rsl2-rcl25-esl100-rsm2-rcm11-esm310-rsr2-rcr44-esr100.npz,,,,,0,189,189,487,,left,green,0.63,653.8212490081787,654.2597000598907,3,,1,8,lightness,readingArea,realistic,75,2023-03-31_13h43.01.343,tripletExp_regina_11082022,2022.2.4,119.93834803620194,
1,3,4,2,0.111111111111111,0.298245614035088,2,0.444444444444444,0.298245614035088,2,0.694444444444444,0.298245614035088,ReadingArea_rsl2-rcl11-esl29-rsm2-rcm44-esm29-rsr2-rcr69-esr29,exr/ReadingArea_rsl2-rcl11-esl29-rsm2-rcm44-esm29-rsr2-rcr69-esr29.exr,ReadingArea_rsl2-rcl11-esl29-rsm2-rcm44-esm29-rsr2-rcr69-esr29.npz,,,,,0,190,190,153,,right,red,0.61,655.9739499092102,656.4128839969635,3,,1,8,lightness,readingArea,realistic,75,2023-03-31_13h43.01.343,tripletExp_regina_11082022,2022.2.4,119.93834803620194,
2,8,7,2,0.25,0.298245614035088,2,0.25,1.0,2,0.111111111111111,1.0,ReadingArea_rsl2-rcl25-esl29-rsm2-rcm25-esm100-rsr2-rcr11-esr100,exr/ReadingArea_rsl2-rcl25-esl29-rsm2-rcm25-esm100-rsr2-rcr11-esr100.exr,ReadingArea_rsl2-rcl25-esl29-rsm2-rcm25-esm100-rsr2-rcr11-esr100.npz,,,,,0,191,191,393,,left,green,0.86,658.1341269016266,658.571212053299,3,,1,8,lightness,readingArea,realistic,75,2023-03-31_13h43.01.343,tripletExp_regina_11082022,2022.2.4,119.93834803620194,
7,13,12,2,0.111111111111111,1.0,2,0.111111111111111,3.10526315789474,2,0.027777777777778,3.10526315789474,ReadingArea_rsl2-rcl11-esl100-rsm2-rcm11-esm310-rsr2-rcr2-esr310,exr/ReadingArea_rsl2-rcl11-esl100-rsm2-rcm11-esm310-rsr2-rcr2-esr310.exr,ReadingArea_rsl2-rcl11-esl100-rsm2-rcm11-esm310-rsr2-rcr2-esr310.npz,,,,,0,192,192,438,,left,green,0.86,660.2963860034943,660.7347729206085,3,,1,8,lightness,readingArea,realistic,75,2023-03-31_13h43.01.343,tripletExp_regina_11082022,2022.2.4,119.93834803620194,
5,8,2,2,1.0,0.298245614035088,2,0.25,1.0,2,0.25,0.298245614035088,ReadingArea_rsl2-rcl100-esl29-rsm2-rcm25-esm100-rsr2-rcr25-esr29,exr/ReadingArea_rsl2-rcl100-esl29-rsm2-rcm25-esm100-rsr2-rcr25-esr29.exr,ReadingArea_rsl2-rcl100-esl29-rsm2-rcm25-esm100-rsr2-rcr25-esr29.npz,,,,,0,193,193,65,,right,red,0.85,662.4368660449982,662.8721721172333,3,,1,8,lightness,readingArea,realistic,75,2023-03-31_13h43.01.343,tripletExp_regina_11082022,2022.2.4,119.93834803620194,
10,6,8,2,0.694444444444444,1.0,2,0.027777777777778,1.0,2,0.25,1.0,ReadingArea_rsl2-rcl69-esl100-rsm2-rcm2-esm100-rsr2-rcr25-esr100,exr/ReadingArea_rsl2-rcl69-esl100-rsm2-rcm2-esm100-rsr2-rcr25-esr100.exr,ReadingArea_rsl2-rcl69-esl100-rsm2-rcm2-esm100-rsr2-rcr25-esr100.npz,,,,,0,194,194,145,,right,red,0.75,664.5789620876312,665.0134499073029,3,,1,8,lightness,readingArea,realistic,75,2023-03-31_13h43.01.343,tripletExp_regina_11082022,2022.2.4,119.93834803620194,
6,0,1,2,0.027777777777778,1.0,2,0.027777777777778,0.298245614035088,2,0.111111111111111,0.298245614035088,ReadingArea_rsl2-rcl2-esl100-rsm2-rcm2-esm29-rsr2-rcr11-esr29,exr/ReadingArea_rsl2-rcl2-esl100-rsm2-rcm2-esm29-rsr2-rcr11-esr29.exr,ReadingArea_rsl2-rcl2-esl100-rsm2-rcm2-esm29-rsr2-rcr11-esr29.npz,,,,,0,195,195,302,,left,green,0.61,666.7197949886322,667.1648459434509,3,,1,8,lightness,readingArea,realistic,75,2023-03-31_13h43.01.343,tripletExp_regina_11082022,2022.2.4,119.93834803620194,
11,8,0,2,1.0,1.0,2,0.25,1.0,2,0.027777777777778,0.298245614035088,ReadingArea_rsl2-rcl100-esl100-rsm2-rcm25-esm100-rsr2-rcr2-esr29,exr/ReadingArea_rsl2-rcl100-esl100-rsm2-rcm25-esm100-rsr2-rcr2-esr29.exr,ReadingArea_rsl2-rcl100-esl100-rsm2-rcm25-esm100-rsr2-rcr2-esr29.npz,,,,,0,196,196,81,,left,green,2.8,670.6283829212189,671.068421125412,3,,1,8,lightness,readingArea,realistic,75,2023-03-31_13h43.01.343,tripletExp_regina_11082022,2022.2.4,119.93834803620194,
14,1,13,2,0.25,3.10526315789474,2,0.111111111111111,0.298245614035088,2,0.111111111111111,3.10526315789474,ReadingArea_rsl2-rcl25-esl310-rsm2-rcm11-esm29-rsr2-rcr11-esr310,exr/ReadingArea_rsl2-rcl25-esl310-rsm2-rcm11-esm29-rsr2-rcr11-esr310.exr,ReadingArea_rsl2-rcl25-esl310-rsm2-rcm11-esm29-rsr2-rcr11-esr310.npz,,,,,0,197,197,265,,right,red,1.0,672.787337064743,673.355437040329,3,,1,8,lightness,readingArea,realistic,75,2023-03-31_13h43.01.343,tripletExp_regina_11082022,2022.2.4,119.93834803620194,
0,7,9,2,0.027777777777778,0.298245614035088,2,0.111111111111111,1.0,2,0.444444444444444,1.0,ReadingArea_rsl2-rcl2-esl29-rsm2-rcm11-esm100-rsr2-rcr44-esr100,exr/ReadingArea_rsl2-rcl2-esl29-rsm2-rcm11-esm100-rsr2-rcr44-esr100.exr,ReadingArea_rsl2-rcl2-esl29-rsm2-rcm11-esm100-rsr2-rcr44-esr100.npz,,,,,0,198,198,463,,right,red,0.89,675.0505599975586,,3,,1,8,lightness,readingArea,realistic,75,2023-03-31_13h43.01.343,tripletExp_regina_11082022,2022.2.4,119.93834803620194,
4,9,13,2,0.694444444444444,0.298245614035088,2,0.444444444444444,1.0,2,0.111111111111111,3.10526315789474,ReadingArea_rsl2-rcl69-esl29-rsm2-rcm44-esm100-rsr2-rcr11-esr310,exr/ReadingArea_rsl2-rcl69-esl29-rsm2-rcm44-esm100-rsr2-rcr11-esr310.exr,ReadingArea_rsl2-rcl69-esl29-rsm2-rcm44-esm100-rsr2-rcr11-esr310.npz,,,,,0,199,199,488,,left,green,0.71,677.1880850791931,677.6283929347992,3,,1,8,lightness,readingArea,realistic,75,2023-03-31_13h43.01.343,tripletExp_regina_11082022,2022.2.4,119.93834803620194,
14,7,13,2,0.25,3.10526315789474,2,0.111111111111111,1.0,2,0.111111111111111,3.10526315789474,ReadingArea_rsl2-rcl25-esl310-rsm2-rcm11-esm100-rsr2-rcr11-esr310,exr/ReadingArea_rsl2-rcl25-esl310-rsm2-rcm11-esm100-rsr2-rcr11-esr310.exr,ReadingArea_rsl2-rcl25-esl310-rsm2-rcm11-esm100-rsr2-rcr11-esr310.npz,,,,,0,200,200,358,,right,red,0.57,679.322508096695,679.7598249912262,3,,1,8,lightness,readingArea,realistic,75,2023-03-31_13h43.01.343,tripletExp_regina_11082022,2022.2.4,119.93834803620194,
14,11,3,2,0.25,3.10526315789474,2,1.0,1.0,2,0.444444444444444,0.298245614035088,ReadingArea_rsl2-rcl25-esl310-rsm2-rcm100-esm100-rsr2-rcr44-esr29,exr/ReadingArea_rsl2-rcl25-esl310-rsm2-rcm100-esm100-rsr2-rcr44-esr29.exr,ReadingArea_rsl2-rcl25-esl310-rsm2-rcm100-esm100-rsr2-rcr44-esr29.npz,,,,,0,201,201,78,,left,green,0.66,681.4653699398041,681.9018280506134,3,,1,8,lightness,readingArea,realistic,75,2023-03-31_13h43.01.343,tripletExp_regina_11082022,2022.2.4,119.93834803620194,
7,13,5,2,0.111111111111111,1.0,2,0.111111111111111,3.10526315789474,2,1.0,0.298245614035088,ReadingArea_rsl2-rcl11-esl100-rsm2-rcm11-esm310-rsr2-rcr100-esr29,exr/ReadingArea_rsl2-rcl11-esl100-rsm2-rcm11-esm310-rsr2-rcr100-esr29.exr,ReadingArea_rsl2-rcl11-esl100-rsm2-rcm11-esm310-rsr2-rcr100-esr29.npz,,,,,0,202,202,332,,left,green,0.63,683.6038420200348,684.0479249954224,3,,1,8,lightness,readingArea,realistic,75,2023-03-31_13h43.01.343,tripletExp_regina_11082022,2022.2.4,119.93834803620194,
10,0,3,2,0.694444444444444,1.0,2,0.027777777777778,0.298245614035088,2,0.444444444444444,0.298245614035088,ReadingArea_rsl2-rcl69-esl100-rsm2-rcm2-esm29-rsr2-rcr44-esr29,exr/ReadingArea_rsl2-rcl69-esl100-rsm2-rcm2-esm29-rsr2-rcr44-esr29.exr,ReadingArea_rsl2-rcl69-esl100-rsm2-rcm2-esm29-rsr2-rcr44-esr29.npz,,,,,0,203,203,87,,right,red,0.64,685.7446990013123,686.1829850673676,3,,1,8,lightness,readingArea,realistic,75,2023-03-31_13h43.01.343,tripletExp_regina_11082022,2022.2.4,119.93834803620194,
