index_left,index_middle,index_right,reflectance_surround_left,reflectance_center_left,emission_spot_left,reflectance_surround_middle,reflectance_center_middle,emission_spot_middle,reflectance_surround_right,reflectance_center_right,emission_spot_right,ImageName,ImageExr,ImageNpy,trials_2.thisRepN,trials_2.thisTrialN,trials_2.thisN,trials_2.thisIndex,trials.thisRepN,trials.thisTrialN,trials.thisN,trials.thisIndex,sound_1.started,BB_Trial.resp,BB_Trial.color,BB_Trial.rt,text.started,text.stopped,sound_1.stopped,block,sound_4.started,participant,session,L/B,scene,condition,nTrialsPerBlock,date,expName,psychopyVersion,frameRate,Unnamed: 42
4,5,8,2,0.694444444444444,0.298245614035088,2,1.0,0.298245614035088,2,0.25,1.0,ReadingArea_rsl2-rcl69-esl29-rsm2-rcm100-esm29-rsr2-rcr25-esr100,exr/ReadingArea_rsl2-rcl69-esl29-rsm2-rcm100-esm29-rsr2-rcr25-esr100.exr,ReadingArea_rsl2-rcl69-esl29-rsm2-rcm100-esm29-rsr2-rcr25-esr100.npz,,,,,0,0,0,54,561.0365427494049,left,green,3.5,566.9940600395203,567.4973840713501,528.1935551166534,1,,3,10,brightness,readingArea,realistic,75,2023-03-20_14h50.43.810,tripletExp_regina_11082022,2022.2.4,119.6430934939869,
1,3,4,2,0.111111111111111,0.298245614035088,2,0.444444444444444,0.298245614035088,2,0.694444444444444,0.298245614035088,ReadingArea_rsl2-rcl11-esl29-rsm2-rcm44-esm29-rsr2-rcr69-esr29,exr/ReadingArea_rsl2-rcl11-esl29-rsm2-rcm44-esm29-rsr2-rcr69-esr29.exr,ReadingArea_rsl2-rcl11-esl29-rsm2-rcm44-esm29-rsr2-rcr69-esr29.npz,,,,,0,1,1,153,,right,red,0.78,569.2215311527252,569.661003112793,,1,,3,10,brightness,readingArea,realistic,75,2023-03-20_14h50.43.810,tripletExp_regina_11082022,2022.2.4,119.6430934939869,
3,6,4,2,0.444444444444444,0.298245614035088,2,0.027777777777778,1.0,2,0.694444444444444,0.298245614035088,ReadingArea_rsl2-rcl44-esl29-rsm2-rcm2-esm100-rsr2-rcr69-esr29,exr/ReadingArea_rsl2-rcl44-esl29-rsm2-rcm2-esm100-rsr2-rcr69-esr29.exr,ReadingArea_rsl2-rcl44-esl29-rsm2-rcm2-esm100-rsr2-rcr69-esr29.npz,,,,,0,2,2,154,,left,green,1.61,571.3719191551208,571.7841801643372,,1,,3,10,brightness,readingArea,realistic,75,2023-03-20_14h50.43.810,tripletExp_regina_11082022,2022.2.4,119.6430934939869,
3,10,9,2,0.444444444444444,0.298245614035088,2,0.694444444444444,1.0,2,0.444444444444444,1.0,ReadingArea_rsl2-rcl44-esl29-rsm2-rcm69-esm100-rsr2-rcr44-esr100,exr/ReadingArea_rsl2-rcl44-esl29-rsm2-rcm69-esm100-rsr2-rcr44-esr100.exr,ReadingArea_rsl2-rcl44-esl29-rsm2-rcm69-esm100-rsr2-rcr44-esr100.npz,,,,,0,3,3,222,,right,red,1.08,573.4892859458923,573.9339179992676,,1,,3,10,brightness,readingArea,realistic,75,2023-03-20_14h50.43.810,tripletExp_regina_11082022,2022.2.4,119.6430934939869,
8,1,3,2,0.25,1.0,2,0.111111111111111,0.298245614035088,2,0.444444444444444,0.298245614035088,ReadingArea_rsl2-rcl25-esl100-rsm2-rcm11-esm29-rsr2-rcr44-esr29,exr/ReadingArea_rsl2-rcl25-esl100-rsm2-rcm11-esm29-rsr2-rcr44-esr29.exr,ReadingArea_rsl2-rcl25-esl100-rsm2-rcm11-esm29-rsr2-rcr44-esr29.npz,,,,,0,4,4,490,,right,red,1.56,575.6446189880371,576.0864081382751,,1,,3,10,brightness,readingArea,realistic,75,2023-03-20_14h50.43.810,tripletExp_regina_11082022,2022.2.4,119.6430934939869,
1,12,10,2,0.111111111111111,0.298245614035088,2,0.027777777777778,3.10526315789474,2,0.694444444444444,1.0,ReadingArea_rsl2-rcl11-esl29-rsm2-rcm2-esm310-rsr2-rcr69-esr100,exr/ReadingArea_rsl2-rcl11-esl29-rsm2-rcm2-esm310-rsr2-rcr69-esr100.exr,ReadingArea_rsl2-rcl11-esl29-rsm2-rcm2-esm310-rsr2-rcr69-esr100.npz,,,,,0,5,5,567,,left,green,0.97,577.7928349971771,578.2202150821686,,1,,3,10,brightness,readingArea,realistic,75,2023-03-20_14h50.43.810,tripletExp_regina_11082022,2022.2.4,119.6430934939869,
11,8,7,2,1.0,1.0,2,0.25,1.0,2,0.111111111111111,1.0,ReadingArea_rsl2-rcl100-esl100-rsm2-rcm25-esm100-rsr2-rcr11-esr100,exr/ReadingArea_rsl2-rcl100-esl100-rsm2-rcm25-esm100-rsr2-rcr11-esr100.exr,ReadingArea_rsl2-rcl100-esl100-rsm2-rcm25-esm100-rsr2-rcr11-esr100.npz,,,,,0,6,6,105,,right,red,0.92,579.9448161125183,580.3890719413757,,1,,3,10,brightness,readingArea,realistic,75,2023-03-20_14h50.43.810,tripletExp_regina_11082022,2022.2.4,119.6430934939869,
8,4,2,2,0.25,1.0,2,0.694444444444444,0.298245614035088,2,0.25,0.298245614035088,ReadingArea_rsl2-rcl25-esl100-rsm2-rcm69-esm29-rsr2-rcr25-esr29,exr/ReadingArea_rsl2-rcl25-esl100-rsm2-rcm69-esm29-rsr2-rcr25-esr29.exr,ReadingArea_rsl2-rcl25-esl100-rsm2-rcm69-esm29-rsr2-rcr25-esr29.npz,,,,,0,7,7,184,,left,green,0.95,582.0971851348877,582.6269581317902,,1,,3,10,brightness,readingArea,realistic,75,2023-03-20_14h50.43.810,tripletExp_regina_11082022,2022.2.4,119.6430934939869,
13,4,12,2,0.111111111111111,3.10526315789474,2,0.694444444444444,0.298245614035088,2,0.027777777777778,3.10526315789474,ReadingArea_rsl2-rcl11-esl310-rsm2-rcm69-esm29-rsr2-rcr2-esr310,exr/ReadingArea_rsl2-rcl11-esl310-rsm2-rcm69-esm29-rsr2-rcr2-esr310.exr,ReadingArea_rsl2-rcl11-esl310-rsm2-rcm69-esm29-rsr2-rcr2-esr310.npz,,,,,0,8,8,122,,left,green,1.15,584.3475301265717,584.778843164444,,1,,3,10,brightness,readingArea,realistic,75,2023-03-20_14h50.43.810,tripletExp_regina_11082022,2022.2.4,119.6430934939869,
7,5,11,2,0.111111111111111,1.0,2,1.0,0.298245614035088,2,1.0,1.0,ReadingArea_rsl2-rcl11-esl100-rsm2-rcm100-esm29-rsr2-rcr100-esr100,exr/ReadingArea_rsl2-rcl11-esl100-rsm2-rcm100-esm29-rsr2-rcr100-esr100.exr,ReadingArea_rsl2-rcl11-esl100-rsm2-rcm100-esm29-rsr2-rcr100-esr100.npz,,,,,0,9,9,10,,right,red,1.7,586.4688651561737,586.8553760051727,,1,,3,10,brightness,readingArea,realistic,75,2023-03-20_14h50.43.810,tripletExp_regina_11082022,2022.2.4,119.6430934939869,
6,1,10,2,0.027777777777778,1.0,2,0.111111111111111,0.298245614035088,2,0.694444444444444,1.0,ReadingArea_rsl2-rcl2-esl100-rsm2-rcm11-esm29-rsr2-rcr69-esr100,exr/ReadingArea_rsl2-rcl2-esl100-rsm2-rcm11-esm29-rsr2-rcr69-esr100.exr,ReadingArea_rsl2-rcl2-esl100-rsm2-rcm11-esm29-rsr2-rcr69-esr100.npz,,,,,0,10,10,561,,left,green,1.56,588.5787589550018,589.059240102768,,1,,3,10,brightness,readingArea,realistic,75,2023-03-20_14h50.43.810,tripletExp_regina_11082022,2022.2.4,119.6430934939869,
6,11,3,2,0.027777777777778,1.0,2,1.0,1.0,2,0.444444444444444,0.298245614035088,ReadingArea_rsl2-rcl2-esl100-rsm2-rcm100-esm100-rsr2-rcr44-esr29,exr/ReadingArea_rsl2-rcl2-esl100-rsm2-rcm100-esm100-rsr2-rcr44-esr29.exr,ReadingArea_rsl2-rcl2-esl100-rsm2-rcm100-esm100-rsr2-rcr44-esr29.npz,,,,,0,11,11,11,,right,red,1.0,590.780739068985,591.2163469791412,,1,,3,10,brightness,readingArea,realistic,75,2023-03-20_14h50.43.810,tripletExp_regina_11082022,2022.2.4,119.6430934939869,
10,14,1,2,0.694444444444444,1.0,2,0.25,3.10526315789474,2,0.111111111111111,0.298245614035088,ReadingArea_rsl2-rcl69-esl100-rsm2-rcm25-esm310-rsr2-rcr11-esr29,exr/ReadingArea_rsl2-rcl69-esl100-rsm2-rcm25-esm310-rsr2-rcr11-esr29.exr,ReadingArea_rsl2-rcl69-esl100-rsm2-rcm25-esm310-rsr2-rcr11-esr29.npz,,,,,0,12,12,544,,left,green,0.66,592.9390380382538,593.3736710548401,,1,,3,10,brightness,readingArea,realistic,75,2023-03-20_14h50.43.810,tripletExp_regina_11082022,2022.2.4,119.6430934939869,
13,1,3,2,0.111111111111111,3.10526315789474,2,0.111111111111111,0.298245614035088,2,0.444444444444444,0.298245614035088,ReadingArea_rsl2-rcl11-esl310-rsm2-rcm11-esm29-rsr2-rcr44-esr29,exr/ReadingArea_rsl2-rcl11-esl310-rsm2-rcm11-esm29-rsr2-rcr44-esr29.exr,ReadingArea_rsl2-rcl11-esl310-rsm2-rcm11-esm29-rsr2-rcr44-esr29.npz,,,,,0,13,13,588,,right,red,2.98,596.8567750453949,597.2945630550385,,1,,3,10,brightness,readingArea,realistic,75,2023-03-20_14h50.43.810,tripletExp_regina_11082022,2022.2.4,119.6430934939869,
7,10,13,2,0.111111111111111,1.0,2,0.694444444444444,1.0,2,0.111111111111111,3.10526315789474,ReadingArea_rsl2-rcl11-esl100-rsm2-rcm69-esm100-rsr2-rcr11-esr310,exr/ReadingArea_rsl2-rcl11-esl100-rsm2-rcm69-esm100-rsr2-rcr11-esr310.exr,ReadingArea_rsl2-rcl11-esl100-rsm2-rcm69-esm100-rsr2-rcr11-esr310.npz,,,,,0,14,14,446,,right,red,1.47,598.9834110736847,599.4988420009613,,1,,3,10,brightness,readingArea,realistic,75,2023-03-20_14h50.43.810,tripletExp_regina_11082022,2022.2.4,119.6430934939869,
2,9,11,2,0.25,0.298245614035088,2,0.444444444444444,1.0,2,1.0,1.0,ReadingArea_rsl2-rcl25-esl29-rsm2-rcm44-esm100-rsr2-rcr100-esr100,exr/ReadingArea_rsl2-rcl25-esl29-rsm2-rcm44-esm100-rsr2-rcr100-esr100.exr,ReadingArea_rsl2-rcl25-esl29-rsm2-rcm44-esm100-rsr2-rcr100-esr100.npz,,,,,0,15,15,164,,right,red,2.84,602.9398350715637,603.3815629482269,,1,,3,10,brightness,readingArea,realistic,75,2023-03-20_14h50.43.810,tripletExp_regina_11082022,2022.2.4,119.6430934939869,
5,13,12,2,1.0,0.298245614035088,2,0.111111111111111,3.10526315789474,2,0.027777777777778,3.10526315789474,ReadingArea_rsl2-rcl100-esl29-rsm2-rcm11-esm310-rsr2-rcr2-esr310,exr/ReadingArea_rsl2-rcl100-esl29-rsm2-rcm11-esm310-rsr2-rcr2-esr310.exr,ReadingArea_rsl2-rcl100-esl29-rsm2-rcm11-esm310-rsr2-rcr2-esr310.npz,,,,,0,16,16,389,,left,green,1.25,605.0844020843506,605.5408909320831,,1,,3,10,brightness,readingArea,realistic,75,2023-03-20_14h50.43.810,tripletExp_regina_11082022,2022.2.4,119.6430934939869,
4,10,11,2,0.694444444444444,0.298245614035088,2,0.694444444444444,1.0,2,1.0,1.0,ReadingArea_rsl2-rcl69-esl29-rsm2-rcm69-esm100-rsr2-rcr100-esr100,exr/ReadingArea_rsl2-rcl69-esl29-rsm2-rcm69-esm100-rsr2-rcr100-esr100.exr,ReadingArea_rsl2-rcl69-esl29-rsm2-rcm69-esm100-rsr2-rcr100-esr100.npz,,,,,0,17,17,180,,right,red,0.82,607.2482399940491,607.6857371330261,,1,,3,10,brightness,readingArea,realistic,75,2023-03-20_14h50.43.810,tripletExp_regina_11082022,2022.2.4,119.6430934939869,
7,0,2,2,0.111111111111111,1.0,2,0.027777777777778,0.298245614035088,2,0.25,0.298245614035088,ReadingArea_rsl2-rcl11-esl100-rsm2-rcm2-esm29-rsr2-rcr25-esr29,exr/ReadingArea_rsl2-rcl11-esl100-rsm2-rcm2-esm29-rsr2-rcr25-esr29.exr,ReadingArea_rsl2-rcl11-esl100-rsm2-rcm2-esm29-rsr2-rcr25-esr29.npz,,,,,0,18,18,347,,right,red,3.18,611.1496911048889,611.6289460659027,,1,,3,10,brightness,readingArea,realistic,75,2023-03-20_14h50.43.810,tripletExp_regina_11082022,2022.2.4,119.6430934939869,
3,10,4,2,0.444444444444444,0.298245614035088,2,0.694444444444444,1.0,2,0.694444444444444,0.298245614035088,ReadingArea_rsl2-rcl44-esl29-rsm2-rcm69-esm100-rsr2-rcr69-esr29,exr/ReadingArea_rsl2-rcl44-esl29-rsm2-rcm69-esm100-rsr2-rcr69-esr29.exr,ReadingArea_rsl2-rcl44-esl29-rsm2-rcm69-esm100-rsr2-rcr69-esr29.npz,,,,,0,19,19,435,,right,red,2.89,615.1302890777588,,,1,,3,10,brightness,readingArea,realistic,75,2023-03-20_14h50.43.810,tripletExp_regina_11082022,2022.2.4,119.6430934939869,
1,8,12,2,0.111111111111111,0.298245614035088,2,0.25,1.0,2,0.027777777777778,3.10526315789474,ReadingArea_rsl2-rcl11-esl29-rsm2-rcm25-esm100-rsr2-rcr2-esr310,exr/ReadingArea_rsl2-rcl11-esl29-rsm2-rcm25-esm100-rsr2-rcr2-esr310.exr,ReadingArea_rsl2-rcl11-esl29-rsm2-rcm25-esm100-rsr2-rcr2-esr310.npz,,,,,0,20,20,156,,right,red,0.99,617.2857210636139,617.7936429977417,,1,,3,10,brightness,readingArea,realistic,75,2023-03-20_14h50.43.810,tripletExp_regina_11082022,2022.2.4,119.6430934939869,
0,8,12,2,0.027777777777778,0.298245614035088,2,0.25,1.0,2,0.027777777777778,3.10526315789474,ReadingArea_rsl2-rcl2-esl29-rsm2-rcm25-esm100-rsr2-rcr2-esr310,exr/ReadingArea_rsl2-rcl2-esl29-rsm2-rcm25-esm100-rsr2-rcr2-esr310.exr,ReadingArea_rsl2-rcl2-esl29-rsm2-rcm25-esm100-rsr2-rcr2-esr310.npz,,,,,0,21,21,314,,right,red,0.83,619.4848480224609,619.9215450286865,,1,,3,10,brightness,readingArea,realistic,75,2023-03-20_14h50.43.810,tripletExp_regina_11082022,2022.2.4,119.6430934939869,
11,3,12,2,1.0,1.0,2,0.444444444444444,0.298245614035088,2,0.027777777777778,3.10526315789474,ReadingArea_rsl2-rcl100-esl100-rsm2-rcm44-esm29-rsr2-rcr2-esr310,exr/ReadingArea_rsl2-rcl100-esl100-rsm2-rcm44-esm29-rsr2-rcr2-esr310.exr,ReadingArea_rsl2-rcl100-esl100-rsm2-rcm44-esm29-rsr2-rcr2-esr310.npz,,,,,0,22,22,355,,left,green,3.03,623.3849380016327,623.9986729621887,,1,,3,10,brightness,readingArea,realistic,75,2023-03-20_14h50.43.810,tripletExp_regina_11082022,2022.2.4,119.6430934939869,
4,14,1,2,0.694444444444444,0.298245614035088,2,0.25,3.10526315789474,2,0.111111111111111,0.298245614035088,ReadingArea_rsl2-rcl69-esl29-rsm2-rcm25-esm310-rsr2-rcr11-esr29,exr/ReadingArea_rsl2-rcl69-esl29-rsm2-rcm25-esm310-rsr2-rcr11-esr29.exr,ReadingArea_rsl2-rcl69-esl29-rsm2-rcm25-esm310-rsr2-rcr11-esr29.npz,,,,,0,23,23,477,,left,green,1.39,625.7116410732269,626.1473240852356,,1,,3,10,brightness,readingArea,realistic,75,2023-03-20_14h50.43.810,tripletExp_regina_11082022,2022.2.4,119.6430934939869,
13,0,10,2,0.111111111111111,3.10526315789474,2,0.027777777777778,0.298245614035088,2,0.694444444444444,1.0,ReadingArea_rsl2-rcl11-esl310-rsm2-rcm2-esm29-rsr2-rcr69-esr100,exr/ReadingArea_rsl2-rcl11-esl310-rsm2-rcm2-esm29-rsr2-rcr69-esr100.exr,ReadingArea_rsl2-rcl11-esl310-rsm2-rcm2-esm29-rsr2-rcr69-esr100.npz,,,,,0,24,24,505,,left,green,1.64,627.8363621234894,628.2679979801178,,1,,3,10,brightness,readingArea,realistic,75,2023-03-20_14h50.43.810,tripletExp_regina_11082022,2022.2.4,119.6430934939869,
13,6,4,2,0.111111111111111,3.10526315789474,2,0.027777777777778,1.0,2,0.694444444444444,0.298245614035088,ReadingArea_rsl2-rcl11-esl310-rsm2-rcm2-esm100-rsr2-rcr69-esr29,exr/ReadingArea_rsl2-rcl11-esl310-rsm2-rcm2-esm100-rsr2-rcr69-esr29.exr,ReadingArea_rsl2-rcl11-esl310-rsm2-rcm2-esm100-rsr2-rcr69-esr29.npz,,,,,0,25,25,328,,right,red,3.23,631.7473800182343,632.1892840862274,,1,,3,10,brightness,readingArea,realistic,75,2023-03-20_14h50.43.810,tripletExp_regina_11082022,2022.2.4,119.6430934939869,
9,3,14,2,0.444444444444444,1.0,2,0.444444444444444,0.298245614035088,2,0.25,3.10526315789474,ReadingArea_rsl2-rcl44-esl100-rsm2-rcm44-esm29-rsr2-rcr25-esr310,exr/ReadingArea_rsl2-rcl44-esl100-rsm2-rcm44-esm29-rsr2-rcr25-esr310.exr,ReadingArea_rsl2-rcl44-esl100-rsm2-rcm44-esm29-rsr2-rcr25-esr310.npz,,,,,0,26,26,17,,left,green,1.73,633.908420085907,,,1,,3,10,brightness,readingArea,realistic,75,2023-03-20_14h50.43.810,tripletExp_regina_11082022,2022.2.4,119.6430934939869,
4,2,13,2,0.694444444444444,0.298245614035088,2,0.25,0.298245614035088,2,0.111111111111111,3.10526315789474,ReadingArea_rsl2-rcl69-esl29-rsm2-rcm25-esm29-rsr2-rcr11-esr310,exr/ReadingArea_rsl2-rcl69-esl29-rsm2-rcm25-esm29-rsr2-rcr11-esr310.exr,ReadingArea_rsl2-rcl69-esl29-rsm2-rcm25-esm29-rsr2-rcr11-esr310.npz,,,,,0,27,27,304,,right,red,1.53,636.0848090648651,636.5194101333618,,1,,3,10,brightness,readingArea,realistic,75,2023-03-20_14h50.43.810,tripletExp_regina_11082022,2022.2.4,119.6430934939869,
0,1,8,2,0.027777777777778,0.298245614035088,2,0.111111111111111,0.298245614035088,2,0.25,1.0,ReadingArea_rsl2-rcl2-esl29-rsm2-rcm11-esm29-rsr2-rcr25-esr100,exr/ReadingArea_rsl2-rcl2-esl29-rsm2-rcm11-esm29-rsr2-rcr25-esr100.exr,ReadingArea_rsl2-rcl2-esl29-rsm2-rcm11-esm29-rsr2-rcr25-esr100.npz,,,,,0,28,28,107,,right,red,1.39,638.2392680644989,638.6584689617157,,1,,3,10,brightness,readingArea,realistic,75,2023-03-20_14h50.43.810,tripletExp_regina_11082022,2022.2.4,119.6430934939869,
10,12,11,2,0.694444444444444,1.0,2,0.027777777777778,3.10526315789474,2,1.0,1.0,ReadingArea_rsl2-rcl69-esl100-rsm2-rcm2-esm310-rsr2-rcr100-esr100,exr/ReadingArea_rsl2-rcl69-esl100-rsm2-rcm2-esm310-rsr2-rcr100-esr100.exr,ReadingArea_rsl2-rcl69-esl100-rsm2-rcm2-esm310-rsr2-rcr100-esr100.npz,,,,,0,29,29,317,,right,red,3.27,642.1542451381683,642.6305470466614,,1,,3,10,brightness,readingArea,realistic,75,2023-03-20_14h50.43.810,tripletExp_regina_11082022,2022.2.4,119.6430934939869,
7,13,6,2,0.111111111111111,1.0,2,0.111111111111111,3.10526315789474,2,0.027777777777778,1.0,ReadingArea_rsl2-rcl11-esl100-rsm2-rcm11-esm310-rsr2-rcr2-esr100,exr/ReadingArea_rsl2-rcl11-esl100-rsm2-rcm11-esm310-rsr2-rcr2-esr100.exr,ReadingArea_rsl2-rcl11-esl100-rsm2-rcm11-esm310-rsr2-rcr2-esr100.npz,,,,,0,30,30,73,,left,green,1.04,644.3235659599304,644.8518590927124,,1,,3,10,brightness,readingArea,realistic,75,2023-03-20_14h50.43.810,tripletExp_regina_11082022,2022.2.4,119.6430934939869,
12,13,14,2,0.027777777777778,3.10526315789474,2,0.111111111111111,3.10526315789474,2,0.25,3.10526315789474,ReadingArea_rsl2-rcl2-esl310-rsm2-rcm11-esm310-rsr2-rcr25-esr310,exr/ReadingArea_rsl2-rcl2-esl310-rsm2-rcm11-esm310-rsr2-rcr25-esr310.exr,ReadingArea_rsl2-rcl2-esl310-rsm2-rcm11-esm310-rsr2-rcr25-esr310.npz,,,,,0,31,31,208,,right,red,1.57,646.5461161136627,646.9724869728088,,1,,3,10,brightness,readingArea,realistic,75,2023-03-20_14h50.43.810,tripletExp_regina_11082022,2022.2.4,119.6430934939869,
14,6,11,2,0.25,3.10526315789474,2,0.027777777777778,1.0,2,1.0,1.0,ReadingArea_rsl2-rcl25-esl310-rsm2-rcm2-esm100-rsr2-rcr100-esr100,exr/ReadingArea_rsl2-rcl25-esl310-rsm2-rcm2-esm100-rsr2-rcr100-esr100.exr,ReadingArea_rsl2-rcl25-esl310-rsm2-rcm2-esm100-rsr2-rcr100-esr100.npz,,,,,0,32,32,337,,left,green,1.71,648.6876289844513,649.1221699714661,,1,,3,10,brightness,readingArea,realistic,75,2023-03-20_14h50.43.810,tripletExp_regina_11082022,2022.2.4,119.6430934939869,
3,4,13,2,0.444444444444444,0.298245614035088,2,0.694444444444444,0.298245614035088,2,0.111111111111111,3.10526315789474,ReadingArea_rsl2-rcl44-esl29-rsm2-rcm69-esm29-rsr2-rcr11-esr310,exr/ReadingArea_rsl2-rcl44-esl29-rsm2-rcm69-esm29-rsr2-rcr11-esr310.exr,ReadingArea_rsl2-rcl44-esl29-rsm2-rcm69-esm29-rsr2-rcr11-esr310.npz,,,,,0,33,33,63,,left,green,4.82,654.3196790218353,654.753534078598,,1,,3,10,brightness,readingArea,realistic,75,2023-03-20_14h50.43.810,tripletExp_regina_11082022,2022.2.4,119.6430934939869,
14,0,3,2,0.25,3.10526315789474,2,0.027777777777778,0.298245614035088,2,0.444444444444444,0.298245614035088,ReadingArea_rsl2-rcl25-esl310-rsm2-rcm2-esm29-rsr2-rcr44-esr29,exr/ReadingArea_rsl2-rcl25-esl310-rsm2-rcm2-esm29-rsr2-rcr44-esr29.exr,ReadingArea_rsl2-rcl25-esl310-rsm2-rcm2-esm29-rsr2-rcr44-esr29.npz,,,,,0,34,34,75,,right,red,1.3,656.4482460021973,656.8795461654663,,1,,3,10,brightness,readingArea,realistic,75,2023-03-20_14h50.43.810,tripletExp_regina_11082022,2022.2.4,119.6430934939869,
4,13,2,2,0.694444444444444,0.298245614035088,2,0.111111111111111,3.10526315789474,2,0.25,0.298245614035088,ReadingArea_rsl2-rcl69-esl29-rsm2-rcm11-esm310-rsr2-rcr25-esr29,exr/ReadingArea_rsl2-rcl69-esl29-rsm2-rcm11-esm310-rsr2-rcr25-esr29.exr,ReadingArea_rsl2-rcl69-esl29-rsm2-rcm11-esm310-rsr2-rcr25-esr29.npz,,,,,0,35,35,592,,right,red,1.39,658.568470954895,658.993800163269,,1,,3,10,brightness,readingArea,realistic,75,2023-03-20_14h50.43.810,tripletExp_regina_11082022,2022.2.4,119.6430934939869,
7,0,3,2,0.111111111111111,1.0,2,0.027777777777778,0.298245614035088,2,0.444444444444444,0.298245614035088,ReadingArea_rsl2-rcl11-esl100-rsm2-rcm2-esm29-rsr2-rcr44-esr29,exr/ReadingArea_rsl2-rcl11-esl100-rsm2-rcm2-esm29-rsr2-rcr44-esr29.exr,ReadingArea_rsl2-rcl11-esl100-rsm2-rcm2-esm29-rsr2-rcr44-esr29.npz,,,,,0,36,36,237,,left,green,2.89,662.4761991500854,662.9361200332642,,1,,3,10,brightness,readingArea,realistic,75,2023-03-20_14h50.43.810,tripletExp_regina_11082022,2022.2.4,119.6430934939869,
12,14,4,2,0.027777777777778,3.10526315789474,2,0.25,3.10526315789474,2,0.694444444444444,0.298245614035088,ReadingArea_rsl2-rcl2-esl310-rsm2-rcm25-esm310-rsr2-rcr69-esr29,exr/ReadingArea_rsl2-rcl2-esl310-rsm2-rcm25-esm310-rsr2-rcr69-esr29.exr,ReadingArea_rsl2-rcl2-esl310-rsm2-rcm25-esm310-rsr2-rcr69-esr29.npz,,,,,0,37,37,315,,right,red,0.97,664.6256980895996,665.0508570671082,,1,,3,10,brightness,readingArea,realistic,75,2023-03-20_14h50.43.810,tripletExp_regina_11082022,2022.2.4,119.6430934939869,
2,1,3,2,0.25,0.298245614035088,2,0.111111111111111,0.298245614035088,2,0.444444444444444,0.298245614035088,ReadingArea_rsl2-rcl25-esl29-rsm2-rcm11-esm29-rsr2-rcr44-esr29,exr/ReadingArea_rsl2-rcl25-esl29-rsm2-rcm11-esm29-rsr2-rcr44-esr29.exr,ReadingArea_rsl2-rcl25-esl29-rsm2-rcm11-esm29-rsr2-rcr44-esr29.npz,,,,,0,38,38,85,,left,green,1.05,666.7429239749908,667.176274061203,,1,,3,10,brightness,readingArea,realistic,75,2023-03-20_14h50.43.810,tripletExp_regina_11082022,2022.2.4,119.6430934939869,
6,2,5,2,0.027777777777778,1.0,2,0.25,0.298245614035088,2,1.0,0.298245614035088,ReadingArea_rsl2-rcl2-esl100-rsm2-rcm25-esm29-rsr2-rcr100-esr29,exr/ReadingArea_rsl2-rcl2-esl100-rsm2-rcm25-esm29-rsr2-rcr100-esr29.exr,ReadingArea_rsl2-rcl2-esl100-rsm2-rcm25-esm29-rsr2-rcr100-esr29.npz,,,,,0,39,39,504,,right,red,1.23,668.9031450748444,669.5447430610657,,1,,3,10,brightness,readingArea,realistic,75,2023-03-20_14h50.43.810,tripletExp_regina_11082022,2022.2.4,119.6430934939869,
11,2,8,2,1.0,1.0,2,0.25,0.298245614035088,2,0.25,1.0,ReadingArea_rsl2-rcl100-esl100-rsm2-rcm25-esm29-rsr2-rcr25-esr100,exr/ReadingArea_rsl2-rcl100-esl100-rsm2-rcm25-esm29-rsr2-rcr25-esr100.exr,ReadingArea_rsl2-rcl100-esl100-rsm2-rcm25-esm29-rsr2-rcr25-esr100.npz,,,,,0,40,40,214,,right,red,1.02,671.2297070026398,671.664736032486,,1,,3,10,brightness,readingArea,realistic,75,2023-03-20_14h50.43.810,tripletExp_regina_11082022,2022.2.4,119.6430934939869,
2,4,10,2,0.25,0.298245614035088,2,0.694444444444444,0.298245614035088,2,0.694444444444444,1.0,ReadingArea_rsl2-rcl25-esl29-rsm2-rcm69-esm29-rsr2-rcr69-esr100,exr/ReadingArea_rsl2-rcl25-esl29-rsm2-rcm69-esm29-rsr2-rcr69-esr100.exr,ReadingArea_rsl2-rcl25-esl29-rsm2-rcm69-esm29-rsr2-rcr69-esr100.npz,,,,,0,41,41,174,,right,red,1.2,673.3660991191864,673.7948839664459,,1,,3,10,brightness,readingArea,realistic,75,2023-03-20_14h50.43.810,tripletExp_regina_11082022,2022.2.4,119.6430934939869,
2,14,8,2,0.25,0.298245614035088,2,0.25,3.10526315789474,2,0.25,1.0,ReadingArea_rsl2-rcl25-esl29-rsm2-rcm25-esm310-rsr2-rcr25-esr100,exr/ReadingArea_rsl2-rcl25-esl29-rsm2-rcm25-esm310-rsr2-rcr25-esr100.exr,ReadingArea_rsl2-rcl25-esl29-rsm2-rcm25-esm310-rsr2-rcr25-esr100.npz,,,,,0,42,42,255,,right,red,1.61,675.4910550117493,676.0014531612396,,1,,3,10,brightness,readingArea,realistic,75,2023-03-20_14h50.43.810,tripletExp_regina_11082022,2022.2.4,119.6430934939869,
11,7,8,2,1.0,1.0,2,0.111111111111111,1.0,2,0.25,1.0,ReadingArea_rsl2-rcl100-esl100-rsm2-rcm11-esm100-rsr2-rcr25-esr100,exr/ReadingArea_rsl2-rcl100-esl100-rsm2-rcm11-esm100-rsr2-rcr25-esr100.exr,ReadingArea_rsl2-rcl100-esl100-rsm2-rcm11-esm100-rsr2-rcr25-esr100.npz,,,,,0,43,43,37,,right,red,1.18,677.7239811420441,,,1,,3,10,brightness,readingArea,realistic,75,2023-03-20_14h50.43.810,tripletExp_regina_11082022,2022.2.4,119.6430934939869,
0,4,7,2,0.027777777777778,0.298245614035088,2,0.694444444444444,0.298245614035088,2,0.111111111111111,1.0,ReadingArea_rsl2-rcl2-esl29-rsm2-rcm69-esm29-rsr2-rcr11-esr100,exr/ReadingArea_rsl2-rcl2-esl29-rsm2-rcm69-esm29-rsr2-rcr11-esr100.exr,ReadingArea_rsl2-rcl2-esl29-rsm2-rcm69-esm29-rsr2-rcr11-esr100.npz,,,,,0,44,44,200,,right,red,0.86,679.8887600898743,680.341964006424,,1,,3,10,brightness,readingArea,realistic,75,2023-03-20_14h50.43.810,tripletExp_regina_11082022,2022.2.4,119.6430934939869,
10,6,3,2,0.694444444444444,1.0,2,0.027777777777778,1.0,2,0.444444444444444,0.298245614035088,ReadingArea_rsl2-rcl69-esl100-rsm2-rcm2-esm100-rsr2-rcr44-esr29,exr/ReadingArea_rsl2-rcl69-esl100-rsm2-rcm2-esm100-rsr2-rcr44-esr29.exr,ReadingArea_rsl2-rcl69-esl100-rsm2-rcm2-esm100-rsr2-rcr44-esr29.npz,,,,,0,45,45,0,,right,red,0.89,682.0625829696655,682.5029900074005,,1,,3,10,brightness,readingArea,realistic,75,2023-03-20_14h50.43.810,tripletExp_regina_11082022,2022.2.4,119.6430934939869,
1,11,12,2,0.111111111111111,0.298245614035088,2,1.0,1.0,2,0.027777777777778,3.10526315789474,ReadingArea_rsl2-rcl11-esl29-rsm2-rcm100-esm100-rsr2-rcr2-esr310,exr/ReadingArea_rsl2-rcl11-esl29-rsm2-rcm100-esm100-rsr2-rcr2-esr310.exr,ReadingArea_rsl2-rcl11-esl29-rsm2-rcm100-esm100-rsr2-rcr2-esr310.npz,,,,,0,46,46,288,,left,green,3.15,685.9827690124512,686.369472026825,,1,,3,10,brightness,readingArea,realistic,75,2023-03-20_14h50.43.810,tripletExp_regina_11082022,2022.2.4,119.6430934939869,
11,0,6,2,1.0,1.0,2,0.027777777777778,0.298245614035088,2,0.027777777777778,1.0,ReadingArea_rsl2-rcl100-esl100-rsm2-rcm2-esm29-rsr2-rcr2-esr100,exr/ReadingArea_rsl2-rcl100-esl100-rsm2-rcm2-esm29-rsr2-rcr2-esr100.exr,ReadingArea_rsl2-rcl100-esl100-rsm2-rcm2-esm29-rsr2-rcr2-esr100.npz,,,,,0,47,47,586,,right,red,1.01,688.0605981349945,688.5391869544983,,1,,3,10,brightness,readingArea,realistic,75,2023-03-20_14h50.43.810,tripletExp_regina_11082022,2022.2.4,119.6430934939869,
14,10,5,2,0.25,3.10526315789474,2,0.694444444444444,1.0,2,1.0,0.298245614035088,ReadingArea_rsl2-rcl25-esl310-rsm2-rcm69-esm100-rsr2-rcr100-esr29,exr/ReadingArea_rsl2-rcl25-esl310-rsm2-rcm69-esm100-rsr2-rcr100-esr29.exr,ReadingArea_rsl2-rcl25-esl310-rsm2-rcm69-esm100-rsr2-rcr100-esr29.npz,,,,,0,48,48,96,,left,green,1.59,690.232980966568,690.7602331638336,,1,,3,10,brightness,readingArea,realistic,75,2023-03-20_14h50.43.810,tripletExp_regina_11082022,2022.2.4,119.6430934939869,
8,10,7,2,0.25,1.0,2,0.694444444444444,1.0,2,0.111111111111111,1.0,ReadingArea_rsl2-rcl25-esl100-rsm2-rcm69-esm100-rsr2-rcr11-esr100,exr/ReadingArea_rsl2-rcl25-esl100-rsm2-rcm69-esm100-rsr2-rcr11-esr100.exr,ReadingArea_rsl2-rcl25-esl100-rsm2-rcm69-esm100-rsr2-rcr11-esr100.npz,,,,,0,49,49,424,,left,green,1.44,692.4508409500122,,,1,,3,10,brightness,readingArea,realistic,75,2023-03-20_14h50.43.810,tripletExp_regina_11082022,2022.2.4,119.6430934939869,
10,11,0,2,0.694444444444444,1.0,2,1.0,1.0,2,0.027777777777778,0.298245614035088,ReadingArea_rsl2-rcl69-esl100-rsm2-rcm100-esm100-rsr2-rcr2-esr29,exr/ReadingArea_rsl2-rcl69-esl100-rsm2-rcm100-esm100-rsr2-rcr2-esr29.exr,ReadingArea_rsl2-rcl69-esl100-rsm2-rcm100-esm100-rsr2-rcr2-esr29.npz,,,,,0,50,50,58,,left,green,0.8,694.5804920196533,695.024973154068,,1,,3,10,brightness,readingArea,realistic,75,2023-03-20_14h50.43.810,tripletExp_regina_11082022,2022.2.4,119.6430934939869,
14,4,7,2,0.25,3.10526315789474,2,0.694444444444444,0.298245614035088,2,0.111111111111111,1.0,ReadingArea_rsl2-rcl25-esl310-rsm2-rcm69-esm29-rsr2-rcr11-esr100,exr/ReadingArea_rsl2-rcl25-esl310-rsm2-rcm69-esm29-rsr2-rcr11-esr100.exr,ReadingArea_rsl2-rcl25-esl310-rsm2-rcm69-esm29-rsr2-rcr11-esr100.npz,,,,,0,51,51,136,,left,green,3.19,698.5010211467743,698.9233920574188,,1,,3,10,brightness,readingArea,realistic,75,2023-03-20_14h50.43.810,tripletExp_regina_11082022,2022.2.4,119.6430934939869,
4,7,5,2,0.694444444444444,0.298245614035088,2,0.111111111111111,1.0,2,1.0,0.298245614035088,ReadingArea_rsl2-rcl69-esl29-rsm2-rcm11-esm100-rsr2-rcr100-esr29,exr/ReadingArea_rsl2-rcl69-esl29-rsm2-rcm11-esm100-rsr2-rcr100-esr29.exr,ReadingArea_rsl2-rcl69-esl29-rsm2-rcm11-esm100-rsr2-rcr100-esr29.npz,,,,,0,52,52,195,,left,green,1.68,700.6403591632843,701.0877740383148,,1,,3,10,brightness,readingArea,realistic,75,2023-03-20_14h50.43.810,tripletExp_regina_11082022,2022.2.4,119.6430934939869,
0,8,9,2,0.027777777777778,0.298245614035088,2,0.25,1.0,2,0.444444444444444,1.0,ReadingArea_rsl2-rcl2-esl29-rsm2-rcm25-esm100-rsr2-rcr44-esr100,exr/ReadingArea_rsl2-rcl2-esl29-rsm2-rcm25-esm100-rsr2-rcr44-esr100.exr,ReadingArea_rsl2-rcl2-esl29-rsm2-rcm25-esm100-rsr2-rcr44-esr100.npz,,,,,0,53,53,541,,right,red,1.03,702.8053579330444,703.2658231258392,,1,,3,10,brightness,readingArea,realistic,75,2023-03-20_14h50.43.810,tripletExp_regina_11082022,2022.2.4,119.6430934939869,
13,6,1,2,0.111111111111111,3.10526315789474,2,0.027777777777778,1.0,2,0.111111111111111,0.298245614035088,ReadingArea_rsl2-rcl11-esl310-rsm2-rcm2-esm100-rsr2-rcr11-esr29,exr/ReadingArea_rsl2-rcl11-esl310-rsm2-rcm2-esm100-rsr2-rcr11-esr29.exr,ReadingArea_rsl2-rcl11-esl310-rsm2-rcm2-esm100-rsr2-rcr11-esr29.npz,,,,,0,54,54,486,,right,red,0.93,704.9612741470337,,,1,,3,10,brightness,readingArea,realistic,75,2023-03-20_14h50.43.810,tripletExp_regina_11082022,2022.2.4,119.6430934939869,
1,8,5,2,0.111111111111111,0.298245614035088,2,0.25,1.0,2,1.0,0.298245614035088,ReadingArea_rsl2-rcl11-esl29-rsm2-rcm25-esm100-rsr2-rcr100-esr29,exr/ReadingArea_rsl2-rcl11-esl29-rsm2-rcm25-esm100-rsr2-rcr100-esr29.exr,ReadingArea_rsl2-rcl11-esl29-rsm2-rcm25-esm100-rsr2-rcr100-esr29.npz,,,,,0,55,55,445,,right,red,0.95,707.0854940414429,707.5194931030273,,1,,3,10,brightness,readingArea,realistic,75,2023-03-20_14h50.43.810,tripletExp_regina_11082022,2022.2.4,119.6430934939869,
12,6,3,2,0.027777777777778,3.10526315789474,2,0.027777777777778,1.0,2,0.444444444444444,0.298245614035088,ReadingArea_rsl2-rcl2-esl310-rsm2-rcm2-esm100-rsr2-rcr44-esr29,exr/ReadingArea_rsl2-rcl2-esl310-rsm2-rcm2-esm100-rsr2-rcr44-esr29.exr,ReadingArea_rsl2-rcl2-esl310-rsm2-rcm2-esm100-rsr2-rcr44-esr29.npz,,,,,0,56,56,139,,left,green,0.99,709.2398700714111,709.6722979545593,,1,,3,10,brightness,readingArea,realistic,75,2023-03-20_14h50.43.810,tripletExp_regina_11082022,2022.2.4,119.6430934939869,
3,2,11,2,0.444444444444444,0.298245614035088,2,0.25,0.298245614035088,2,1.0,1.0,ReadingArea_rsl2-rcl44-esl29-rsm2-rcm25-esm29-rsr2-rcr100-esr100,exr/ReadingArea_rsl2-rcl44-esl29-rsm2-rcm25-esm29-rsr2-rcr100-esr100.exr,ReadingArea_rsl2-rcl44-esl29-rsm2-rcm25-esm29-rsr2-rcr100-esr100.npz,,,,,0,57,57,257,,left,green,0.86,711.3696320056915,711.9621570110321,,1,,3,10,brightness,readingArea,realistic,75,2023-03-20_14h50.43.810,tripletExp_regina_11082022,2022.2.4,119.6430934939869,
13,11,8,2,0.111111111111111,3.10526315789474,2,1.0,1.0,2,0.25,1.0,ReadingArea_rsl2-rcl11-esl310-rsm2-rcm100-esm100-rsr2-rcr25-esr100,exr/ReadingArea_rsl2-rcl11-esl310-rsm2-rcm100-esm100-rsr2-rcr25-esr100.exr,ReadingArea_rsl2-rcl11-esl310-rsm2-rcm100-esm100-rsr2-rcr25-esr100.npz,,,,,0,58,58,410,,left,green,3.36,715.4511079788208,715.901319026947,,1,,3,10,brightness,readingArea,realistic,75,2023-03-20_14h50.43.810,tripletExp_regina_11082022,2022.2.4,119.6430934939869,
8,12,7,2,0.25,1.0,2,0.027777777777778,3.10526315789474,2,0.111111111111111,1.0,ReadingArea_rsl2-rcl25-esl100-rsm2-rcm2-esm310-rsr2-rcr11-esr100,exr/ReadingArea_rsl2-rcl25-esl100-rsm2-rcm2-esm310-rsr2-rcr11-esr100.exr,ReadingArea_rsl2-rcl25-esl100-rsm2-rcm2-esm310-rsr2-rcr11-esr100.npz,,,,,0,59,59,467,,right,red,1.56,717.625077009201,718.0361461639404,,1,,3,10,brightness,readingArea,realistic,75,2023-03-20_14h50.43.810,tripletExp_regina_11082022,2022.2.4,119.6430934939869,
4,0,3,2,0.694444444444444,0.298245614035088,2,0.027777777777778,0.298245614035088,2,0.444444444444444,0.298245614035088,ReadingArea_rsl2-rcl69-esl29-rsm2-rcm2-esm29-rsr2-rcr44-esr29,exr/ReadingArea_rsl2-rcl69-esl29-rsm2-rcm2-esm29-rsr2-rcr44-esr29.exr,ReadingArea_rsl2-rcl69-esl29-rsm2-rcm2-esm29-rsr2-rcr44-esr29.npz,,,,,0,60,60,88,,right,red,1.35,719.7265429496765,720.145133972168,,1,,3,10,brightness,readingArea,realistic,75,2023-03-20_14h50.43.810,tripletExp_regina_11082022,2022.2.4,119.6430934939869,
3,9,13,2,0.444444444444444,0.298245614035088,2,0.444444444444444,1.0,2,0.111111111111111,3.10526315789474,ReadingArea_rsl2-rcl44-esl29-rsm2-rcm44-esm100-rsr2-rcr11-esr310,exr/ReadingArea_rsl2-rcl44-esl29-rsm2-rcm44-esm100-rsr2-rcr11-esr310.exr,ReadingArea_rsl2-rcl44-esl29-rsm2-rcm44-esm100-rsr2-rcr11-esr310.npz,,,,,0,61,61,341,,right,red,4.92,725.3833680152893,725.8289790153503,,1,,3,10,brightness,readingArea,realistic,75,2023-03-20_14h50.43.810,tripletExp_regina_11082022,2022.2.4,119.6430934939869,
2,7,11,2,0.25,0.298245614035088,2,0.111111111111111,1.0,2,1.0,1.0,ReadingArea_rsl2-rcl25-esl29-rsm2-rcm11-esm100-rsr2-rcr100-esr100,exr/ReadingArea_rsl2-rcl25-esl29-rsm2-rcm11-esm100-rsr2-rcr100-esr100.exr,ReadingArea_rsl2-rcl25-esl29-rsm2-rcm11-esm100-rsr2-rcr100-esr100.npz,,,,,0,62,62,194,,left,green,0.83,727.5401411056519,,,1,,3,10,brightness,readingArea,realistic,75,2023-03-20_14h50.43.810,tripletExp_regina_11082022,2022.2.4,119.6430934939869,
7,2,6,2,0.111111111111111,1.0,2,0.25,0.298245614035088,2,0.027777777777778,1.0,ReadingArea_rsl2-rcl11-esl100-rsm2-rcm25-esm29-rsr2-rcr2-esr100,exr/ReadingArea_rsl2-rcl11-esl100-rsm2-rcm25-esm29-rsr2-rcr2-esr100.exr,ReadingArea_rsl2-rcl11-esl100-rsm2-rcm25-esm29-rsr2-rcr2-esr100.npz,,,,,0,63,63,506,,left,green,0.93,729.7252831459045,730.1777429580688,,1,,3,10,brightness,readingArea,realistic,75,2023-03-20_14h50.43.810,tripletExp_regina_11082022,2022.2.4,119.6430934939869,
12,3,0,2,0.027777777777778,3.10526315789474,2,0.444444444444444,0.298245614035088,2,0.027777777777778,0.298245614035088,ReadingArea_rsl2-rcl2-esl310-rsm2-rcm44-esm29-rsr2-rcr2-esr29,exr/ReadingArea_rsl2-rcl2-esl310-rsm2-rcm44-esm29-rsr2-rcr2-esr29.exr,ReadingArea_rsl2-rcl2-esl310-rsm2-rcm44-esm29-rsr2-rcr2-esr29.npz,,,,,0,64,64,502,,left,green,0.93,731.8684239387512,732.3134360313416,,1,,3,10,brightness,readingArea,realistic,75,2023-03-20_14h50.43.810,tripletExp_regina_11082022,2022.2.4,119.6430934939869,
12,5,4,2,0.027777777777778,3.10526315789474,2,1.0,0.298245614035088,2,0.694444444444444,0.298245614035088,ReadingArea_rsl2-rcl2-esl310-rsm2-rcm100-esm29-rsr2-rcr69-esr29,exr/ReadingArea_rsl2-rcl2-esl310-rsm2-rcm100-esm29-rsr2-rcr69-esr29.exr,ReadingArea_rsl2-rcl2-esl310-rsm2-rcm100-esm29-rsr2-rcr69-esr29.npz,,,,,0,65,65,566,,right,red,0.91,734.0029790401459,734.4409289360046,,1,,3,10,brightness,readingArea,realistic,75,2023-03-20_14h50.43.810,tripletExp_regina_11082022,2022.2.4,119.6430934939869,
10,4,13,2,0.694444444444444,1.0,2,0.694444444444444,0.298245614035088,2,0.111111111111111,3.10526315789474,ReadingArea_rsl2-rcl69-esl100-rsm2-rcm69-esm29-rsr2-rcr11-esr310,exr/ReadingArea_rsl2-rcl69-esl100-rsm2-rcm69-esm29-rsr2-rcr11-esr310.exr,ReadingArea_rsl2-rcl69-esl100-rsm2-rcm69-esm29-rsr2-rcr11-esr310.npz,,,,,0,66,66,24,,right,red,0.8,736.1326999664307,,,1,,3,10,brightness,readingArea,realistic,75,2023-03-20_14h50.43.810,tripletExp_regina_11082022,2022.2.4,119.6430934939869,
12,5,2,2,0.027777777777778,3.10526315789474,2,1.0,0.298245614035088,2,0.25,0.298245614035088,ReadingArea_rsl2-rcl2-esl310-rsm2-rcm100-esm29-rsr2-rcr25-esr29,exr/ReadingArea_rsl2-rcl2-esl310-rsm2-rcm100-esm29-rsr2-rcr25-esr29.exr,ReadingArea_rsl2-rcl2-esl310-rsm2-rcm100-esm29-rsr2-rcr25-esr29.npz,,,,,0,67,67,415,,right,red,1.4,738.2940490245819,738.7256031036377,,1,,3,10,brightness,readingArea,realistic,75,2023-03-20_14h50.43.810,tripletExp_regina_11082022,2022.2.4,119.6430934939869,
14,3,6,2,0.25,3.10526315789474,2,0.444444444444444,0.298245614035088,2,0.027777777777778,1.0,ReadingArea_rsl2-rcl25-esl310-rsm2-rcm44-esm29-rsr2-rcr2-esr100,exr/ReadingArea_rsl2-rcl25-esl310-rsm2-rcm44-esm29-rsr2-rcr2-esr100.exr,ReadingArea_rsl2-rcl25-esl310-rsm2-rcm44-esm29-rsr2-rcr2-esr100.npz,,,,,0,68,68,244,,left,green,3.09,742.199548959732,742.6746301651001,,1,,3,10,brightness,readingArea,realistic,75,2023-03-20_14h50.43.810,tripletExp_regina_11082022,2022.2.4,119.6430934939869,
14,12,9,2,0.25,3.10526315789474,2,0.027777777777778,3.10526315789474,2,0.444444444444444,1.0,ReadingArea_rsl2-rcl25-esl310-rsm2-rcm2-esm310-rsr2-rcr44-esr100,exr/ReadingArea_rsl2-rcl25-esl310-rsm2-rcm2-esm310-rsr2-rcr44-esr100.exr,ReadingArea_rsl2-rcl25-esl310-rsm2-rcm2-esm310-rsr2-rcr44-esr100.npz,,,,,0,69,69,40,,right,red,1.48,744.3830270767212,744.826534986496,,1,,3,10,brightness,readingArea,realistic,75,2023-03-20_14h50.43.810,tripletExp_regina_11082022,2022.2.4,119.6430934939869,
6,5,11,2,0.027777777777778,1.0,2,1.0,0.298245614035088,2,1.0,1.0,ReadingArea_rsl2-rcl2-esl100-rsm2-rcm100-esm29-rsr2-rcr100-esr100,exr/ReadingArea_rsl2-rcl2-esl100-rsm2-rcm100-esm29-rsr2-rcr100-esr100.exr,ReadingArea_rsl2-rcl2-esl100-rsm2-rcm100-esm29-rsr2-rcr100-esr100.npz,,,,,0,70,70,289,,right,red,1.3,746.5466980934143,747.0043730735779,,1,,3,10,brightness,readingArea,realistic,75,2023-03-20_14h50.43.810,tripletExp_regina_11082022,2022.2.4,119.6430934939869,
13,3,5,2,0.111111111111111,3.10526315789474,2,0.444444444444444,0.298245614035088,2,1.0,0.298245614035088,ReadingArea_rsl2-rcl11-esl310-rsm2-rcm44-esm29-rsr2-rcr100-esr29,exr/ReadingArea_rsl2-rcl11-esl310-rsm2-rcm44-esm29-rsr2-rcr100-esr29.exr,ReadingArea_rsl2-rcl11-esl310-rsm2-rcm44-esm29-rsr2-rcr100-esr29.npz,,,,,0,71,71,398,,left,green,4.75,752.2219331264496,752.7468190193176,,1,,3,10,brightness,readingArea,realistic,75,2023-03-20_14h50.43.810,tripletExp_regina_11082022,2022.2.4,119.6430934939869,
8,13,9,2,0.25,1.0,2,0.111111111111111,3.10526315789474,2,0.444444444444444,1.0,ReadingArea_rsl2-rcl25-esl100-rsm2-rcm11-esm310-rsr2-rcr44-esr100,exr/ReadingArea_rsl2-rcl25-esl100-rsm2-rcm11-esm310-rsr2-rcr44-esr100.exr,ReadingArea_rsl2-rcl25-esl100-rsm2-rcm11-esm310-rsr2-rcr44-esr100.npz,,,,,0,72,72,487,,left,green,1.41,754.4702229499817,754.9200229644775,,1,,3,10,brightness,readingArea,realistic,75,2023-03-20_14h50.43.810,tripletExp_regina_11082022,2022.2.4,119.6430934939869,
12,6,7,2,0.027777777777778,3.10526315789474,2,0.027777777777778,1.0,2,0.111111111111111,1.0,ReadingArea_rsl2-rcl2-esl310-rsm2-rcm2-esm100-rsr2-rcr11-esr100,exr/ReadingArea_rsl2-rcl2-esl310-rsm2-rcm2-esm100-rsr2-rcr11-esr100.exr,ReadingArea_rsl2-rcl2-esl310-rsm2-rcm2-esm100-rsr2-rcr11-esr100.npz,,,,,0,73,73,308,,left,green,1.25,756.6168510913849,757.0405769348145,,1,,3,10,brightness,readingArea,realistic,75,2023-03-20_14h50.43.810,tripletExp_regina_11082022,2022.2.4,119.6430934939869,
14,7,0,2,0.25,3.10526315789474,2,0.111111111111111,1.0,2,0.027777777777778,0.298245614035088,ReadingArea_rsl2-rcl25-esl310-rsm2-rcm11-esm100-rsr2-rcr2-esr29,exr/ReadingArea_rsl2-rcl25-esl310-rsm2-rcm11-esm100-rsr2-rcr2-esr29.exr,ReadingArea_rsl2-rcl25-esl310-rsm2-rcm11-esm100-rsr2-rcr2-esr29.npz,,,,,0,74,74,412,,left,green,1.35,758.759850025177,758.9602320194244,,1,,3,10,brightness,readingArea,realistic,75,2023-03-20_14h50.43.810,tripletExp_regina_11082022,2022.2.4,119.6430934939869,
12,7,1,2,0.027777777777778,3.10526315789474,2,0.111111111111111,1.0,2,0.111111111111111,0.298245614035088,ReadingArea_rsl2-rcl2-esl310-rsm2-rcm11-esm100-rsr2-rcr11-esr29,exr/ReadingArea_rsl2-rcl2-esl310-rsm2-rcm11-esm100-rsr2-rcr11-esr29.exr,ReadingArea_rsl2-rcl2-esl310-rsm2-rcm11-esm100-rsr2-rcr11-esr29.npz,,,,,0,75,75,264,,right,red,1.22,761.9826800823212,762.465723991394,,2,,3,10,brightness,readingArea,realistic,75,2023-03-20_14h50.43.810,tripletExp_regina_11082022,2022.2.4,119.6430934939869,
10,7,11,2,0.694444444444444,1.0,2,0.111111111111111,1.0,2,1.0,1.0,ReadingArea_rsl2-rcl69-esl100-rsm2-rcm11-esm100-rsr2-rcr100-esr100,exr/ReadingArea_rsl2-rcl69-esl100-rsm2-rcm11-esm100-rsr2-rcr100-esr100.exr,ReadingArea_rsl2-rcl69-esl100-rsm2-rcm11-esm100-rsr2-rcr100-esr100.npz,,,,,0,76,76,542,,left,green,1.39,764.1644649505615,764.6169240474701,,2,,3,10,brightness,readingArea,realistic,75,2023-03-20_14h50.43.810,tripletExp_regina_11082022,2022.2.4,119.6430934939869,
7,2,0,2,0.111111111111111,1.0,2,0.25,0.298245614035088,2,0.027777777777778,0.298245614035088,ReadingArea_rsl2-rcl11-esl100-rsm2-rcm25-esm29-rsr2-rcr2-esr29,exr/ReadingArea_rsl2-rcl11-esl100-rsm2-rcm25-esm29-rsr2-rcr2-esr29.exr,ReadingArea_rsl2-rcl11-esl100-rsm2-rcm25-esm29-rsr2-rcr2-esr29.npz,,,,,0,77,77,520,,left,green,0.81,766.3155889511108,766.767560005188,,2,,3,10,brightness,readingArea,realistic,75,2023-03-20_14h50.43.810,tripletExp_regina_11082022,2022.2.4,119.6430934939869,
7,10,4,2,0.111111111111111,1.0,2,0.694444444444444,1.0,2,0.694444444444444,0.298245614035088,ReadingArea_rsl2-rcl11-esl100-rsm2-rcm69-esm100-rsr2-rcr69-esr29,exr/ReadingArea_rsl2-rcl11-esl100-rsm2-rcm69-esm100-rsr2-rcr69-esr29.exr,ReadingArea_rsl2-rcl11-esl100-rsm2-rcm69-esm100-rsr2-rcr69-esr29.npz,,,,,0,78,78,46,,right,red,0.86,768.4856519699097,768.9103510379791,,2,,3,10,brightness,readingArea,realistic,75,2023-03-20_14h50.43.810,tripletExp_regina_11082022,2022.2.4,119.6430934939869,
0,1,7,2,0.027777777777778,0.298245614035088,2,0.111111111111111,0.298245614035088,2,0.111111111111111,1.0,ReadingArea_rsl2-rcl2-esl29-rsm2-rcm11-esm29-rsr2-rcr11-esr100,exr/ReadingArea_rsl2-rcl2-esl29-rsm2-rcm11-esm29-rsr2-rcr11-esr100.exr,ReadingArea_rsl2-rcl2-esl29-rsm2-rcm11-esm29-rsr2-rcr11-esr100.npz,,,,,0,79,79,243,,right,red,1.31,770.5982749462128,771.0557610988617,,2,,3,10,brightness,readingArea,realistic,75,2023-03-20_14h50.43.810,tripletExp_regina_11082022,2022.2.4,119.6430934939869,
14,8,1,2,0.25,3.10526315789474,2,0.25,1.0,2,0.111111111111111,0.298245614035088,ReadingArea_rsl2-rcl25-esl310-rsm2-rcm25-esm100-rsr2-rcr11-esr29,exr/ReadingArea_rsl2-rcl25-esl310-rsm2-rcm25-esm100-rsr2-rcr11-esr29.exr,ReadingArea_rsl2-rcl25-esl310-rsm2-rcm25-esm100-rsr2-rcr11-esr29.npz,,,,,0,80,80,141,,right,red,1.1,772.7516281604767,773.1843619346619,,2,,3,10,brightness,readingArea,realistic,75,2023-03-20_14h50.43.810,tripletExp_regina_11082022,2022.2.4,119.6430934939869,
10,13,6,2,0.694444444444444,1.0,2,0.111111111111111,3.10526315789474,2,0.027777777777778,1.0,ReadingArea_rsl2-rcl69-esl100-rsm2-rcm11-esm310-rsr2-rcr2-esr100,exr/ReadingArea_rsl2-rcl69-esl100-rsm2-rcm11-esm310-rsr2-rcr2-esr100.exr,ReadingArea_rsl2-rcl69-esl100-rsm2-rcm11-esm310-rsr2-rcr2-esr100.npz,,,,,0,81,81,351,,left,green,1.05,774.8761279582977,775.3061189651489,,2,,3,10,brightness,readingArea,realistic,75,2023-03-20_14h50.43.810,tripletExp_regina_11082022,2022.2.4,119.6430934939869,
12,9,13,2,0.027777777777778,3.10526315789474,2,0.444444444444444,1.0,2,0.111111111111111,3.10526315789474,ReadingArea_rsl2-rcl2-esl310-rsm2-rcm44-esm100-rsr2-rcr11-esr310,exr/ReadingArea_rsl2-rcl2-esl310-rsm2-rcm44-esm100-rsr2-rcr11-esr310.exr,ReadingArea_rsl2-rcl2-esl310-rsm2-rcm44-esm100-rsr2-rcr11-esr310.npz,,,,,0,82,82,529,,right,red,1.03,777.0274529457092,777.4771871566772,,2,,3,10,brightness,readingArea,realistic,75,2023-03-20_14h50.43.810,tripletExp_regina_11082022,2022.2.4,119.6430934939869,
8,11,1,2,0.25,1.0,2,1.0,1.0,2,0.111111111111111,0.298245614035088,ReadingArea_rsl2-rcl25-esl100-rsm2-rcm100-esm100-rsr2-rcr11-esr29,exr/ReadingArea_rsl2-rcl25-esl100-rsm2-rcm100-esm100-rsr2-rcr11-esr29.exr,ReadingArea_rsl2-rcl25-esl100-rsm2-rcm100-esm100-rsr2-rcr11-esr29.npz,,,,,0,83,83,132,,left,green,0.93,779.169310092926,779.6222641468048,,2,,3,10,brightness,readingArea,realistic,75,2023-03-20_14h50.43.810,tripletExp_regina_11082022,2022.2.4,119.6430934939869,
11,8,2,2,1.0,1.0,2,0.25,1.0,2,0.25,0.298245614035088,ReadingArea_rsl2-rcl100-esl100-rsm2-rcm25-esm100-rsr2-rcr25-esr29,exr/ReadingArea_rsl2-rcl100-esl100-rsm2-rcm25-esm100-rsr2-rcr25-esr29.exr,ReadingArea_rsl2-rcl100-esl100-rsm2-rcm25-esm100-rsr2-rcr25-esr29.npz,,,,,0,84,84,406,,right,red,1.05,781.3159959316254,781.7608089447021,,2,,3,10,brightness,readingArea,realistic,75,2023-03-20_14h50.43.810,tripletExp_regina_11082022,2022.2.4,119.6430934939869,
1,5,14,2,0.111111111111111,0.298245614035088,2,1.0,0.298245614035088,2,0.25,3.10526315789474,ReadingArea_rsl2-rcl11-esl29-rsm2-rcm100-esm29-rsr2-rcr25-esr310,exr/ReadingArea_rsl2-rcl11-esl29-rsm2-rcm100-esm29-rsr2-rcr25-esr310.exr,ReadingArea_rsl2-rcl11-esl29-rsm2-rcm100-esm29-rsr2-rcr25-esr310.npz,,,,,0,85,85,191,,right,red,1.25,783.4516201019287,783.921159029007,,2,,3,10,brightness,readingArea,realistic,75,2023-03-20_14h50.43.810,tripletExp_regina_11082022,2022.2.4,119.6430934939869,
11,13,8,2,1.0,1.0,2,0.111111111111111,3.10526315789474,2,0.25,1.0,ReadingArea_rsl2-rcl100-esl100-rsm2-rcm11-esm310-rsr2-rcr25-esr100,exr/ReadingArea_rsl2-rcl100-esl100-rsm2-rcm11-esm310-rsr2-rcr25-esr100.exr,ReadingArea_rsl2-rcl100-esl100-rsm2-rcm11-esm310-rsr2-rcr25-esr100.npz,,,,,0,86,86,198,,right,red,0.93,785.6094701290131,786.055093050003,,2,,3,10,brightness,readingArea,realistic,75,2023-03-20_14h50.43.810,tripletExp_regina_11082022,2022.2.4,119.6430934939869,
13,7,6,2,0.111111111111111,3.10526315789474,2,0.111111111111111,1.0,2,0.027777777777778,1.0,ReadingArea_rsl2-rcl11-esl310-rsm2-rcm11-esm100-rsr2-rcr2-esr100,exr/ReadingArea_rsl2-rcl11-esl310-rsm2-rcm11-esm100-rsr2-rcr2-esr100.exr,ReadingArea_rsl2-rcl11-esl310-rsm2-rcm11-esm100-rsr2-rcr2-esr100.npz,,,,,0,87,87,283,,left,green,0.66,787.745964050293,788.195436000824,,2,,3,10,brightness,readingArea,realistic,75,2023-03-20_14h50.43.810,tripletExp_regina_11082022,2022.2.4,119.6430934939869,
2,12,13,2,0.25,0.298245614035088,2,0.027777777777778,3.10526315789474,2,0.111111111111111,3.10526315789474,ReadingArea_rsl2-rcl25-esl29-rsm2-rcm2-esm310-rsr2-rcr11-esr310,exr/ReadingArea_rsl2-rcl25-esl29-rsm2-rcm2-esm310-rsr2-rcr11-esr310.exr,ReadingArea_rsl2-rcl25-esl29-rsm2-rcm2-esm310-rsr2-rcr11-esr310.npz,,,,,0,88,88,232,,left,green,2.71,791.6684341430664,792.1302280426025,,2,,3,10,brightness,readingArea,realistic,75,2023-03-20_14h50.43.810,tripletExp_regina_11082022,2022.2.4,119.6430934939869,
0,8,7,2,0.027777777777778,0.298245614035088,2,0.25,1.0,2,0.111111111111111,1.0,ReadingArea_rsl2-rcl2-esl29-rsm2-rcm25-esm100-rsr2-rcr11-esr100,exr/ReadingArea_rsl2-rcl2-esl29-rsm2-rcm25-esm100-rsr2-rcr11-esr100.exr,ReadingArea_rsl2-rcl2-esl29-rsm2-rcm25-esm100-rsr2-rcr11-esr100.npz,,,,,0,89,89,9,,right,red,0.81,793.8170490264893,,,2,,3,10,brightness,readingArea,realistic,75,2023-03-20_14h50.43.810,tripletExp_regina_11082022,2022.2.4,119.6430934939869,
1,5,7,2,0.111111111111111,0.298245614035088,2,1.0,0.298245614035088,2,0.111111111111111,1.0,ReadingArea_rsl2-rcl11-esl29-rsm2-rcm100-esm29-rsr2-rcr11-esr100,exr/ReadingArea_rsl2-rcl11-esl29-rsm2-rcm100-esm29-rsr2-rcr11-esr100.exr,ReadingArea_rsl2-rcl11-esl29-rsm2-rcm100-esm29-rsr2-rcr11-esr100.npz,,,,,0,90,90,197,,right,red,1.69,796.0033841133118,796.4321300983429,,2,,3,10,brightness,readingArea,realistic,75,2023-03-20_14h50.43.810,tripletExp_regina_11082022,2022.2.4,119.6430934939869,
13,0,14,2,0.111111111111111,3.10526315789474,2,0.027777777777778,0.298245614035088,2,0.25,3.10526315789474,ReadingArea_rsl2-rcl11-esl310-rsm2-rcm2-esm29-rsr2-rcr25-esr310,exr/ReadingArea_rsl2-rcl11-esl310-rsm2-rcm2-esm29-rsr2-rcr25-esr310.exr,ReadingArea_rsl2-rcl11-esl310-rsm2-rcm2-esm29-rsr2-rcr25-esr310.npz,,,,,0,91,91,278,,left,green,1.32,798.143541097641,798.6582570075989,,2,,3,10,brightness,readingArea,realistic,75,2023-03-20_14h50.43.810,tripletExp_regina_11082022,2022.2.4,119.6430934939869,
6,4,13,2,0.027777777777778,1.0,2,0.694444444444444,0.298245614035088,2,0.111111111111111,3.10526315789474,ReadingArea_rsl2-rcl2-esl100-rsm2-rcm69-esm29-rsr2-rcr11-esr310,exr/ReadingArea_rsl2-rcl2-esl100-rsm2-rcm69-esm29-rsr2-rcr11-esr310.exr,ReadingArea_rsl2-rcl2-esl100-rsm2-rcm69-esm29-rsr2-rcr11-esr310.npz,,,,,0,92,92,202,,right,red,0.84,800.3540580272675,800.8119430541992,,2,,3,10,brightness,readingArea,realistic,75,2023-03-20_14h50.43.810,tripletExp_regina_11082022,2022.2.4,119.6430934939869,
3,14,5,2,0.444444444444444,0.298245614035088,2,0.25,3.10526315789474,2,1.0,0.298245614035088,ReadingArea_rsl2-rcl44-esl29-rsm2-rcm25-esm310-rsr2-rcr100-esr29,exr/ReadingArea_rsl2-rcl44-esl29-rsm2-rcm25-esm310-rsr2-rcr100-esr29.exr,ReadingArea_rsl2-rcl44-esl29-rsm2-rcm25-esm310-rsr2-rcr100-esr29.npz,,,,,0,93,93,131,,right,red,1.42,802.516930103302,802.9367821216583,,2,,3,10,brightness,readingArea,realistic,75,2023-03-20_14h50.43.810,tripletExp_regina_11082022,2022.2.4,119.6430934939869,
14,4,8,2,0.25,3.10526315789474,2,0.694444444444444,0.298245614035088,2,0.25,1.0,ReadingArea_rsl2-rcl25-esl310-rsm2-rcm69-esm29-rsr2-rcr25-esr100,exr/ReadingArea_rsl2-rcl25-esl310-rsm2-rcm69-esm29-rsr2-rcr25-esr100.exr,ReadingArea_rsl2-rcl25-esl310-rsm2-rcm69-esm29-rsr2-rcr25-esr100.npz,,,,,0,94,94,253,,right,red,1.26,804.6318480968475,805.0814499855042,,2,,3,10,brightness,readingArea,realistic,75,2023-03-20_14h50.43.810,tripletExp_regina_11082022,2022.2.4,119.6430934939869,
1,14,7,2,0.111111111111111,0.298245614035088,2,0.25,3.10526315789474,2,0.111111111111111,1.0,ReadingArea_rsl2-rcl11-esl29-rsm2-rcm25-esm310-rsr2-rcr11-esr100,exr/ReadingArea_rsl2-rcl11-esl29-rsm2-rcm25-esm310-rsr2-rcr11-esr100.exr,ReadingArea_rsl2-rcl11-esl29-rsm2-rcm25-esm310-rsr2-rcr11-esr100.npz,,,,,0,95,95,583,,right,red,1.4,806.8024411201477,,,2,,3,10,brightness,readingArea,realistic,75,2023-03-20_14h50.43.810,tripletExp_regina_11082022,2022.2.4,119.6430934939869,
6,3,1,2,0.027777777777778,1.0,2,0.444444444444444,0.298245614035088,2,0.111111111111111,0.298245614035088,ReadingArea_rsl2-rcl2-esl100-rsm2-rcm44-esm29-rsr2-rcr11-esr29,exr/ReadingArea_rsl2-rcl2-esl100-rsm2-rcm44-esm29-rsr2-rcr11-esr29.exr,ReadingArea_rsl2-rcl2-esl100-rsm2-rcm44-esm29-rsr2-rcr11-esr29.npz,,,,,0,96,96,430,,right,red,1.04,808.9399011135101,809.3749930858612,,2,,3,10,brightness,readingArea,realistic,75,2023-03-20_14h50.43.810,tripletExp_regina_11082022,2022.2.4,119.6430934939869,
8,9,6,2,0.25,1.0,2,0.444444444444444,1.0,2,0.027777777777778,1.0,ReadingArea_rsl2-rcl25-esl100-rsm2-rcm44-esm100-rsr2-rcr2-esr100,exr/ReadingArea_rsl2-rcl25-esl100-rsm2-rcm44-esm100-rsr2-rcr2-esr100.exr,ReadingArea_rsl2-rcl25-esl100-rsm2-rcm44-esm100-rsr2-rcr2-esr100.npz,,,,,0,97,97,3,,left,green,1.35,811.0784101486206,,,2,,3,10,brightness,readingArea,realistic,75,2023-03-20_14h50.43.810,tripletExp_regina_11082022,2022.2.4,119.6430934939869,
2,11,7,2,0.25,0.298245614035088,2,1.0,1.0,2,0.111111111111111,1.0,ReadingArea_rsl2-rcl25-esl29-rsm2-rcm100-esm100-rsr2-rcr11-esr100,exr/ReadingArea_rsl2-rcl25-esl29-rsm2-rcm100-esm100-rsr2-rcr11-esr100.exr,ReadingArea_rsl2-rcl25-esl29-rsm2-rcm100-esm100-rsr2-rcr11-esr100.npz,,,,,0,98,98,576,,right,red,3.56,815.008111000061,815.4701480865479,,2,,3,10,brightness,readingArea,realistic,75,2023-03-20_14h50.43.810,tripletExp_regina_11082022,2022.2.4,119.6430934939869,
12,9,14,2,0.027777777777778,3.10526315789474,2,0.444444444444444,1.0,2,0.25,3.10526315789474,ReadingArea_rsl2-rcl2-esl310-rsm2-rcm44-esm100-rsr2-rcr25-esr310,exr/ReadingArea_rsl2-rcl2-esl310-rsm2-rcm44-esm100-rsr2-rcr25-esr310.exr,ReadingArea_rsl2-rcl2-esl310-rsm2-rcm44-esm100-rsr2-rcr25-esr310.npz,,,,,0,99,99,123,,right,red,0.98,817.169193983078,817.6279590129852,,2,,3,10,brightness,readingArea,realistic,75,2023-03-20_14h50.43.810,tripletExp_regina_11082022,2022.2.4,119.6430934939869,
9,12,11,2,0.444444444444444,1.0,2,0.027777777777778,3.10526315789474,2,1.0,1.0,ReadingArea_rsl2-rcl44-esl100-rsm2-rcm2-esm310-rsr2-rcr100-esr100,exr/ReadingArea_rsl2-rcl44-esl100-rsm2-rcm2-esm310-rsr2-rcr100-esr100.exr,ReadingArea_rsl2-rcl44-esl100-rsm2-rcm2-esm310-rsr2-rcr100-esr100.npz,,,,,0,100,100,144,,left,green,1.23,819.339597940445,819.7735021114349,,2,,3,10,brightness,readingArea,realistic,75,2023-03-20_14h50.43.810,tripletExp_regina_11082022,2022.2.4,119.6430934939869,
9,13,0,2,0.444444444444444,1.0,2,0.111111111111111,3.10526315789474,2,0.027777777777778,0.298245614035088,ReadingArea_rsl2-rcl44-esl100-rsm2-rcm11-esm310-rsr2-rcr2-esr29,exr/ReadingArea_rsl2-rcl44-esl100-rsm2-rcm11-esm310-rsr2-rcr2-esr29.exr,ReadingArea_rsl2-rcl44-esl100-rsm2-rcm11-esm310-rsr2-rcr2-esr29.npz,,,,,0,101,101,205,,left,green,0.67,821.4677820205688,821.9196910858154,,2,,3,10,brightness,readingArea,realistic,75,2023-03-20_14h50.43.810,tripletExp_regina_11082022,2022.2.4,119.6430934939869,
2,9,8,2,0.25,0.298245614035088,2,0.444444444444444,1.0,2,0.25,1.0,ReadingArea_rsl2-rcl25-esl29-rsm2-rcm44-esm100-rsr2-rcr25-esr100,exr/ReadingArea_rsl2-rcl25-esl29-rsm2-rcm44-esm100-rsr2-rcr25-esr100.exr,ReadingArea_rsl2-rcl25-esl29-rsm2-rcm44-esm100-rsr2-rcr25-esr100.npz,,,,,0,102,102,407,,right,red,1.2,823.6172370910645,824.0658910274506,,2,,3,10,brightness,readingArea,realistic,75,2023-03-20_14h50.43.810,tripletExp_regina_11082022,2022.2.4,119.6430934939869,
8,6,5,2,0.25,1.0,2,0.027777777777778,1.0,2,1.0,0.298245614035088,ReadingArea_rsl2-rcl25-esl100-rsm2-rcm2-esm100-rsr2-rcr100-esr29,exr/ReadingArea_rsl2-rcl25-esl100-rsm2-rcm2-esm100-rsr2-rcr100-esr29.exr,ReadingArea_rsl2-rcl25-esl100-rsm2-rcm2-esm100-rsr2-rcr100-esr29.npz,,,,,0,103,103,241,,left,green,1.33,825.7533950805664,826.1880791187286,,2,,3,10,brightness,readingArea,realistic,75,2023-03-20_14h50.43.810,tripletExp_regina_11082022,2022.2.4,119.6430934939869,
12,6,9,2,0.027777777777778,3.10526315789474,2,0.027777777777778,1.0,2,0.444444444444444,1.0,ReadingArea_rsl2-rcl2-esl310-rsm2-rcm2-esm100-rsr2-rcr44-esr100,exr/ReadingArea_rsl2-rcl2-esl310-rsm2-rcm2-esm100-rsr2-rcr44-esr100.exr,ReadingArea_rsl2-rcl2-esl310-rsm2-rcm2-esm100-rsr2-rcr44-esr100.npz,,,,,0,104,104,177,,left,green,0.75,827.8971779346466,,,2,,3,10,brightness,readingArea,realistic,75,2023-03-20_14h50.43.810,tripletExp_regina_11082022,2022.2.4,119.6430934939869,
7,8,14,2,0.111111111111111,1.0,2,0.25,1.0,2,0.25,3.10526315789474,ReadingArea_rsl2-rcl11-esl100-rsm2-rcm25-esm100-rsr2-rcr25-esr310,exr/ReadingArea_rsl2-rcl11-esl100-rsm2-rcm25-esm100-rsr2-rcr25-esr310.exr,ReadingArea_rsl2-rcl11-esl100-rsm2-rcm25-esm100-rsr2-rcr25-esr310.npz,,,,,0,105,105,300,,left,green,0.96,830.0429029464722,830.4873239994049,,2,,3,10,brightness,readingArea,realistic,75,2023-03-20_14h50.43.810,tripletExp_regina_11082022,2022.2.4,119.6430934939869,
6,13,8,2,0.027777777777778,1.0,2,0.111111111111111,3.10526315789474,2,0.25,1.0,ReadingArea_rsl2-rcl2-esl100-rsm2-rcm11-esm310-rsr2-rcr25-esr100,exr/ReadingArea_rsl2-rcl2-esl100-rsm2-rcm11-esm310-rsr2-rcr25-esr100.exr,ReadingArea_rsl2-rcl2-esl100-rsm2-rcm11-esm310-rsr2-rcr25-esr100.npz,,,,,0,106,106,535,,right,red,0.92,832.191045999527,832.6305661201477,,2,,3,10,brightness,readingArea,realistic,75,2023-03-20_14h50.43.810,tripletExp_regina_11082022,2022.2.4,119.6430934939869,
9,0,14,2,0.444444444444444,1.0,2,0.027777777777778,0.298245614035088,2,0.25,3.10526315789474,ReadingArea_rsl2-rcl44-esl100-rsm2-rcm2-esm29-rsr2-rcr25-esr310,exr/ReadingArea_rsl2-rcl44-esl100-rsm2-rcm2-esm29-rsr2-rcr25-esr310.exr,ReadingArea_rsl2-rcl44-esl100-rsm2-rcm2-esm29-rsr2-rcr25-esr310.npz,,,,,0,107,107,550,,left,green,1.32,834.346645116806,834.7902970314026,,2,,3,10,brightness,readingArea,realistic,75,2023-03-20_14h50.43.810,tripletExp_regina_11082022,2022.2.4,119.6430934939869,
5,2,10,2,1.0,0.298245614035088,2,0.25,0.298245614035088,2,0.694444444444444,1.0,ReadingArea_rsl2-rcl100-esl29-rsm2-rcm25-esm29-rsr2-rcr69-esr100,exr/ReadingArea_rsl2-rcl100-esl29-rsm2-rcm25-esm29-rsr2-rcr69-esr100.exr,ReadingArea_rsl2-rcl100-esl29-rsm2-rcm25-esm29-rsr2-rcr69-esr100.npz,,,,,0,108,108,595,,left,green,0.94,836.4858951568604,836.9382441043854,,2,,3,10,brightness,readingArea,realistic,75,2023-03-20_14h50.43.810,tripletExp_regina_11082022,2022.2.4,119.6430934939869,
14,10,9,2,0.25,3.10526315789474,2,0.694444444444444,1.0,2,0.444444444444444,1.0,ReadingArea_rsl2-rcl25-esl310-rsm2-rcm69-esm100-rsr2-rcr44-esr100,exr/ReadingArea_rsl2-rcl25-esl310-rsm2-rcm69-esm100-rsr2-rcr44-esr100.exr,ReadingArea_rsl2-rcl25-esl310-rsm2-rcm69-esm100-rsr2-rcr44-esr100.npz,,,,,0,109,109,402,,left,green,0.87,838.6617541313171,839.0890970230103,,2,,3,10,brightness,readingArea,realistic,75,2023-03-20_14h50.43.810,tripletExp_regina_11082022,2022.2.4,119.6430934939869,
14,6,7,2,0.25,3.10526315789474,2,0.027777777777778,1.0,2,0.111111111111111,1.0,ReadingArea_rsl2-rcl25-esl310-rsm2-rcm2-esm100-rsr2-rcr11-esr100,exr/ReadingArea_rsl2-rcl25-esl310-rsm2-rcm2-esm100-rsr2-rcr11-esr100.exr,ReadingArea_rsl2-rcl25-esl310-rsm2-rcm2-esm100-rsr2-rcr11-esr100.npz,,,,,0,110,110,306,,right,red,1.1,840.7825400829315,,,2,,3,10,brightness,readingArea,realistic,75,2023-03-20_14h50.43.810,tripletExp_regina_11082022,2022.2.4,119.6430934939869,
5,13,6,2,1.0,0.298245614035088,2,0.111111111111111,3.10526315789474,2,0.027777777777778,1.0,ReadingArea_rsl2-rcl100-esl29-rsm2-rcm11-esm310-rsr2-rcr2-esr100,exr/ReadingArea_rsl2-rcl100-esl29-rsm2-rcm11-esm310-rsr2-rcr2-esr100.exr,ReadingArea_rsl2-rcl100-esl29-rsm2-rcm11-esm310-rsr2-rcr2-esr100.npz,,,,,0,111,111,263,,left,green,0.76,842.9295909404755,843.5289161205292,,2,,3,10,brightness,readingArea,realistic,75,2023-03-20_14h50.43.810,tripletExp_regina_11082022,2022.2.4,119.6430934939869,
12,10,5,2,0.027777777777778,3.10526315789474,2,0.694444444444444,1.0,2,1.0,0.298245614035088,ReadingArea_rsl2-rcl2-esl310-rsm2-rcm69-esm100-rsr2-rcr100-esr29,exr/ReadingArea_rsl2-rcl2-esl310-rsm2-rcm69-esm100-rsr2-rcr100-esr29.exr,ReadingArea_rsl2-rcl2-esl310-rsm2-rcm69-esm100-rsr2-rcr100-esr29.npz,,,,,0,112,112,470,,right,red,0.83,845.2147071361542,845.6512930393219,,2,,3,10,brightness,readingArea,realistic,75,2023-03-20_14h50.43.810,tripletExp_regina_11082022,2022.2.4,119.6430934939869,
7,12,0,2,0.111111111111111,1.0,2,0.027777777777778,3.10526315789474,2,0.027777777777778,0.298245614035088,ReadingArea_rsl2-rcl11-esl100-rsm2-rcm2-esm310-rsr2-rcr2-esr29,exr/ReadingArea_rsl2-rcl11-esl100-rsm2-rcm2-esm310-rsr2-rcr2-esr29.exr,ReadingArea_rsl2-rcl11-esl100-rsm2-rcm2-esm310-rsr2-rcr2-esr29.npz,,,,,0,113,113,425,,left,green,0.66,847.3409650325775,847.8971691131592,,2,,3,10,brightness,readingArea,realistic,75,2023-03-20_14h50.43.810,tripletExp_regina_11082022,2022.2.4,119.6430934939869,
5,3,0,2,1.0,0.298245614035088,2,0.444444444444444,0.298245614035088,2,0.027777777777778,0.298245614035088,ReadingArea_rsl2-rcl100-esl29-rsm2-rcm44-esm29-rsr2-rcr2-esr29,exr/ReadingArea_rsl2-rcl100-esl29-rsm2-rcm44-esm29-rsr2-rcr2-esr29.exr,ReadingArea_rsl2-rcl100-esl29-rsm2-rcm44-esm29-rsr2-rcr2-esr29.npz,,,,,0,114,114,303,,left,green,0.87,849.5841660499573,,,2,,3,10,brightness,readingArea,realistic,75,2023-03-20_14h50.43.810,tripletExp_regina_11082022,2022.2.4,119.6430934939869,
0,14,8,2,0.027777777777778,0.298245614035088,2,0.25,3.10526315789474,2,0.25,1.0,ReadingArea_rsl2-rcl2-esl29-rsm2-rcm25-esm310-rsr2-rcr25-esr100,exr/ReadingArea_rsl2-rcl2-esl29-rsm2-rcm25-esm310-rsr2-rcr25-esr100.exr,ReadingArea_rsl2-rcl2-esl29-rsm2-rcm25-esm310-rsr2-rcr25-esr100.npz,,,,,0,115,115,545,,right,red,0.63,851.7477960586548,852.1943500041962,,2,,3,10,brightness,readingArea,realistic,75,2023-03-20_14h50.43.810,tripletExp_regina_11082022,2022.2.4,119.6430934939869,
14,7,13,2,0.25,3.10526315789474,2,0.111111111111111,1.0,2,0.111111111111111,3.10526315789474,ReadingArea_rsl2-rcl25-esl310-rsm2-rcm11-esm100-rsr2-rcr11-esr310,exr/ReadingArea_rsl2-rcl25-esl310-rsm2-rcm11-esm100-rsr2-rcr11-esr310.exr,ReadingArea_rsl2-rcl25-esl310-rsm2-rcm11-esm100-rsr2-rcr11-esr310.npz,,,,,0,116,116,358,,right,red,0.97,853.8861570358276,854.3264141082764,,2,,3,10,brightness,readingArea,realistic,75,2023-03-20_14h50.43.810,tripletExp_regina_11082022,2022.2.4,119.6430934939869,
14,12,0,2,0.25,3.10526315789474,2,0.027777777777778,3.10526315789474,2,0.027777777777778,0.298245614035088,ReadingArea_rsl2-rcl25-esl310-rsm2-rcm2-esm310-rsr2-rcr2-esr29,exr/ReadingArea_rsl2-rcl25-esl310-rsm2-rcm2-esm310-rsr2-rcr2-esr29.exr,ReadingArea_rsl2-rcl25-esl310-rsm2-rcm2-esm310-rsr2-rcr2-esr29.npz,,,,,0,117,117,409,,right,red,1.1,856.0213661193848,856.6054470539093,,2,,3,10,brightness,readingArea,realistic,75,2023-03-20_14h50.43.810,tripletExp_regina_11082022,2022.2.4,119.6430934939869,
13,8,14,2,0.111111111111111,3.10526315789474,2,0.25,1.0,2,0.25,3.10526315789474,ReadingArea_rsl2-rcl11-esl310-rsm2-rcm25-esm100-rsr2-rcr25-esr310,exr/ReadingArea_rsl2-rcl11-esl310-rsm2-rcm25-esm100-rsr2-rcr25-esr310.exr,ReadingArea_rsl2-rcl11-esl310-rsm2-rcm25-esm100-rsr2-rcr25-esr310.npz,,,,,0,118,118,345,,left,green,1.61,858.2926681041718,858.7329530715942,,2,,3,10,brightness,readingArea,realistic,75,2023-03-20_14h50.43.810,tripletExp_regina_11082022,2022.2.4,119.6430934939869,
5,6,0,2,1.0,0.298245614035088,2,0.027777777777778,1.0,2,0.027777777777778,0.298245614035088,ReadingArea_rsl2-rcl100-esl29-rsm2-rcm2-esm100-rsr2-rcr2-esr29,exr/ReadingArea_rsl2-rcl100-esl29-rsm2-rcm2-esm100-rsr2-rcr2-esr29.exr,ReadingArea_rsl2-rcl100-esl29-rsm2-rcm2-esm100-rsr2-rcr2-esr29.npz,,,,,0,119,119,511,,right,red,0.91,860.4279100894928,,,2,,3,10,brightness,readingArea,realistic,75,2023-03-20_14h50.43.810,tripletExp_regina_11082022,2022.2.4,119.6430934939869,
7,3,12,2,0.111111111111111,1.0,2,0.444444444444444,0.298245614035088,2,0.027777777777778,3.10526315789474,ReadingArea_rsl2-rcl11-esl100-rsm2-rcm44-esm29-rsr2-rcr2-esr310,exr/ReadingArea_rsl2-rcl11-esl100-rsm2-rcm44-esm29-rsr2-rcr2-esr310.exr,ReadingArea_rsl2-rcl11-esl100-rsm2-rcm44-esm29-rsr2-rcr2-esr310.npz,,,,,0,120,120,443,,left,green,2.79,864.3743939399719,864.8203451633453,,2,,3,10,brightness,readingArea,realistic,75,2023-03-20_14h50.43.810,tripletExp_regina_11082022,2022.2.4,119.6430934939869,
6,12,7,2,0.027777777777778,1.0,2,0.027777777777778,3.10526315789474,2,0.111111111111111,1.0,ReadingArea_rsl2-rcl2-esl100-rsm2-rcm2-esm310-rsr2-rcr11-esr100,exr/ReadingArea_rsl2-rcl2-esl100-rsm2-rcm2-esm310-rsr2-rcr11-esr100.exr,ReadingArea_rsl2-rcl2-esl100-rsm2-rcm2-esm310-rsr2-rcr11-esr100.npz,,,,,0,121,121,157,,left,green,1.13,866.5353751182556,866.9750621318817,,2,,3,10,brightness,readingArea,realistic,75,2023-03-20_14h50.43.810,tripletExp_regina_11082022,2022.2.4,119.6430934939869,
3,9,10,2,0.444444444444444,0.298245614035088,2,0.444444444444444,1.0,2,0.694444444444444,1.0,ReadingArea_rsl2-rcl44-esl29-rsm2-rcm44-esm100-rsr2-rcr69-esr100,exr/ReadingArea_rsl2-rcl44-esl29-rsm2-rcm44-esm100-rsr2-rcr69-esr100.exr,ReadingArea_rsl2-rcl44-esl29-rsm2-rcm44-esm100-rsr2-rcr69-esr100.npz,,,,,0,122,122,581,,right,red,1.53,868.6868591308594,,,2,,3,10,brightness,readingArea,realistic,75,2023-03-20_14h50.43.810,tripletExp_regina_11082022,2022.2.4,119.6430934939869,
7,5,1,2,0.111111111111111,1.0,2,1.0,0.298245614035088,2,0.111111111111111,0.298245614035088,ReadingArea_rsl2-rcl11-esl100-rsm2-rcm100-esm29-rsr2-rcr11-esr29,exr/ReadingArea_rsl2-rcl11-esl100-rsm2-rcm100-esm29-rsr2-rcr11-esr29.exr,ReadingArea_rsl2-rcl11-esl100-rsm2-rcm100-esm29-rsr2-rcr11-esr29.npz,,,,,0,123,123,513,,left,green,1.19,870.8354980945587,871.4870021343231,,2,,3,10,brightness,readingArea,realistic,75,2023-03-20_14h50.43.810,tripletExp_regina_11082022,2022.2.4,119.6430934939869,
1,9,8,2,0.111111111111111,0.298245614035088,2,0.444444444444444,1.0,2,0.25,1.0,ReadingArea_rsl2-rcl11-esl29-rsm2-rcm44-esm100-rsr2-rcr25-esr100,exr/ReadingArea_rsl2-rcl11-esl29-rsm2-rcm44-esm100-rsr2-rcr25-esr100.exr,ReadingArea_rsl2-rcl11-esl29-rsm2-rcm44-esm100-rsr2-rcr25-esr100.npz,,,,,0,124,124,268,,right,red,1.2,873.1769649982452,873.6124000549316,,2,,3,10,brightness,readingArea,realistic,75,2023-03-20_14h50.43.810,tripletExp_regina_11082022,2022.2.4,119.6430934939869,
7,1,9,2,0.111111111111111,1.0,2,0.111111111111111,0.298245614035088,2,0.444444444444444,1.0,ReadingArea_rsl2-rcl11-esl100-rsm2-rcm11-esm29-rsr2-rcr44-esr100,exr/ReadingArea_rsl2-rcl11-esl100-rsm2-rcm11-esm29-rsr2-rcr44-esr100.exr,ReadingArea_rsl2-rcl11-esl100-rsm2-rcm11-esm29-rsr2-rcr44-esr100.npz,,,,,0,125,125,89,,left,green,0.79,875.3049671649933,,,2,,3,10,brightness,readingArea,realistic,75,2023-03-20_14h50.43.810,tripletExp_regina_11082022,2022.2.4,119.6430934939869,
1,11,14,2,0.111111111111111,0.298245614035088,2,1.0,1.0,2,0.25,3.10526315789474,ReadingArea_rsl2-rcl11-esl29-rsm2-rcm100-esm100-rsr2-rcr25-esr310,exr/ReadingArea_rsl2-rcl11-esl29-rsm2-rcm100-esm100-rsr2-rcr25-esr310.exr,ReadingArea_rsl2-rcl11-esl29-rsm2-rcm100-esm100-rsr2-rcr25-esr310.npz,,,,,0,126,126,399,,right,red,0.73,877.450483083725,877.9135711193085,,2,,3,10,brightness,readingArea,realistic,75,2023-03-20_14h50.43.810,tripletExp_regina_11082022,2022.2.4,119.6430934939869,
1,3,12,2,0.111111111111111,0.298245614035088,2,0.444444444444444,0.298245614035088,2,0.027777777777778,3.10526315789474,ReadingArea_rsl2-rcl11-esl29-rsm2-rcm44-esm29-rsr2-rcr2-esr310,exr/ReadingArea_rsl2-rcl11-esl29-rsm2-rcm44-esm29-rsr2-rcr2-esr310.exr,ReadingArea_rsl2-rcl11-esl29-rsm2-rcm44-esm29-rsr2-rcr2-esr310.npz,,,,,0,127,127,323,,right,red,0.9,879.6079020500183,880.1768131256104,,2,,3,10,brightness,readingArea,realistic,75,2023-03-20_14h50.43.810,tripletExp_regina_11082022,2022.2.4,119.6430934939869,
7,13,4,2,0.111111111111111,1.0,2,0.111111111111111,3.10526315789474,2,0.694444444444444,0.298245614035088,ReadingArea_rsl2-rcl11-esl100-rsm2-rcm11-esm310-rsr2-rcr69-esr29,exr/ReadingArea_rsl2-rcl11-esl100-rsm2-rcm11-esm310-rsr2-rcr69-esr29.exr,ReadingArea_rsl2-rcl11-esl100-rsm2-rcm11-esm310-rsr2-rcr69-esr29.npz,,,,,0,128,128,456,,right,red,1.78,881.8901529312134,882.3510730266571,,2,,3,10,brightness,readingArea,realistic,75,2023-03-20_14h50.43.810,tripletExp_regina_11082022,2022.2.4,119.6430934939869,
6,2,12,2,0.027777777777778,1.0,2,0.25,0.298245614035088,2,0.027777777777778,3.10526315789474,ReadingArea_rsl2-rcl2-esl100-rsm2-rcm25-esm29-rsr2-rcr2-esr310,exr/ReadingArea_rsl2-rcl2-esl100-rsm2-rcm25-esm29-rsr2-rcr2-esr310.exr,ReadingArea_rsl2-rcl2-esl100-rsm2-rcm25-esm29-rsr2-rcr2-esr310.npz,,,,,0,129,129,480,,right,red,1.51,884.041650056839,884.4904410839081,,2,,3,10,brightness,readingArea,realistic,75,2023-03-20_14h50.43.810,tripletExp_regina_11082022,2022.2.4,119.6430934939869,
5,3,10,2,1.0,0.298245614035088,2,0.444444444444444,0.298245614035088,2,0.694444444444444,1.0,ReadingArea_rsl2-rcl100-esl29-rsm2-rcm44-esm29-rsr2-rcr69-esr100,exr/ReadingArea_rsl2-rcl100-esl29-rsm2-rcm44-esm29-rsr2-rcr69-esr100.exr,ReadingArea_rsl2-rcl100-esl29-rsm2-rcm44-esm29-rsr2-rcr69-esr100.npz,,,,,0,130,130,546,,left,green,1.43,886.188413143158,886.6075971126556,,2,,3,10,brightness,readingArea,realistic,75,2023-03-20_14h50.43.810,tripletExp_regina_11082022,2022.2.4,119.6430934939869,
1,5,13,2,0.111111111111111,0.298245614035088,2,1.0,0.298245614035088,2,0.111111111111111,3.10526315789474,ReadingArea_rsl2-rcl11-esl29-rsm2-rcm100-esm29-rsr2-rcr11-esr310,exr/ReadingArea_rsl2-rcl11-esl29-rsm2-rcm100-esm29-rsr2-rcr11-esr310.exr,ReadingArea_rsl2-rcl11-esl29-rsm2-rcm100-esm29-rsr2-rcr11-esr310.npz,,,,,0,131,131,598,,right,red,0.86,888.2982931137085,,,2,,3,10,brightness,readingArea,realistic,75,2023-03-20_14h50.43.810,tripletExp_regina_11082022,2022.2.4,119.6430934939869,
0,11,9,2,0.027777777777778,0.298245614035088,2,1.0,1.0,2,0.444444444444444,1.0,ReadingArea_rsl2-rcl2-esl29-rsm2-rcm100-esm100-rsr2-rcr44-esr100,exr/ReadingArea_rsl2-rcl2-esl29-rsm2-rcm100-esm100-rsr2-rcr44-esr100.exr,ReadingArea_rsl2-rcl2-esl29-rsm2-rcm100-esm100-rsr2-rcr44-esr100.npz,,,,,0,132,132,32,,right,red,0.8,890.4370329380035,890.9953329563141,,2,,3,10,brightness,readingArea,realistic,75,2023-03-20_14h50.43.810,tripletExp_regina_11082022,2022.2.4,119.6430934939869,
12,5,14,2,0.027777777777778,3.10526315789474,2,1.0,0.298245614035088,2,0.25,3.10526315789474,ReadingArea_rsl2-rcl2-esl310-rsm2-rcm100-esm29-rsr2-rcr25-esr310,exr/ReadingArea_rsl2-rcl2-esl310-rsm2-rcm100-esm29-rsr2-rcr25-esr310.exr,ReadingArea_rsl2-rcl2-esl310-rsm2-rcm100-esm29-rsr2-rcr25-esr310.npz,,,,,0,133,133,193,,right,red,1.0,892.6902501583099,893.1462380886078,,2,,3,10,brightness,readingArea,realistic,75,2023-03-20_14h50.43.810,tripletExp_regina_11082022,2022.2.4,119.6430934939869,
6,4,2,2,0.027777777777778,1.0,2,0.694444444444444,0.298245614035088,2,0.25,0.298245614035088,ReadingArea_rsl2-rcl2-esl100-rsm2-rcm69-esm29-rsr2-rcr25-esr29,exr/ReadingArea_rsl2-rcl2-esl100-rsm2-rcm69-esm29-rsr2-rcr25-esr29.exr,ReadingArea_rsl2-rcl2-esl100-rsm2-rcm69-esm29-rsr2-rcr25-esr29.npz,,,,,0,134,134,134,,right,red,1.04,894.8581340312958,,,2,,3,10,brightness,readingArea,realistic,75,2023-03-20_14h50.43.810,tripletExp_regina_11082022,2022.2.4,119.6430934939869,
11,7,14,2,1.0,1.0,2,0.111111111111111,1.0,2,0.25,3.10526315789474,ReadingArea_rsl2-rcl100-esl100-rsm2-rcm11-esm100-rsr2-rcr25-esr310,exr/ReadingArea_rsl2-rcl100-esl100-rsm2-rcm11-esm100-rsr2-rcr25-esr310.exr,ReadingArea_rsl2-rcl100-esl100-rsm2-rcm11-esm100-rsr2-rcr25-esr310.npz,,,,,0,135,135,119,,right,red,1.79,897.0023419857025,897.4516501426697,,2,,3,10,brightness,readingArea,realistic,75,2023-03-20_14h50.43.810,tripletExp_regina_11082022,2022.2.4,119.6430934939869,
5,3,6,2,1.0,0.298245614035088,2,0.444444444444444,0.298245614035088,2,0.027777777777778,1.0,ReadingArea_rsl2-rcl100-esl29-rsm2-rcm44-esm29-rsr2-rcr2-esr100,exr/ReadingArea_rsl2-rcl100-esl29-rsm2-rcm44-esm29-rsr2-rcr2-esr100.exr,ReadingArea_rsl2-rcl100-esl29-rsm2-rcm44-esm29-rsr2-rcr2-esr100.npz,,,,,0,136,136,316,,left,green,0.81,899.1438159942627,899.5987980365753,,2,,3,10,brightness,readingArea,realistic,75,2023-03-20_14h50.43.810,tripletExp_regina_11082022,2022.2.4,119.6430934939869,
10,3,1,2,0.694444444444444,1.0,2,0.444444444444444,0.298245614035088,2,0.111111111111111,0.298245614035088,ReadingArea_rsl2-rcl69-esl100-rsm2-rcm44-esm29-rsr2-rcr11-esr29,exr/ReadingArea_rsl2-rcl69-esl100-rsm2-rcm44-esm29-rsr2-rcr11-esr29.exr,ReadingArea_rsl2-rcl69-esl100-rsm2-rcm44-esm29-rsr2-rcr11-esr29.npz,,,,,0,137,137,420,,right,red,1.69,901.2992169857024,901.7251851558684,,2,,3,10,brightness,readingArea,realistic,75,2023-03-20_14h50.43.810,tripletExp_regina_11082022,2022.2.4,119.6430934939869,
14,12,5,2,0.25,3.10526315789474,2,0.027777777777778,3.10526315789474,2,1.0,0.298245614035088,ReadingArea_rsl2-rcl25-esl310-rsm2-rcm2-esm310-rsr2-rcr100-esr29,exr/ReadingArea_rsl2-rcl25-esl310-rsm2-rcm2-esm310-rsr2-rcr100-esr29.exr,ReadingArea_rsl2-rcl25-esl310-rsm2-rcm2-esm310-rsr2-rcr100-esr29.npz,,,,,0,138,138,335,,right,red,1.45,903.4356570243835,903.8984701633452,,2,,3,10,brightness,readingArea,realistic,75,2023-03-20_14h50.43.810,tripletExp_regina_11082022,2022.2.4,119.6430934939869,
5,7,14,2,1.0,0.298245614035088,2,0.111111111111111,1.0,2,0.25,3.10526315789474,ReadingArea_rsl2-rcl100-esl29-rsm2-rcm11-esm100-rsr2-rcr25-esr310,exr/ReadingArea_rsl2-rcl100-esl29-rsm2-rcm11-esm100-rsr2-rcr25-esr310.exr,ReadingArea_rsl2-rcl100-esl29-rsm2-rcm11-esm100-rsr2-rcr25-esr310.npz,,,,,0,139,139,210,,left,green,1.2,905.6056270599364,906.036659002304,,2,,3,10,brightness,readingArea,realistic,75,2023-03-20_14h50.43.810,tripletExp_regina_11082022,2022.2.4,119.6430934939869,
11,4,2,2,1.0,1.0,2,0.694444444444444,0.298245614035088,2,0.25,0.298245614035088,ReadingArea_rsl2-rcl100-esl100-rsm2-rcm69-esm29-rsr2-rcr25-esr29,exr/ReadingArea_rsl2-rcl100-esl100-rsm2-rcm69-esm29-rsr2-rcr25-esr29.exr,ReadingArea_rsl2-rcl100-esl100-rsm2-rcm69-esm29-rsr2-rcr25-esr29.npz,,,,,0,140,140,280,,right,red,1.25,907.7332949638368,908.1774311065674,,2,,3,10,brightness,readingArea,realistic,75,2023-03-20_14h50.43.810,tripletExp_regina_11082022,2022.2.4,119.6430934939869,
5,14,8,2,1.0,0.298245614035088,2,0.25,3.10526315789474,2,0.25,1.0,ReadingArea_rsl2-rcl100-esl29-rsm2-rcm25-esm310-rsr2-rcr25-esr100,exr/ReadingArea_rsl2-rcl100-esl29-rsm2-rcm25-esm310-rsr2-rcr25-esr100.exr,ReadingArea_rsl2-rcl100-esl29-rsm2-rcm25-esm310-rsr2-rcr25-esr100.npz,,,,,0,141,141,14,,left,green,1.41,909.8773241043092,910.344603061676,,2,,3,10,brightness,readingArea,realistic,75,2023-03-20_14h50.43.810,tripletExp_regina_11082022,2022.2.4,119.6430934939869,
0,4,9,2,0.027777777777778,0.298245614035088,2,0.694444444444444,0.298245614035088,2,0.444444444444444,1.0,ReadingArea_rsl2-rcl2-esl29-rsm2-rcm69-esm29-rsr2-rcr44-esr100,exr/ReadingArea_rsl2-rcl2-esl29-rsm2-rcm69-esm29-rsr2-rcr44-esr100.exr,ReadingArea_rsl2-rcl2-esl29-rsm2-rcm69-esm29-rsr2-rcr44-esr100.npz,,,,,0,142,142,21,,right,red,0.95,912.0639190673828,912.504140138626,,2,,3,10,brightness,readingArea,realistic,75,2023-03-20_14h50.43.810,tripletExp_regina_11082022,2022.2.4,119.6430934939869,
12,7,2,2,0.027777777777778,3.10526315789474,2,0.111111111111111,1.0,2,0.25,0.298245614035088,ReadingArea_rsl2-rcl2-esl310-rsm2-rcm11-esm100-rsr2-rcr25-esr29,exr/ReadingArea_rsl2-rcl2-esl310-rsm2-rcm11-esm100-rsr2-rcr25-esr29.exr,ReadingArea_rsl2-rcl2-esl310-rsm2-rcm11-esm100-rsr2-rcr25-esr29.npz,,,,,0,143,143,248,,right,red,3.16,915.9843089580536,916.4367599487304,,2,,3,10,brightness,readingArea,realistic,75,2023-03-20_14h50.43.810,tripletExp_regina_11082022,2022.2.4,119.6430934939869,
6,0,14,2,0.027777777777778,1.0,2,0.027777777777778,0.298245614035088,2,0.25,3.10526315789474,ReadingArea_rsl2-rcl2-esl100-rsm2-rcm2-esm29-rsr2-rcr25-esr310,exr/ReadingArea_rsl2-rcl2-esl100-rsm2-rcm2-esm29-rsr2-rcr25-esr310.exr,ReadingArea_rsl2-rcl2-esl100-rsm2-rcm2-esm29-rsr2-rcr25-esr310.npz,,,,,0,144,144,169,,left,green,0.76,918.127032995224,918.5612239837646,,2,,3,10,brightness,readingArea,realistic,75,2023-03-20_14h50.43.810,tripletExp_regina_11082022,2022.2.4,119.6430934939869,
3,9,0,2,0.444444444444444,0.298245614035088,2,0.444444444444444,1.0,2,0.027777777777778,0.298245614035088,ReadingArea_rsl2-rcl44-esl29-rsm2-rcm44-esm100-rsr2-rcr2-esr29,exr/ReadingArea_rsl2-rcl44-esl29-rsm2-rcm44-esm100-rsr2-rcr2-esr29.exr,ReadingArea_rsl2-rcl44-esl29-rsm2-rcm44-esm100-rsr2-rcr2-esr29.npz,,,,,0,145,145,551,,left,green,0.71,920.2552840709686,920.6948759555816,,2,,3,10,brightness,readingArea,realistic,75,2023-03-20_14h50.43.810,tripletExp_regina_11082022,2022.2.4,119.6430934939869,
3,6,13,2,0.444444444444444,0.298245614035088,2,0.027777777777778,1.0,2,0.111111111111111,3.10526315789474,ReadingArea_rsl2-rcl44-esl29-rsm2-rcm2-esm100-rsr2-rcr11-esr310,exr/ReadingArea_rsl2-rcl44-esl29-rsm2-rcm2-esm100-rsr2-rcr11-esr310.exr,ReadingArea_rsl2-rcl44-esl29-rsm2-rcm2-esm100-rsr2-rcr11-esr310.npz,,,,,0,146,146,449,,left,green,4.65,925.9034399986268,926.3442230224608,,2,,3,10,brightness,readingArea,realistic,75,2023-03-20_14h50.43.810,tripletExp_regina_11082022,2022.2.4,119.6430934939869,
1,14,0,2,0.111111111111111,0.298245614035088,2,0.25,3.10526315789474,2,0.027777777777778,0.298245614035088,ReadingArea_rsl2-rcl11-esl29-rsm2-rcm25-esm310-rsr2-rcr2-esr29,exr/ReadingArea_rsl2-rcl11-esl29-rsm2-rcm25-esm310-rsr2-rcr2-esr29.exr,ReadingArea_rsl2-rcl11-esl29-rsm2-rcm25-esm310-rsr2-rcr2-esr29.npz,,,,,0,147,147,394,,left,green,1.12,928.0367579460144,928.4760839939116,,2,,3,10,brightness,readingArea,realistic,75,2023-03-20_14h50.43.810,tripletExp_regina_11082022,2022.2.4,119.6430934939869,
7,6,11,2,0.111111111111111,1.0,2,0.027777777777778,1.0,2,1.0,1.0,ReadingArea_rsl2-rcl11-esl100-rsm2-rcm2-esm100-rsr2-rcr100-esr100,exr/ReadingArea_rsl2-rcl11-esl100-rsm2-rcm2-esm100-rsr2-rcr100-esr100.exr,ReadingArea_rsl2-rcl11-esl100-rsm2-rcm2-esm100-rsr2-rcr100-esr100.npz,,,,,0,148,148,84,,left,green,0.98,930.1925201416016,930.6246600151062,,2,,3,10,brightness,readingArea,realistic,75,2023-03-20_14h50.43.810,tripletExp_regina_11082022,2022.2.4,119.6430934939869,
8,1,6,2,0.25,1.0,2,0.111111111111111,0.298245614035088,2,0.027777777777778,1.0,ReadingArea_rsl2-rcl25-esl100-rsm2-rcm11-esm29-rsr2-rcr2-esr100,exr/ReadingArea_rsl2-rcl25-esl100-rsm2-rcm11-esm29-rsr2-rcr2-esr100.exr,ReadingArea_rsl2-rcl25-esl100-rsm2-rcm11-esm29-rsr2-rcr2-esr100.npz,,,,,0,149,149,62,,right,red,1.4,932.349270105362,932.5541951656342,,2,,3,10,brightness,readingArea,realistic,75,2023-03-20_14h50.43.810,tripletExp_regina_11082022,2022.2.4,119.6430934939869,
14,8,3,2,0.25,3.10526315789474,2,0.25,1.0,2,0.444444444444444,0.298245614035088,ReadingArea_rsl2-rcl25-esl310-rsm2-rcm25-esm100-rsr2-rcr44-esr29,exr/ReadingArea_rsl2-rcl25-esl310-rsm2-rcm25-esm100-rsr2-rcr44-esr29.exr,ReadingArea_rsl2-rcl25-esl310-rsm2-rcm25-esm100-rsr2-rcr44-esr29.npz,,,,,0,150,150,100,,right,red,1.89,937.3468160629272,937.8150191307068,,3,,3,10,brightness,readingArea,realistic,75,2023-03-20_14h50.43.810,tripletExp_regina_11082022,2022.2.4,119.6430934939869,
8,9,2,2,0.25,1.0,2,0.444444444444444,1.0,2,0.25,0.298245614035088,ReadingArea_rsl2-rcl25-esl100-rsm2-rcm44-esm100-rsr2-rcr25-esr29,exr/ReadingArea_rsl2-rcl25-esl100-rsm2-rcm44-esm100-rsr2-rcr25-esr29.exr,ReadingArea_rsl2-rcl25-esl100-rsm2-rcm44-esm100-rsr2-rcr25-esr29.npz,,,,,0,151,151,559,,left,green,1.4,939.5066311359406,,,3,,3,10,brightness,readingArea,realistic,75,2023-03-20_14h50.43.810,tripletExp_regina_11082022,2022.2.4,119.6430934939869,
8,14,3,2,0.25,1.0,2,0.25,3.10526315789474,2,0.444444444444444,0.298245614035088,ReadingArea_rsl2-rcl25-esl100-rsm2-rcm25-esm310-rsr2-rcr44-esr29,exr/ReadingArea_rsl2-rcl25-esl100-rsm2-rcm25-esm310-rsr2-rcr44-esr29.exr,ReadingArea_rsl2-rcl25-esl100-rsm2-rcm25-esm310-rsr2-rcr44-esr29.npz,,,,,0,152,152,503,,left,green,2.91,943.4270131587982,943.945254087448,,3,,3,10,brightness,readingArea,realistic,75,2023-03-20_14h50.43.810,tripletExp_regina_11082022,2022.2.4,119.6430934939869,
13,2,4,2,0.111111111111111,3.10526315789474,2,0.25,0.298245614035088,2,0.694444444444444,0.298245614035088,ReadingArea_rsl2-rcl11-esl310-rsm2-rcm25-esm29-rsr2-rcr69-esr29,exr/ReadingArea_rsl2-rcl11-esl310-rsm2-rcm25-esm29-rsr2-rcr69-esr29.exr,ReadingArea_rsl2-rcl11-esl310-rsm2-rcm25-esm29-rsr2-rcr69-esr29.npz,,,,,0,153,153,307,,left,green,2.98,947.398549079895,947.8675529956818,,3,,3,10,brightness,readingArea,realistic,75,2023-03-20_14h50.43.810,tripletExp_regina_11082022,2022.2.4,119.6430934939869,
12,11,6,2,0.027777777777778,3.10526315789474,2,1.0,1.0,2,0.027777777777778,1.0,ReadingArea_rsl2-rcl2-esl310-rsm2-rcm100-esm100-rsr2-rcr2-esr100,exr/ReadingArea_rsl2-rcl2-esl310-rsm2-rcm100-esm100-rsr2-rcr2-esr100.exr,ReadingArea_rsl2-rcl2-esl310-rsm2-rcm100-esm100-rsr2-rcr2-esr100.npz,,,,,0,154,154,163,,left,green,1.66,949.591428041458,,,3,,3,10,brightness,readingArea,realistic,75,2023-03-20_14h50.43.810,tripletExp_regina_11082022,2022.2.4,119.6430934939869,
12,9,2,2,0.027777777777778,3.10526315789474,2,0.444444444444444,1.0,2,0.25,0.298245614035088,ReadingArea_rsl2-rcl2-esl310-rsm2-rcm44-esm100-rsr2-rcr25-esr29,exr/ReadingArea_rsl2-rcl2-esl310-rsm2-rcm44-esm100-rsr2-rcr25-esr29.exr,ReadingArea_rsl2-rcl2-esl310-rsm2-rcm44-esm100-rsr2-rcr25-esr29.npz,,,,,0,155,155,226,,right,red,1.23,951.7848391532898,952.210874080658,,3,,3,10,brightness,readingArea,realistic,75,2023-03-20_14h50.43.810,tripletExp_regina_11082022,2022.2.4,119.6430934939869,
4,12,7,2,0.694444444444444,0.298245614035088,2,0.027777777777778,3.10526315789474,2,0.111111111111111,1.0,ReadingArea_rsl2-rcl69-esl29-rsm2-rcm2-esm310-rsr2-rcr11-esr100,exr/ReadingArea_rsl2-rcl69-esl29-rsm2-rcm2-esm310-rsr2-rcr11-esr100.exr,ReadingArea_rsl2-rcl69-esl29-rsm2-rcm2-esm310-rsr2-rcr11-esr100.npz,,,,,0,156,156,112,,right,red,1.01,953.899232149124,954.3271131515504,,3,,3,10,brightness,readingArea,realistic,75,2023-03-20_14h50.43.810,tripletExp_regina_11082022,2022.2.4,119.6430934939869,
4,12,2,2,0.694444444444444,0.298245614035088,2,0.027777777777778,3.10526315789474,2,0.25,0.298245614035088,ReadingArea_rsl2-rcl69-esl29-rsm2-rcm2-esm310-rsr2-rcr25-esr29,exr/ReadingArea_rsl2-rcl69-esl29-rsm2-rcm2-esm310-rsr2-rcr25-esr29.exr,ReadingArea_rsl2-rcl69-esl29-rsm2-rcm2-esm310-rsr2-rcr25-esr29.npz,,,,,0,157,157,543,,right,red,1.19,956.0193741321564,956.4795651435852,,3,,3,10,brightness,readingArea,realistic,75,2023-03-20_14h50.43.810,tripletExp_regina_11082022,2022.2.4,119.6430934939869,
2,3,6,2,0.25,0.298245614035088,2,0.444444444444444,0.298245614035088,2,0.027777777777778,1.0,ReadingArea_rsl2-rcl25-esl29-rsm2-rcm44-esm29-rsr2-rcr2-esr100,exr/ReadingArea_rsl2-rcl25-esl29-rsm2-rcm44-esm29-rsr2-rcr2-esr100.exr,ReadingArea_rsl2-rcl25-esl29-rsm2-rcm44-esm29-rsr2-rcr2-esr100.npz,,,,,0,158,158,357,,left,green,0.93,958.2038230895996,958.6481909751892,,3,,3,10,brightness,readingArea,realistic,75,2023-03-20_14h50.43.810,tripletExp_regina_11082022,2022.2.4,119.6430934939869,
2,5,14,2,0.25,0.298245614035088,2,1.0,0.298245614035088,2,0.25,3.10526315789474,ReadingArea_rsl2-rcl25-esl29-rsm2-rcm100-esm29-rsr2-rcr25-esr310,exr/ReadingArea_rsl2-rcl25-esl29-rsm2-rcm100-esm29-rsr2-rcr25-esr310.exr,ReadingArea_rsl2-rcl25-esl29-rsm2-rcm100-esm29-rsr2-rcr25-esr310.npz,,,,,0,159,159,390,,right,red,0.95,960.3688969612122,960.8314189910888,,3,,3,10,brightness,readingArea,realistic,75,2023-03-20_14h50.43.810,tripletExp_regina_11082022,2022.2.4,119.6430934939869,
12,8,9,2,0.027777777777778,3.10526315789474,2,0.25,1.0,2,0.444444444444444,1.0,ReadingArea_rsl2-rcl2-esl310-rsm2-rcm25-esm100-rsr2-rcr44-esr100,exr/ReadingArea_rsl2-rcl2-esl310-rsm2-rcm25-esm100-rsr2-rcr44-esr100.exr,ReadingArea_rsl2-rcl2-esl310-rsm2-rcm25-esm100-rsr2-rcr44-esr100.npz,,,,,0,160,160,517,,right,red,0.9,962.5236580371856,962.9462940692902,,3,,3,10,brightness,readingArea,realistic,75,2023-03-20_14h50.43.810,tripletExp_regina_11082022,2022.2.4,119.6430934939869,
14,9,0,2,0.25,3.10526315789474,2,0.444444444444444,1.0,2,0.027777777777778,0.298245614035088,ReadingArea_rsl2-rcl25-esl310-rsm2-rcm44-esm100-rsr2-rcr2-esr29,exr/ReadingArea_rsl2-rcl25-esl310-rsm2-rcm44-esm100-rsr2-rcr2-esr29.exr,ReadingArea_rsl2-rcl25-esl310-rsm2-rcm44-esm100-rsr2-rcr2-esr29.npz,,,,,0,161,161,313,,left,green,1.96,966.3959701061248,966.8523099422456,,3,,3,10,brightness,readingArea,realistic,75,2023-03-20_14h50.43.810,tripletExp_regina_11082022,2022.2.4,119.6430934939869,
6,3,13,2,0.027777777777778,1.0,2,0.444444444444444,0.298245614035088,2,0.111111111111111,3.10526315789474,ReadingArea_rsl2-rcl2-esl100-rsm2-rcm44-esm29-rsr2-rcr11-esr310,exr/ReadingArea_rsl2-rcl2-esl100-rsm2-rcm44-esm29-rsr2-rcr11-esr310.exr,ReadingArea_rsl2-rcl2-esl100-rsm2-rcm44-esm29-rsr2-rcr11-esr310.npz,,,,,0,162,162,228,,right,red,1.77,968.5441870689392,968.9695811271667,,3,,3,10,brightness,readingArea,realistic,75,2023-03-20_14h50.43.810,tripletExp_regina_11082022,2022.2.4,119.6430934939869,
5,9,0,2,1.0,0.298245614035088,2,0.444444444444444,1.0,2,0.027777777777778,0.298245614035088,ReadingArea_rsl2-rcl100-esl29-rsm2-rcm44-esm100-rsr2-rcr2-esr29,exr/ReadingArea_rsl2-rcl100-esl29-rsm2-rcm44-esm100-rsr2-rcr2-esr29.exr,ReadingArea_rsl2-rcl100-esl29-rsm2-rcm44-esm100-rsr2-rcr2-esr29.npz,,,,,0,163,163,575,,left,green,1.54,970.6905450820924,971.166501045227,,3,,3,10,brightness,readingArea,realistic,75,2023-03-20_14h50.43.810,tripletExp_regina_11082022,2022.2.4,119.6430934939869,
5,8,2,2,1.0,0.298245614035088,2,0.25,1.0,2,0.25,0.298245614035088,ReadingArea_rsl2-rcl100-esl29-rsm2-rcm25-esm100-rsr2-rcr25-esr29,exr/ReadingArea_rsl2-rcl100-esl29-rsm2-rcm25-esm100-rsr2-rcr25-esr29.exr,ReadingArea_rsl2-rcl100-esl29-rsm2-rcm25-esm100-rsr2-rcr25-esr29.npz,,,,,0,164,164,65,,right,red,1.14,972.8565471172332,973.3047490119934,,3,,3,10,brightness,readingArea,realistic,75,2023-03-20_14h50.43.810,tripletExp_regina_11082022,2022.2.4,119.6430934939869,
7,4,2,2,0.111111111111111,1.0,2,0.694444444444444,0.298245614035088,2,0.25,0.298245614035088,ReadingArea_rsl2-rcl11-esl100-rsm2-rcm69-esm29-rsr2-rcr25-esr29,exr/ReadingArea_rsl2-rcl11-esl100-rsm2-rcm69-esm29-rsr2-rcr25-esr29.exr,ReadingArea_rsl2-rcl11-esl100-rsm2-rcm69-esm29-rsr2-rcr25-esr29.npz,,,,,0,165,165,146,,left,green,2.98,976.7681951522828,977.2231681346892,,3,,3,10,brightness,readingArea,realistic,75,2023-03-20_14h50.43.810,tripletExp_regina_11082022,2022.2.4,119.6430934939869,
13,4,0,2,0.111111111111111,3.10526315789474,2,0.694444444444444,0.298245614035088,2,0.027777777777778,0.298245614035088,ReadingArea_rsl2-rcl11-esl310-rsm2-rcm69-esm29-rsr2-rcr2-esr29,exr/ReadingArea_rsl2-rcl11-esl310-rsm2-rcm69-esm29-rsr2-rcr2-esr29.exr,ReadingArea_rsl2-rcl11-esl310-rsm2-rcm69-esm29-rsr2-rcr2-esr29.npz,,,,,0,166,166,269,,left,green,0.69,978.9147119522096,979.34912109375,,3,,3,10,brightness,readingArea,realistic,75,2023-03-20_14h50.43.810,tripletExp_regina_11082022,2022.2.4,119.6430934939869,
0,10,14,2,0.027777777777778,0.298245614035088,2,0.694444444444444,1.0,2,0.25,3.10526315789474,ReadingArea_rsl2-rcl2-esl29-rsm2-rcm69-esm100-rsr2-rcr25-esr310,exr/ReadingArea_rsl2-rcl2-esl29-rsm2-rcm69-esm100-rsr2-rcr25-esr310.exr,ReadingArea_rsl2-rcl2-esl29-rsm2-rcm69-esm100-rsr2-rcr25-esr310.npz,,,,,0,167,167,31,,right,red,0.67,981.0424230098724,981.5544159412384,,3,,3,10,brightness,readingArea,realistic,75,2023-03-20_14h50.43.810,tripletExp_regina_11082022,2022.2.4,119.6430934939869,
8,9,13,2,0.25,1.0,2,0.444444444444444,1.0,2,0.111111111111111,3.10526315789474,ReadingArea_rsl2-rcl25-esl100-rsm2-rcm44-esm100-rsr2-rcr11-esr310,exr/ReadingArea_rsl2-rcl25-esl100-rsm2-rcm44-esm100-rsr2-rcr11-esr310.exr,ReadingArea_rsl2-rcl25-esl100-rsm2-rcm44-esm100-rsr2-rcr11-esr310.npz,,,,,0,168,168,519,,right,red,1.12,983.2498791217804,983.7127130031586,,3,,3,10,brightness,readingArea,realistic,75,2023-03-20_14h50.43.810,tripletExp_regina_11082022,2022.2.4,119.6430934939869,
10,6,13,2,0.694444444444444,1.0,2,0.027777777777778,1.0,2,0.111111111111111,3.10526315789474,ReadingArea_rsl2-rcl69-esl100-rsm2-rcm2-esm100-rsr2-rcr11-esr310,exr/ReadingArea_rsl2-rcl69-esl100-rsm2-rcm2-esm100-rsr2-rcr11-esr310.exr,ReadingArea_rsl2-rcl69-esl100-rsm2-rcm2-esm100-rsr2-rcr11-esr310.npz,,,,,0,169,169,41,,right,red,1.05,985.4048330783844,985.8424789905548,,3,,3,10,brightness,readingArea,realistic,75,2023-03-20_14h50.43.810,tripletExp_regina_11082022,2022.2.4,119.6430934939869,
2,9,12,2,0.25,0.298245614035088,2,0.444444444444444,1.0,2,0.027777777777778,3.10526315789474,ReadingArea_rsl2-rcl25-esl29-rsm2-rcm44-esm100-rsr2-rcr2-esr310,exr/ReadingArea_rsl2-rcl25-esl29-rsm2-rcm44-esm100-rsr2-rcr2-esr310.exr,ReadingArea_rsl2-rcl25-esl29-rsm2-rcm44-esm100-rsr2-rcr2-esr310.npz,,,,,0,170,170,354,,left,green,1.68,987.5318491458892,987.967635154724,,3,,3,10,brightness,readingArea,realistic,75,2023-03-20_14h50.43.810,tripletExp_regina_11082022,2022.2.4,119.6430934939869,
8,1,10,2,0.25,1.0,2,0.111111111111111,0.298245614035088,2,0.694444444444444,1.0,ReadingArea_rsl2-rcl25-esl100-rsm2-rcm11-esm29-rsr2-rcr69-esr100,exr/ReadingArea_rsl2-rcl25-esl100-rsm2-rcm11-esm29-rsr2-rcr69-esr100.exr,ReadingArea_rsl2-rcl25-esl100-rsm2-rcm11-esm29-rsr2-rcr69-esr100.npz,,,,,0,171,171,442,,left,green,1.41,989.6847259998322,990.1421389579772,,3,,3,10,brightness,readingArea,realistic,75,2023-03-20_14h50.43.810,tripletExp_regina_11082022,2022.2.4,119.6430934939869,
4,1,13,2,0.694444444444444,0.298245614035088,2,0.111111111111111,0.298245614035088,2,0.111111111111111,3.10526315789474,ReadingArea_rsl2-rcl69-esl29-rsm2-rcm11-esm29-rsr2-rcr11-esr310,exr/ReadingArea_rsl2-rcl69-esl29-rsm2-rcm11-esm29-rsr2-rcr11-esr310.exr,ReadingArea_rsl2-rcl69-esl29-rsm2-rcm11-esm29-rsr2-rcr11-esr310.npz,,,,,0,172,172,565,,right,red,1.39,991.8675010204316,992.2903089523317,,3,,3,10,brightness,readingArea,realistic,75,2023-03-20_14h50.43.810,tripletExp_regina_11082022,2022.2.4,119.6430934939869,
14,3,2,2,0.25,3.10526315789474,2,0.444444444444444,0.298245614035088,2,0.25,0.298245614035088,ReadingArea_rsl2-rcl25-esl310-rsm2-rcm44-esm29-rsr2-rcr25-esr29,exr/ReadingArea_rsl2-rcl25-esl310-rsm2-rcm44-esm29-rsr2-rcr25-esr29.exr,ReadingArea_rsl2-rcl25-esl310-rsm2-rcm44-esm29-rsr2-rcr25-esr29.npz,,,,,0,173,173,52,,right,red,2.98,995.7752649784088,996.2510330677032,,3,,3,10,brightness,readingArea,realistic,75,2023-03-20_14h50.43.810,tripletExp_regina_11082022,2022.2.4,119.6430934939869,
2,1,10,2,0.25,0.298245614035088,2,0.111111111111111,0.298245614035088,2,0.694444444444444,1.0,ReadingArea_rsl2-rcl25-esl29-rsm2-rcm11-esm29-rsr2-rcr69-esr100,exr/ReadingArea_rsl2-rcl25-esl29-rsm2-rcm11-esm29-rsr2-rcr69-esr100.exr,ReadingArea_rsl2-rcl25-esl29-rsm2-rcm11-esm29-rsr2-rcr69-esr100.npz,,,,,0,174,174,585,,left,green,0.82,997.96284198761,998.3879449367524,,3,,3,10,brightness,readingArea,realistic,75,2023-03-20_14h50.43.810,tripletExp_regina_11082022,2022.2.4,119.6430934939869,
9,3,0,2,0.444444444444444,1.0,2,0.444444444444444,0.298245614035088,2,0.027777777777778,0.298245614035088,ReadingArea_rsl2-rcl44-esl100-rsm2-rcm44-esm29-rsr2-rcr2-esr29,exr/ReadingArea_rsl2-rcl44-esl100-rsm2-rcm44-esm29-rsr2-rcr2-esr29.exr,ReadingArea_rsl2-rcl44-esl100-rsm2-rcm44-esm29-rsr2-rcr2-esr29.npz,,,,,0,175,175,120,,left,green,0.89,1000.0958199501038,1000.5418429374696,,3,,3,10,brightness,readingArea,realistic,75,2023-03-20_14h50.43.810,tripletExp_regina_11082022,2022.2.4,119.6430934939869,
0,8,3,2,0.027777777777778,0.298245614035088,2,0.25,1.0,2,0.444444444444444,0.298245614035088,ReadingArea_rsl2-rcl2-esl29-rsm2-rcm25-esm100-rsr2-rcr44-esr29,exr/ReadingArea_rsl2-rcl2-esl29-rsm2-rcm25-esm100-rsr2-rcr44-esr29.exr,ReadingArea_rsl2-rcl2-esl29-rsm2-rcm25-esm100-rsr2-rcr44-esr29.npz,,,,,0,176,176,301,,right,red,0.68,1002.2454299926758,1002.6747739315032,,3,,3,10,brightness,readingArea,realistic,75,2023-03-20_14h50.43.810,tripletExp_regina_11082022,2022.2.4,119.6430934939869,
13,3,12,2,0.111111111111111,3.10526315789474,2,0.444444444444444,0.298245614035088,2,0.027777777777778,3.10526315789474,ReadingArea_rsl2-rcl11-esl310-rsm2-rcm44-esm29-rsr2-rcr2-esr310,exr/ReadingArea_rsl2-rcl11-esl310-rsm2-rcm44-esm29-rsr2-rcr2-esr310.exr,ReadingArea_rsl2-rcl11-esl310-rsm2-rcm44-esm29-rsr2-rcr2-esr310.npz,,,,,0,177,177,80,,left,green,1.58,1004.3898420333862,1004.8513131141664,,3,,3,10,brightness,readingArea,realistic,75,2023-03-20_14h50.43.810,tripletExp_regina_11082022,2022.2.4,119.6430934939869,
11,13,1,2,1.0,1.0,2,0.111111111111111,3.10526315789474,2,0.111111111111111,0.298245614035088,ReadingArea_rsl2-rcl100-esl100-rsm2-rcm11-esm310-rsr2-rcr11-esr29,exr/ReadingArea_rsl2-rcl100-esl100-rsm2-rcm11-esm310-rsr2-rcr11-esr29.exr,ReadingArea_rsl2-rcl100-esl100-rsm2-rcm11-esm310-rsr2-rcr11-esr29.npz,,,,,0,178,178,185,,right,red,2.6,1008.3332030773164,1008.7864661216736,,3,,3,10,brightness,readingArea,realistic,75,2023-03-20_14h50.43.810,tripletExp_regina_11082022,2022.2.4,119.6430934939869,
3,13,10,2,0.444444444444444,0.298245614035088,2,0.111111111111111,3.10526315789474,2,0.694444444444444,1.0,ReadingArea_rsl2-rcl44-esl29-rsm2-rcm11-esm310-rsr2-rcr69-esr100,exr/ReadingArea_rsl2-rcl44-esl29-rsm2-rcm11-esm310-rsr2-rcr69-esr100.exr,ReadingArea_rsl2-rcl44-esl29-rsm2-rcm11-esm310-rsr2-rcr69-esr100.npz,,,,,0,179,179,416,,left,green,0.8,1010.5081400871276,1010.9356341362,,3,,3,10,brightness,readingArea,realistic,75,2023-03-20_14h50.43.810,tripletExp_regina_11082022,2022.2.4,119.6430934939869,
12,3,5,2,0.027777777777778,3.10526315789474,2,0.444444444444444,0.298245614035088,2,1.0,0.298245614035088,ReadingArea_rsl2-rcl2-esl310-rsm2-rcm44-esm29-rsr2-rcr100-esr29,exr/ReadingArea_rsl2-rcl2-esl310-rsm2-rcm44-esm29-rsr2-rcr100-esr29.exr,ReadingArea_rsl2-rcl2-esl310-rsm2-rcm44-esm29-rsr2-rcr100-esr29.npz,,,,,0,180,180,188,,right,red,2.91,1014.441458940506,1014.8917491436004,,3,,3,10,brightness,readingArea,realistic,75,2023-03-20_14h50.43.810,tripletExp_regina_11082022,2022.2.4,119.6430934939869,
5,14,4,2,1.0,0.298245614035088,2,0.25,3.10526315789474,2,0.694444444444444,0.298245614035088,ReadingArea_rsl2-rcl100-esl29-rsm2-rcm25-esm310-rsr2-rcr69-esr29,exr/ReadingArea_rsl2-rcl100-esl29-rsm2-rcm25-esm310-rsr2-rcr69-esr29.exr,ReadingArea_rsl2-rcl100-esl29-rsm2-rcm25-esm310-rsr2-rcr69-esr29.npz,,,,,0,181,181,69,,right,red,3.16,1018.3558070659636,1018.8120219707488,,3,,3,10,brightness,readingArea,realistic,75,2023-03-20_14h50.43.810,tripletExp_regina_11082022,2022.2.4,119.6430934939869,
1,12,11,2,0.111111111111111,0.298245614035088,2,0.027777777777778,3.10526315789474,2,1.0,1.0,ReadingArea_rsl2-rcl11-esl29-rsm2-rcm2-esm310-rsr2-rcr100-esr100,exr/ReadingArea_rsl2-rcl11-esl29-rsm2-rcm2-esm310-rsr2-rcr100-esr100.exr,ReadingArea_rsl2-rcl11-esl29-rsm2-rcm2-esm310-rsr2-rcr100-esr100.npz,,,,,0,182,182,178,,left,green,1.03,1020.5053009986876,1021.0007381439208,,3,,3,10,brightness,readingArea,realistic,75,2023-03-20_14h50.43.810,tripletExp_regina_11082022,2022.2.4,119.6430934939869,
11,12,2,2,1.0,1.0,2,0.027777777777778,3.10526315789474,2,0.25,0.298245614035088,ReadingArea_rsl2-rcl100-esl100-rsm2-rcm2-esm310-rsr2-rcr25-esr29,exr/ReadingArea_rsl2-rcl100-esl100-rsm2-rcm2-esm310-rsr2-rcr25-esr29.exr,ReadingArea_rsl2-rcl100-esl100-rsm2-rcm2-esm310-rsr2-rcr25-esr29.npz,,,,,0,183,183,423,,right,red,0.69,1022.7021870613098,1023.1593811511992,,3,,3,10,brightness,readingArea,realistic,75,2023-03-20_14h50.43.810,tripletExp_regina_11082022,2022.2.4,119.6430934939869,
5,2,0,2,1.0,0.298245614035088,2,0.25,0.298245614035088,2,0.027777777777778,0.298245614035088,ReadingArea_rsl2-rcl100-esl29-rsm2-rcm25-esm29-rsr2-rcr2-esr29,exr/ReadingArea_rsl2-rcl100-esl29-rsm2-rcm25-esm29-rsr2-rcr2-esr29.exr,ReadingArea_rsl2-rcl100-esl29-rsm2-rcm25-esm29-rsr2-rcr2-esr29.npz,,,,,0,184,184,476,,left,green,1.34,1024.868364095688,1025.333097934723,,3,,3,10,brightness,readingArea,realistic,75,2023-03-20_14h50.43.810,tripletExp_regina_11082022,2022.2.4,119.6430934939869,
8,3,12,2,0.25,1.0,2,0.444444444444444,0.298245614035088,2,0.027777777777778,3.10526315789474,ReadingArea_rsl2-rcl25-esl100-rsm2-rcm44-esm29-rsr2-rcr2-esr310,exr/ReadingArea_rsl2-rcl25-esl100-rsm2-rcm44-esm29-rsr2-rcr2-esr310.exr,ReadingArea_rsl2-rcl25-esl100-rsm2-rcm44-esm29-rsr2-rcr2-esr310.npz,,,,,0,185,185,22,,left,green,1.17,1027.0204229354858,,,3,,3,10,brightness,readingArea,realistic,75,2023-03-20_14h50.43.810,tripletExp_regina_11082022,2022.2.4,119.6430934939869,
13,1,4,2,0.111111111111111,3.10526315789474,2,0.111111111111111,0.298245614035088,2,0.694444444444444,0.298245614035088,ReadingArea_rsl2-rcl11-esl310-rsm2-rcm11-esm29-rsr2-rcr69-esr29,exr/ReadingArea_rsl2-rcl11-esl310-rsm2-rcm11-esm29-rsr2-rcr69-esr29.exr,ReadingArea_rsl2-rcl11-esl310-rsm2-rcm11-esm29-rsr2-rcr69-esr29.npz,,,,,0,186,186,396,,left,green,1.42,1029.1710901260376,,,3,,3,10,brightness,readingArea,realistic,75,2023-03-20_14h50.43.810,tripletExp_regina_11082022,2022.2.4,119.6430934939869,
0,13,1,2,0.027777777777778,0.298245614035088,2,0.111111111111111,3.10526315789474,2,0.111111111111111,0.298245614035088,ReadingArea_rsl2-rcl2-esl29-rsm2-rcm11-esm310-rsr2-rcr11-esr29,exr/ReadingArea_rsl2-rcl2-esl29-rsm2-rcm11-esm310-rsr2-rcr11-esr29.exr,ReadingArea_rsl2-rcl2-esl29-rsm2-rcm11-esm310-rsr2-rcr11-esr29.npz,,,,,0,187,187,458,,right,red,0.76,1031.317806005478,1031.7602751255035,,3,,3,10,brightness,readingArea,realistic,75,2023-03-20_14h50.43.810,tripletExp_regina_11082022,2022.2.4,119.6430934939869,
1,10,0,2,0.111111111111111,0.298245614035088,2,0.694444444444444,1.0,2,0.027777777777778,0.298245614035088,ReadingArea_rsl2-rcl11-esl29-rsm2-rcm69-esm100-rsr2-rcr2-esr29,exr/ReadingArea_rsl2-rcl11-esl29-rsm2-rcm69-esm100-rsr2-rcr2-esr29.exr,ReadingArea_rsl2-rcl11-esl29-rsm2-rcm69-esm100-rsr2-rcr2-esr29.npz,,,,,0,188,188,196,,left,green,1.15,1033.4627420902252,,,3,,3,10,brightness,readingArea,realistic,75,2023-03-20_14h50.43.810,tripletExp_regina_11082022,2022.2.4,119.6430934939869,
13,6,8,2,0.111111111111111,3.10526315789474,2,0.027777777777778,1.0,2,0.25,1.0,ReadingArea_rsl2-rcl11-esl310-rsm2-rcm2-esm100-rsr2-rcr25-esr100,exr/ReadingArea_rsl2-rcl11-esl310-rsm2-rcm2-esm100-rsr2-rcr25-esr100.exr,ReadingArea_rsl2-rcl11-esl310-rsm2-rcm2-esm100-rsr2-rcr25-esr100.npz,,,,,0,189,189,340,,right,red,3.19,1037.3915131092072,1037.852865934372,,3,,3,10,brightness,readingArea,realistic,75,2023-03-20_14h50.43.810,tripletExp_regina_11082022,2022.2.4,119.6430934939869,
0,7,13,2,0.027777777777778,0.298245614035088,2,0.111111111111111,1.0,2,0.111111111111111,3.10526315789474,ReadingArea_rsl2-rcl2-esl29-rsm2-rcm11-esm100-rsr2-rcr11-esr310,exr/ReadingArea_rsl2-rcl2-esl29-rsm2-rcm11-esm100-rsr2-rcr11-esr310.exr,ReadingArea_rsl2-rcl2-esl29-rsm2-rcm11-esm100-rsr2-rcr11-esr310.npz,,,,,0,190,190,159,,right,red,0.97,1039.5740540027618,1040.0550470352173,,3,,3,10,brightness,readingArea,realistic,75,2023-03-20_14h50.43.810,tripletExp_regina_11082022,2022.2.4,119.6430934939869,
3,1,6,2,0.444444444444444,0.298245614035088,2,0.111111111111111,0.298245614035088,2,0.027777777777778,1.0,ReadingArea_rsl2-rcl44-esl29-rsm2-rcm11-esm29-rsr2-rcr2-esr100,exr/ReadingArea_rsl2-rcl44-esl29-rsm2-rcm11-esm29-rsr2-rcr2-esr100.exr,ReadingArea_rsl2-rcl44-esl29-rsm2-rcm11-esm29-rsr2-rcr2-esr100.npz,,,,,0,191,191,464,,right,red,1.16,1041.7792880535126,1042.2362220287323,,3,,3,10,brightness,readingArea,realistic,75,2023-03-20_14h50.43.810,tripletExp_regina_11082022,2022.2.4,119.6430934939869,
13,3,7,2,0.111111111111111,3.10526315789474,2,0.444444444444444,0.298245614035088,2,0.111111111111111,1.0,ReadingArea_rsl2-rcl11-esl310-rsm2-rcm44-esm29-rsr2-rcr11-esr100,exr/ReadingArea_rsl2-rcl11-esl310-rsm2-rcm44-esm29-rsr2-rcr11-esr100.exr,ReadingArea_rsl2-rcl11-esl310-rsm2-rcm44-esm29-rsr2-rcr11-esr100.npz,,,,,0,192,192,497,,left,green,3.26,1045.6978299617767,1046.1727409362793,,3,,3,10,brightness,readingArea,realistic,75,2023-03-20_14h50.43.810,tripletExp_regina_11082022,2022.2.4,119.6430934939869,
3,11,2,2,0.444444444444444,0.298245614035088,2,1.0,1.0,2,0.25,0.298245614035088,ReadingArea_rsl2-rcl44-esl29-rsm2-rcm100-esm100-rsr2-rcr25-esr29,exr/ReadingArea_rsl2-rcl44-esl29-rsm2-rcm100-esm100-rsr2-rcr25-esr29.exr,ReadingArea_rsl2-rcl44-esl29-rsm2-rcm100-esm100-rsr2-rcr25-esr29.npz,,,,,0,193,193,220,,left,green,1.51,1047.876431941986,1048.3258011341095,,3,,3,10,brightness,readingArea,realistic,75,2023-03-20_14h50.43.810,tripletExp_regina_11082022,2022.2.4,119.6430934939869,
10,3,11,2,0.694444444444444,1.0,2,0.444444444444444,0.298245614035088,2,1.0,1.0,ReadingArea_rsl2-rcl69-esl100-rsm2-rcm44-esm29-rsr2-rcr100-esr100,exr/ReadingArea_rsl2-rcl69-esl100-rsm2-rcm44-esm29-rsr2-rcr100-esr100.exr,ReadingArea_rsl2-rcl69-esl100-rsm2-rcm44-esm29-rsr2-rcr100-esr100.npz,,,,,0,194,194,485,,left,green,1.51,1050.0196030139923,1050.4672701358795,,3,,3,10,brightness,readingArea,realistic,75,2023-03-20_14h50.43.810,tripletExp_regina_11082022,2022.2.4,119.6430934939869,
13,0,8,2,0.111111111111111,3.10526315789474,2,0.027777777777778,0.298245614035088,2,0.25,1.0,ReadingArea_rsl2-rcl11-esl310-rsm2-rcm2-esm29-rsr2-rcr25-esr100,exr/ReadingArea_rsl2-rcl11-esl310-rsm2-rcm2-esm29-rsr2-rcr25-esr100.exr,ReadingArea_rsl2-rcl11-esl310-rsm2-rcm2-esm29-rsr2-rcr25-esr100.npz,,,,,0,195,195,249,,right,red,2.95,1053.9352369308472,1054.415449142456,,3,,3,10,brightness,readingArea,realistic,75,2023-03-20_14h50.43.810,tripletExp_regina_11082022,2022.2.4,119.6430934939869,
10,2,0,2,0.694444444444444,1.0,2,0.25,0.298245614035088,2,0.027777777777778,0.298245614035088,ReadingArea_rsl2-rcl69-esl100-rsm2-rcm25-esm29-rsr2-rcr2-esr29,exr/ReadingArea_rsl2-rcl69-esl100-rsm2-rcm25-esm29-rsr2-rcr2-esr29.exr,ReadingArea_rsl2-rcl69-esl100-rsm2-rcm25-esm29-rsr2-rcr2-esr29.npz,,,,,0,196,196,427,,left,green,2.46,1057.899824142456,1058.3613729476929,,3,,3,10,brightness,readingArea,realistic,75,2023-03-20_14h50.43.810,tripletExp_regina_11082022,2022.2.4,119.6430934939869,
10,14,13,2,0.694444444444444,1.0,2,0.25,3.10526315789474,2,0.111111111111111,3.10526315789474,ReadingArea_rsl2-rcl69-esl100-rsm2-rcm25-esm310-rsr2-rcr11-esr310,exr/ReadingArea_rsl2-rcl69-esl100-rsm2-rcm25-esm310-rsr2-rcr11-esr310.exr,ReadingArea_rsl2-rcl69-esl100-rsm2-rcm25-esm310-rsr2-rcr11-esr310.npz,,,,,0,197,197,168,,left,green,1.18,1060.059548139572,1060.512573003769,,3,,3,10,brightness,readingArea,realistic,75,2023-03-20_14h50.43.810,tripletExp_regina_11082022,2022.2.4,119.6430934939869,
14,13,2,2,0.25,3.10526315789474,2,0.111111111111111,3.10526315789474,2,0.25,0.298245614035088,ReadingArea_rsl2-rcl25-esl310-rsm2-rcm11-esm310-rsr2-rcr25-esr29,exr/ReadingArea_rsl2-rcl25-esl310-rsm2-rcm11-esm310-rsr2-rcr25-esr29.exr,ReadingArea_rsl2-rcl25-esl310-rsm2-rcm11-esm310-rsr2-rcr25-esr29.npz,,,,,0,198,198,377,,right,red,1.02,1062.20428109169,1062.6637411117554,,3,,3,10,brightness,readingArea,realistic,75,2023-03-20_14h50.43.810,tripletExp_regina_11082022,2022.2.4,119.6430934939869,
3,7,8,2,0.444444444444444,0.298245614035088,2,0.111111111111111,1.0,2,0.25,1.0,ReadingArea_rsl2-rcl44-esl29-rsm2-rcm11-esm100-rsr2-rcr25-esr100,exr/ReadingArea_rsl2-rcl44-esl29-rsm2-rcm11-esm100-rsr2-rcr25-esr100.exr,ReadingArea_rsl2-rcl44-esl29-rsm2-rcm11-esm100-rsr2-rcr25-esr100.npz,,,,,0,199,199,246,,left,green,2.72,1066.1113381385803,1066.5650041103363,,3,,3,10,brightness,readingArea,realistic,75,2023-03-20_14h50.43.810,tripletExp_regina_11082022,2022.2.4,119.6430934939869,
4,10,9,2,0.694444444444444,0.298245614035088,2,0.694444444444444,1.0,2,0.444444444444444,1.0,ReadingArea_rsl2-rcl69-esl29-rsm2-rcm69-esm100-rsr2-rcr44-esr100,exr/ReadingArea_rsl2-rcl69-esl29-rsm2-rcm69-esm100-rsr2-rcr44-esr100.exr,ReadingArea_rsl2-rcl69-esl29-rsm2-rcm69-esm100-rsr2-rcr44-esr100.npz,,,,,0,200,200,516,,right,red,1.3,1068.2616050243378,1068.7140729427338,,3,,3,10,brightness,readingArea,realistic,75,2023-03-20_14h50.43.810,tripletExp_regina_11082022,2022.2.4,119.6430934939869,
8,7,13,2,0.25,1.0,2,0.111111111111111,1.0,2,0.111111111111111,3.10526315789474,ReadingArea_rsl2-rcl25-esl100-rsm2-rcm11-esm100-rsr2-rcr11-esr310,exr/ReadingArea_rsl2-rcl25-esl100-rsm2-rcm11-esm100-rsr2-rcr11-esr310.exr,ReadingArea_rsl2-rcl25-esl100-rsm2-rcm11-esm100-rsr2-rcr11-esr310.npz,,,,,0,201,201,512,,left,green,2.38,1072.196783065796,1072.664379119873,,3,,3,10,brightness,readingArea,realistic,75,2023-03-20_14h50.43.810,tripletExp_regina_11082022,2022.2.4,119.6430934939869,
9,6,11,2,0.444444444444444,1.0,2,0.027777777777778,1.0,2,1.0,1.0,ReadingArea_rsl2-rcl44-esl100-rsm2-rcm2-esm100-rsr2-rcr100-esr100,exr/ReadingArea_rsl2-rcl44-esl100-rsm2-rcm2-esm100-rsr2-rcr100-esr100.exr,ReadingArea_rsl2-rcl44-esl100-rsm2-rcm2-esm100-rsr2-rcr100-esr100.npz,,,,,0,202,202,572,,left,green,1.17,1074.3598420619965,1074.8092579841614,,3,,3,10,brightness,readingArea,realistic,75,2023-03-20_14h50.43.810,tripletExp_regina_11082022,2022.2.4,119.6430934939869,
