index_left,index_middle,index_right,reflectance_surround_left,reflectance_center_left,emission_spot_left,reflectance_surround_middle,reflectance_center_middle,emission_spot_middle,reflectance_surround_right,reflectance_center_right,emission_spot_right,ImageName,ImageExr,ImageNpy,trials_2.thisRepN,trials_2.thisTrialN,trials_2.thisN,trials_2.thisIndex,trials.thisRepN,trials.thisTrialN,trials.thisN,trials.thisIndex,sound_1.started,sound_1.stopped,BB_Trial.resp,BB_Trial.color,BB_Trial.rt,text.started,text.stopped,block,sound_4.started,participant,session,L/B,scene,condition,nTrialsPerBlock,date,expName,psychopyVersion,frameRate,Unnamed: 42
12,8,6,2,0.027777777777778,3.10526315789474,2,0.25,1.0,2,0.027777777777778,1.0,ReadingArea_rsl2-rcl2-esl310-rsm2-rcm25-esm100-rsr2-rcr2-esr100,exr/ReadingArea_rsl2-rcl2-esl310-rsm2-rcm25-esm100-rsr2-rcr2-esr100.exr,ReadingArea_rsl2-rcl2-esl310-rsm2-rcm25-esm100-rsr2-rcr2-esr100.npz,,,,,0,0,0,281,149.8159815311432,129.44859409332275,left,green,2.64,162.21210408210754,150.68429803848267,1,,4,2,lightness,readingArea,realistic,75,2023-03-20_13h20.31.581,tripletExp_regina_11082022,2022.2.4,120.44256707280304,
9,12,11,2,0.444444444444444,1.0,2,0.027777777777778,3.10526315789474,2,1.0,1.0,ReadingArea_rsl2-rcl44-esl100-rsm2-rcm2-esm310-rsr2-rcr100-esr100,exr/ReadingArea_rsl2-rcl44-esl100-rsm2-rcm2-esm310-rsr2-rcr100-esr100.exr,ReadingArea_rsl2-rcl44-esl100-rsm2-rcm2-esm310-rsr2-rcr100-esr100.npz,,,,,0,1,1,144,,,left,green,2.46,166.11459612846377,166.50664401054382,1,,4,2,lightness,readingArea,realistic,75,2023-03-20_13h20.31.581,tripletExp_regina_11082022,2022.2.4,120.44256707280304,
4,1,9,2,0.694444444444444,0.298245614035088,2,0.111111111111111,0.298245614035088,2,0.444444444444444,1.0,ReadingArea_rsl2-rcl69-esl29-rsm2-rcm11-esm29-rsr2-rcr44-esr100,exr/ReadingArea_rsl2-rcl69-esl29-rsm2-rcm11-esm29-rsr2-rcr44-esr100.exr,ReadingArea_rsl2-rcl69-esl29-rsm2-rcm11-esm29-rsr2-rcr44-esr100.npz,,,,,0,2,2,7,,,left,green,2.85,169.9836699962616,170.3363540172577,1,,4,2,lightness,readingArea,realistic,75,2023-03-20_13h20.31.581,tripletExp_regina_11082022,2022.2.4,120.44256707280304,
11,6,14,2,1.0,1.0,2,0.027777777777778,1.0,2,0.25,3.10526315789474,ReadingArea_rsl2-rcl100-esl100-rsm2-rcm2-esm100-rsr2-rcr25-esr310,exr/ReadingArea_rsl2-rcl100-esl100-rsm2-rcm2-esm100-rsr2-rcr25-esr310.exr,ReadingArea_rsl2-rcl100-esl100-rsm2-rcm2-esm100-rsr2-rcr25-esr310.npz,,,,,0,3,3,305,,,right,red,2.93,173.80472111701965,,1,,4,2,lightness,readingArea,realistic,75,2023-03-20_13h20.31.581,tripletExp_regina_11082022,2022.2.4,120.44256707280304,
11,5,2,2,1.0,1.0,2,1.0,0.298245614035088,2,0.25,0.298245614035088,ReadingArea_rsl2-rcl100-esl100-rsm2-rcm100-esm29-rsr2-rcr25-esr29,exr/ReadingArea_rsl2-rcl100-esl100-rsm2-rcm100-esm29-rsr2-rcr25-esr29.exr,ReadingArea_rsl2-rcl100-esl100-rsm2-rcm100-esm29-rsr2-rcr25-esr29.npz,,,,,0,4,4,596,,,right,red,1.9,177.6349699497223,177.98421001434326,1,,4,2,lightness,readingArea,realistic,75,2023-03-20_13h20.31.581,tripletExp_regina_11082022,2022.2.4,120.44256707280304,
1,7,2,2,0.111111111111111,0.298245614035088,2,0.111111111111111,1.0,2,0.25,0.298245614035088,ReadingArea_rsl2-rcl11-esl29-rsm2-rcm11-esm100-rsr2-rcr25-esr29,exr/ReadingArea_rsl2-rcl11-esl29-rsm2-rcm11-esm100-rsr2-rcr25-esr29.exr,ReadingArea_rsl2-rcl11-esl29-rsm2-rcm11-esm100-rsr2-rcr25-esr29.npz,,,,,0,5,5,162,,,right,red,1.85,181.4593520164489,181.84777903556824,1,,4,2,lightness,readingArea,realistic,75,2023-03-20_13h20.31.581,tripletExp_regina_11082022,2022.2.4,120.44256707280304,
6,5,13,2,0.027777777777778,1.0,2,1.0,0.298245614035088,2,0.111111111111111,3.10526315789474,ReadingArea_rsl2-rcl2-esl100-rsm2-rcm100-esm29-rsr2-rcr11-esr310,exr/ReadingArea_rsl2-rcl2-esl100-rsm2-rcm100-esm29-rsr2-rcr11-esr310.exr,ReadingArea_rsl2-rcl2-esl100-rsm2-rcm100-esm29-rsr2-rcr11-esr310.npz,,,,,0,6,6,450,,,right,red,2.16,185.29270601272583,185.6492171287537,1,,4,2,lightness,readingArea,realistic,75,2023-03-20_13h20.31.581,tripletExp_regina_11082022,2022.2.4,120.44256707280304,
10,14,13,2,0.694444444444444,1.0,2,0.25,3.10526315789474,2,0.111111111111111,3.10526315789474,ReadingArea_rsl2-rcl69-esl100-rsm2-rcm25-esm310-rsr2-rcr11-esr310,exr/ReadingArea_rsl2-rcl69-esl100-rsm2-rcm25-esm310-rsr2-rcr11-esr310.exr,ReadingArea_rsl2-rcl69-esl100-rsm2-rcm25-esm310-rsr2-rcr11-esr310.npz,,,,,0,7,7,168,,,left,green,2.56,189.14305901527405,189.5168390274048,1,,4,2,lightness,readingArea,realistic,75,2023-03-20_13h20.31.581,tripletExp_regina_11082022,2022.2.4,120.44256707280304,
10,7,13,2,0.694444444444444,1.0,2,0.111111111111111,1.0,2,0.111111111111111,3.10526315789474,ReadingArea_rsl2-rcl69-esl100-rsm2-rcm11-esm100-rsr2-rcr11-esr310,exr/ReadingArea_rsl2-rcl69-esl100-rsm2-rcm11-esm100-rsr2-rcr11-esr310.exr,ReadingArea_rsl2-rcl69-esl100-rsm2-rcm11-esm100-rsr2-rcr11-esr310.npz,,,,,0,8,8,379,,,right,red,2.66,192.99275302886963,193.3463990688324,1,,4,2,lightness,readingArea,realistic,75,2023-03-20_13h20.31.581,tripletExp_regina_11082022,2022.2.4,120.44256707280304,
2,11,14,2,0.25,0.298245614035088,2,1.0,1.0,2,0.25,3.10526315789474,ReadingArea_rsl2-rcl25-esl29-rsm2-rcm100-esm100-rsr2-rcr25-esr310,exr/ReadingArea_rsl2-rcl25-esl29-rsm2-rcm100-esm100-rsr2-rcr25-esr310.exr,ReadingArea_rsl2-rcl25-esl29-rsm2-rcm100-esm100-rsr2-rcr25-esr310.npz,,,,,0,9,9,534,,,right,red,2.22,196.8389859199524,197.19781112670896,1,,4,2,lightness,readingArea,realistic,75,2023-03-20_13h20.31.581,tripletExp_regina_11082022,2022.2.4,120.44256707280304,
3,4,11,2,0.444444444444444,0.298245614035088,2,0.694444444444444,0.298245614035088,2,1.0,1.0,ReadingArea_rsl2-rcl44-esl29-rsm2-rcm69-esm29-rsr2-rcr100-esr100,exr/ReadingArea_rsl2-rcl44-esl29-rsm2-rcm69-esm29-rsr2-rcr100-esr100.exr,ReadingArea_rsl2-rcl44-esl29-rsm2-rcm69-esm29-rsr2-rcr100-esr100.npz,,,,,0,10,10,207,,,left,green,1.96,200.68613696098328,201.04497909545896,1,,4,2,lightness,readingArea,realistic,75,2023-03-20_13h20.31.581,tripletExp_regina_11082022,2022.2.4,120.44256707280304,
12,8,10,2,0.027777777777778,3.10526315789474,2,0.25,1.0,2,0.694444444444444,1.0,ReadingArea_rsl2-rcl2-esl310-rsm2-rcm25-esm100-rsr2-rcr69-esr100,exr/ReadingArea_rsl2-rcl2-esl310-rsm2-rcm25-esm100-rsr2-rcr69-esr100.exr,ReadingArea_rsl2-rcl2-esl310-rsm2-rcm25-esm100-rsr2-rcr69-esr100.npz,,,,,0,11,11,216,,,left,green,2.82,204.5344541072845,,1,,4,2,lightness,readingArea,realistic,75,2023-03-20_13h20.31.581,tripletExp_regina_11082022,2022.2.4,120.44256707280304,
3,13,10,2,0.444444444444444,0.298245614035088,2,0.111111111111111,3.10526315789474,2,0.694444444444444,1.0,ReadingArea_rsl2-rcl44-esl29-rsm2-rcm11-esm310-rsr2-rcr69-esr100,exr/ReadingArea_rsl2-rcl44-esl29-rsm2-rcm11-esm310-rsr2-rcr69-esr100.exr,ReadingArea_rsl2-rcl44-esl29-rsm2-rcm11-esm310-rsr2-rcr69-esr100.npz,,,,,0,12,12,416,,,left,green,2.55,208.32794213294983,208.6856379508972,1,,4,2,lightness,readingArea,realistic,75,2023-03-20_13h20.31.581,tripletExp_regina_11082022,2022.2.4,120.44256707280304,
11,5,8,2,1.0,1.0,2,1.0,0.298245614035088,2,0.25,1.0,ReadingArea_rsl2-rcl100-esl100-rsm2-rcm100-esm29-rsr2-rcr25-esr100,exr/ReadingArea_rsl2-rcl100-esl100-rsm2-rcm100-esm29-rsr2-rcr25-esr100.exr,ReadingArea_rsl2-rcl100-esl100-rsm2-rcm100-esm29-rsr2-rcr25-esr100.npz,,,,,0,13,13,86,,,right,red,2.59,212.177020072937,212.63505005836487,1,,4,2,lightness,readingArea,realistic,75,2023-03-20_13h20.31.581,tripletExp_regina_11082022,2022.2.4,120.44256707280304,
6,0,14,2,0.027777777777778,1.0,2,0.027777777777778,0.298245614035088,2,0.25,3.10526315789474,ReadingArea_rsl2-rcl2-esl100-rsm2-rcm2-esm29-rsr2-rcr25-esr310,exr/ReadingArea_rsl2-rcl2-esl100-rsm2-rcm2-esm29-rsr2-rcr25-esr310.exr,ReadingArea_rsl2-rcl2-esl100-rsm2-rcm2-esm29-rsr2-rcr25-esr310.npz,,,,,0,14,14,169,,,left,green,2.55,216.10045099258423,216.45326113700867,1,,4,2,lightness,readingArea,realistic,75,2023-03-20_13h20.31.581,tripletExp_regina_11082022,2022.2.4,120.44256707280304,
9,7,10,2,0.444444444444444,1.0,2,0.111111111111111,1.0,2,0.694444444444444,1.0,ReadingArea_rsl2-rcl44-esl100-rsm2-rcm11-esm100-rsr2-rcr69-esr100,exr/ReadingArea_rsl2-rcl44-esl100-rsm2-rcm11-esm100-rsr2-rcr69-esr100.exr,ReadingArea_rsl2-rcl44-esl100-rsm2-rcm11-esm100-rsr2-rcr69-esr100.npz,,,,,0,15,15,508,,,left,green,2.33,219.94176602363584,220.2938871383667,1,,4,2,lightness,readingArea,realistic,75,2023-03-20_13h20.31.581,tripletExp_regina_11082022,2022.2.4,120.44256707280304,
12,14,8,2,0.027777777777778,3.10526315789474,2,0.25,3.10526315789474,2,0.25,1.0,ReadingArea_rsl2-rcl2-esl310-rsm2-rcm25-esm310-rsr2-rcr25-esr100,exr/ReadingArea_rsl2-rcl2-esl310-rsm2-rcm25-esm310-rsr2-rcr25-esr100.exr,ReadingArea_rsl2-rcl2-esl310-rsm2-rcm25-esm310-rsr2-rcr25-esr100.npz,,,,,0,16,16,466,,,right,red,2.53,223.74187803268435,224.1708600521088,1,,4,2,lightness,readingArea,realistic,75,2023-03-20_13h20.31.581,tripletExp_regina_11082022,2022.2.4,120.44256707280304,
1,4,7,2,0.111111111111111,0.298245614035088,2,0.694444444444444,0.298245614035088,2,0.111111111111111,1.0,ReadingArea_rsl2-rcl11-esl29-rsm2-rcm69-esm29-rsr2-rcr11-esr100,exr/ReadingArea_rsl2-rcl11-esl29-rsm2-rcm69-esm29-rsr2-rcr11-esr100.exr,ReadingArea_rsl2-rcl11-esl29-rsm2-rcm69-esm29-rsr2-rcr11-esr100.npz,,,,,0,17,17,522,,,right,red,2.02,227.663892030716,228.00546598434448,1,,4,2,lightness,readingArea,realistic,75,2023-03-20_13h20.31.581,tripletExp_regina_11082022,2022.2.4,120.44256707280304,
14,0,3,2,0.25,3.10526315789474,2,0.027777777777778,0.298245614035088,2,0.444444444444444,0.298245614035088,ReadingArea_rsl2-rcl25-esl310-rsm2-rcm2-esm29-rsr2-rcr44-esr29,exr/ReadingArea_rsl2-rcl25-esl310-rsm2-rcm2-esm29-rsr2-rcr44-esr29.exr,ReadingArea_rsl2-rcl25-esl310-rsm2-rcm2-esm29-rsr2-rcr44-esr29.npz,,,,,0,18,18,75,,,right,red,2.01,231.4834930896759,231.8472940921784,1,,4,2,lightness,readingArea,realistic,75,2023-03-20_13h20.31.581,tripletExp_regina_11082022,2022.2.4,120.44256707280304,
4,12,6,2,0.694444444444444,0.298245614035088,2,0.027777777777778,3.10526315789474,2,0.027777777777778,1.0,ReadingArea_rsl2-rcl69-esl29-rsm2-rcm2-esm310-rsr2-rcr2-esr100,exr/ReadingArea_rsl2-rcl69-esl29-rsm2-rcm2-esm310-rsr2-rcr2-esr100.exr,ReadingArea_rsl2-rcl69-esl29-rsm2-rcm2-esm310-rsr2-rcr2-esr100.npz,,,,,0,19,19,99,,,left,green,4.54,237.09606313705444,237.46643805503845,1,,4,2,lightness,readingArea,realistic,75,2023-03-20_13h20.31.581,tripletExp_regina_11082022,2022.2.4,120.44256707280304,
9,0,3,2,0.444444444444444,1.0,2,0.027777777777778,0.298245614035088,2,0.444444444444444,0.298245614035088,ReadingArea_rsl2-rcl44-esl100-rsm2-rcm2-esm29-rsr2-rcr44-esr29,exr/ReadingArea_rsl2-rcl44-esl100-rsm2-rcm2-esm29-rsr2-rcr44-esr29.exr,ReadingArea_rsl2-rcl44-esl100-rsm2-rcm2-esm29-rsr2-rcr44-esr29.npz,,,,,0,20,20,2,,,right,red,1.92,240.93846797943115,241.2773439884185,1,,4,2,lightness,readingArea,realistic,75,2023-03-20_13h20.31.581,tripletExp_regina_11082022,2022.2.4,120.44256707280304,
9,14,7,2,0.444444444444444,1.0,2,0.25,3.10526315789474,2,0.111111111111111,1.0,ReadingArea_rsl2-rcl44-esl100-rsm2-rcm25-esm310-rsr2-rcr11-esr100,exr/ReadingArea_rsl2-rcl44-esl100-rsm2-rcm25-esm310-rsr2-rcr11-esr100.exr,ReadingArea_rsl2-rcl44-esl100-rsm2-rcm25-esm310-rsr2-rcr11-esr100.npz,,,,,0,21,21,44,,,left,green,1.93,244.73049902915955,245.092178106308,1,,4,2,lightness,readingArea,realistic,75,2023-03-20_13h20.31.581,tripletExp_regina_11082022,2022.2.4,120.44256707280304,
4,10,11,2,0.694444444444444,0.298245614035088,2,0.694444444444444,1.0,2,1.0,1.0,ReadingArea_rsl2-rcl69-esl29-rsm2-rcm69-esm100-rsr2-rcr100-esr100,exr/ReadingArea_rsl2-rcl69-esl29-rsm2-rcm69-esm100-rsr2-rcr100-esr100.exr,ReadingArea_rsl2-rcl69-esl29-rsm2-rcm69-esm100-rsr2-rcr100-esr100.npz,,,,,0,22,22,180,,,right,red,1.94,248.5756540298462,248.93071603775024,1,,4,2,lightness,readingArea,realistic,75,2023-03-20_13h20.31.581,tripletExp_regina_11082022,2022.2.4,120.44256707280304,
11,12,10,2,1.0,1.0,2,0.027777777777778,3.10526315789474,2,0.694444444444444,1.0,ReadingArea_rsl2-rcl100-esl100-rsm2-rcm2-esm310-rsr2-rcr69-esr100,exr/ReadingArea_rsl2-rcl100-esl100-rsm2-rcm2-esm310-rsr2-rcr69-esr100.exr,ReadingArea_rsl2-rcl100-esl100-rsm2-rcm2-esm310-rsr2-rcr69-esr100.npz,,,,,0,23,23,465,,,right,red,2.72,252.42250609397888,252.77531814575195,1,,4,2,lightness,readingArea,realistic,75,2023-03-20_13h20.31.581,tripletExp_regina_11082022,2022.2.4,120.44256707280304,
14,8,5,2,0.25,3.10526315789474,2,0.25,1.0,2,1.0,0.298245614035088,ReadingArea_rsl2-rcl25-esl310-rsm2-rcm25-esm100-rsr2-rcr100-esr29,exr/ReadingArea_rsl2-rcl25-esl310-rsm2-rcm25-esm100-rsr2-rcr100-esr29.exr,ReadingArea_rsl2-rcl25-esl310-rsm2-rcm25-esm100-rsr2-rcr100-esr29.npz,,,,,0,24,24,28,,,right,red,1.87,256.22248911857605,256.5627491474152,1,,4,2,lightness,readingArea,realistic,75,2023-03-20_13h20.31.581,tripletExp_regina_11082022,2022.2.4,120.44256707280304,
1,13,2,2,0.111111111111111,0.298245614035088,2,0.111111111111111,3.10526315789474,2,0.25,0.298245614035088,ReadingArea_rsl2-rcl11-esl29-rsm2-rcm11-esm310-rsr2-rcr25-esr29,exr/ReadingArea_rsl2-rcl11-esl29-rsm2-rcm11-esm310-rsr2-rcr25-esr29.exr,ReadingArea_rsl2-rcl11-esl29-rsm2-rcm11-esm310-rsr2-rcr25-esr29.npz,,,,,0,25,25,118,,,right,red,2.09,260.0576570034027,260.40882396698,1,,4,2,lightness,readingArea,realistic,75,2023-03-20_13h20.31.581,tripletExp_regina_11082022,2022.2.4,120.44256707280304,
2,6,13,2,0.25,0.298245614035088,2,0.027777777777778,1.0,2,0.111111111111111,3.10526315789474,ReadingArea_rsl2-rcl25-esl29-rsm2-rcm2-esm100-rsr2-rcr11-esr310,exr/ReadingArea_rsl2-rcl25-esl29-rsm2-rcm2-esm100-rsr2-rcr11-esr310.exr,ReadingArea_rsl2-rcl25-esl29-rsm2-rcm2-esm100-rsr2-rcr11-esr310.npz,,,,,0,26,26,388,,,left,green,3.0,263.86591506004333,264.2177610397339,1,,4,2,lightness,readingArea,realistic,75,2023-03-20_13h20.31.581,tripletExp_regina_11082022,2022.2.4,120.44256707280304,
14,13,6,2,0.25,3.10526315789474,2,0.111111111111111,3.10526315789474,2,0.027777777777778,1.0,ReadingArea_rsl2-rcl25-esl310-rsm2-rcm11-esm310-rsr2-rcr2-esr100,exr/ReadingArea_rsl2-rcl25-esl310-rsm2-rcm11-esm310-rsr2-rcr2-esr100.exr,ReadingArea_rsl2-rcl25-esl310-rsm2-rcm11-esm310-rsr2-rcr2-esr100.npz,,,,,0,27,27,102,,,left,green,2.1,267.6978189945221,268.0410461425781,1,,4,2,lightness,readingArea,realistic,75,2023-03-20_13h20.31.581,tripletExp_regina_11082022,2022.2.4,120.44256707280304,
8,13,9,2,0.25,1.0,2,0.111111111111111,3.10526315789474,2,0.444444444444444,1.0,ReadingArea_rsl2-rcl25-esl100-rsm2-rcm11-esm310-rsr2-rcr44-esr100,exr/ReadingArea_rsl2-rcl25-esl100-rsm2-rcm11-esm310-rsr2-rcr44-esr100.exr,ReadingArea_rsl2-rcl25-esl100-rsm2-rcm11-esm310-rsr2-rcr44-esr100.npz,,,,,0,28,28,487,,,left,green,1.96,271.5058720111847,271.87347507476807,1,,4,2,lightness,readingArea,realistic,75,2023-03-20_13h20.31.581,tripletExp_regina_11082022,2022.2.4,120.44256707280304,
4,5,1,2,0.694444444444444,0.298245614035088,2,1.0,0.298245614035088,2,0.111111111111111,0.298245614035088,ReadingArea_rsl2-rcl69-esl29-rsm2-rcm100-esm29-rsr2-rcr11-esr29,exr/ReadingArea_rsl2-rcl69-esl29-rsm2-rcm100-esm29-rsr2-rcr11-esr29.exr,ReadingArea_rsl2-rcl69-esl29-rsm2-rcm100-esm29-rsr2-rcr11-esr29.npz,,,,,0,29,29,240,,,left,green,2.1,275.3238251209259,275.677668094635,1,,4,2,lightness,readingArea,realistic,75,2023-03-20_13h20.31.581,tripletExp_regina_11082022,2022.2.4,120.44256707280304,
13,6,10,2,0.111111111111111,3.10526315789474,2,0.027777777777778,1.0,2,0.694444444444444,1.0,ReadingArea_rsl2-rcl11-esl310-rsm2-rcm2-esm100-rsr2-rcr69-esr100,exr/ReadingArea_rsl2-rcl11-esl310-rsm2-rcm2-esm100-rsr2-rcr69-esr100.exr,ReadingArea_rsl2-rcl11-esl310-rsm2-rcm2-esm100-rsr2-rcr69-esr100.npz,,,,,0,30,30,593,,,left,green,2.55,279.1357729434967,279.4738111495972,1,,4,2,lightness,readingArea,realistic,75,2023-03-20_13h20.31.581,tripletExp_regina_11082022,2022.2.4,120.44256707280304,
14,3,6,2,0.25,3.10526315789474,2,0.444444444444444,0.298245614035088,2,0.027777777777778,1.0,ReadingArea_rsl2-rcl25-esl310-rsm2-rcm44-esm29-rsr2-rcr2-esr100,exr/ReadingArea_rsl2-rcl25-esl310-rsm2-rcm44-esm29-rsr2-rcr2-esr100.exr,ReadingArea_rsl2-rcl25-esl310-rsm2-rcm44-esm29-rsr2-rcr2-esr100.npz,,,,,0,31,31,244,,,right,red,2.63,282.9576790332794,283.3089940547943,1,,4,2,lightness,readingArea,realistic,75,2023-03-20_13h20.31.581,tripletExp_regina_11082022,2022.2.4,120.44256707280304,
3,12,6,2,0.444444444444444,0.298245614035088,2,0.027777777777778,3.10526315789474,2,0.027777777777778,1.0,ReadingArea_rsl2-rcl44-esl29-rsm2-rcm2-esm310-rsr2-rcr2-esr100,exr/ReadingArea_rsl2-rcl44-esl29-rsm2-rcm2-esm310-rsr2-rcr2-esr100.exr,ReadingArea_rsl2-rcl44-esl29-rsm2-rcm2-esm310-rsr2-rcr2-esr100.npz,,,,,0,32,32,353,,,left,green,2.14,286.7678020000458,287.1287469863892,1,,4,2,lightness,readingArea,realistic,75,2023-03-20_13h20.31.581,tripletExp_regina_11082022,2022.2.4,120.44256707280304,
10,2,0,2,0.694444444444444,1.0,2,0.25,0.298245614035088,2,0.027777777777778,0.298245614035088,ReadingArea_rsl2-rcl69-esl100-rsm2-rcm25-esm29-rsr2-rcr2-esr29,exr/ReadingArea_rsl2-rcl69-esl100-rsm2-rcm25-esm29-rsr2-rcr2-esr29.exr,ReadingArea_rsl2-rcl69-esl100-rsm2-rcm25-esm29-rsr2-rcr2-esr29.npz,,,,,0,33,33,427,,,left,green,3.12,290.59464597702026,290.9503381252289,1,,4,2,lightness,readingArea,realistic,75,2023-03-20_13h20.31.581,tripletExp_regina_11082022,2022.2.4,120.44256707280304,
6,11,3,2,0.027777777777778,1.0,2,1.0,1.0,2,0.444444444444444,0.298245614035088,ReadingArea_rsl2-rcl2-esl100-rsm2-rcm100-esm100-rsr2-rcr44-esr29,exr/ReadingArea_rsl2-rcl2-esl100-rsm2-rcm100-esm100-rsr2-rcr44-esr29.exr,ReadingArea_rsl2-rcl2-esl100-rsm2-rcm100-esm100-rsr2-rcr44-esr29.npz,,,,,0,34,34,11,,,right,red,3.55,294.4192969799042,294.76897406578064,1,,4,2,lightness,readingArea,realistic,75,2023-03-20_13h20.31.581,tripletExp_regina_11082022,2022.2.4,120.44256707280304,
2,4,10,2,0.25,0.298245614035088,2,0.694444444444444,0.298245614035088,2,0.694444444444444,1.0,ReadingArea_rsl2-rcl25-esl29-rsm2-rcm69-esm29-rsr2-rcr69-esr100,exr/ReadingArea_rsl2-rcl25-esl29-rsm2-rcm69-esm29-rsr2-rcr69-esr100.exr,ReadingArea_rsl2-rcl25-esl29-rsm2-rcm69-esm29-rsr2-rcr69-esr100.npz,,,,,0,35,35,174,,,left,green,3.35,298.26707005500793,298.6201910972595,1,,4,2,lightness,readingArea,realistic,75,2023-03-20_13h20.31.581,tripletExp_regina_11082022,2022.2.4,120.44256707280304,
7,2,0,2,0.111111111111111,1.0,2,0.25,0.298245614035088,2,0.027777777777778,0.298245614035088,ReadingArea_rsl2-rcl11-esl100-rsm2-rcm25-esm29-rsr2-rcr2-esr29,exr/ReadingArea_rsl2-rcl11-esl100-rsm2-rcm25-esm29-rsr2-rcr2-esr29.exr,ReadingArea_rsl2-rcl11-esl100-rsm2-rcm25-esm29-rsr2-rcr2-esr29.npz,,,,,0,36,36,520,,,left,green,1.92,302.08687114715576,302.4401390552521,1,,4,2,lightness,readingArea,realistic,75,2023-03-20_13h20.31.581,tripletExp_regina_11082022,2022.2.4,120.44256707280304,
7,9,8,2,0.111111111111111,1.0,2,0.444444444444444,1.0,2,0.25,1.0,ReadingArea_rsl2-rcl11-esl100-rsm2-rcm44-esm100-rsr2-rcr25-esr100,exr/ReadingArea_rsl2-rcl11-esl100-rsm2-rcm44-esm100-rsr2-rcr25-esr100.exr,ReadingArea_rsl2-rcl11-esl100-rsm2-rcm44-esm100-rsr2-rcr25-esr100.npz,,,,,0,37,37,515,,,right,red,1.9,305.8858549594879,306.22785997390747,1,,4,2,lightness,readingArea,realistic,75,2023-03-20_13h20.31.581,tripletExp_regina_11082022,2022.2.4,120.44256707280304,
13,8,14,2,0.111111111111111,3.10526315789474,2,0.25,1.0,2,0.25,3.10526315789474,ReadingArea_rsl2-rcl11-esl310-rsm2-rcm25-esm100-rsr2-rcr25-esr310,exr/ReadingArea_rsl2-rcl11-esl310-rsm2-rcm25-esm100-rsr2-rcr25-esr310.exr,ReadingArea_rsl2-rcl11-esl310-rsm2-rcm25-esm100-rsr2-rcr25-esr310.npz,,,,,0,38,38,345,,,left,green,1.78,309.6964359283447,310.08358907699585,1,,4,2,lightness,readingArea,realistic,75,2023-03-20_13h20.31.581,tripletExp_regina_11082022,2022.2.4,120.44256707280304,
6,3,1,2,0.027777777777778,1.0,2,0.444444444444444,0.298245614035088,2,0.111111111111111,0.298245614035088,ReadingArea_rsl2-rcl2-esl100-rsm2-rcm44-esm29-rsr2-rcr11-esr29,exr/ReadingArea_rsl2-rcl2-esl100-rsm2-rcm44-esm29-rsr2-rcr11-esr29.exr,ReadingArea_rsl2-rcl2-esl100-rsm2-rcm44-esm29-rsr2-rcr11-esr29.npz,,,,,0,39,39,430,,,right,red,1.88,313.56373715400696,313.90400409698486,1,,4,2,lightness,readingArea,realistic,75,2023-03-20_13h20.31.581,tripletExp_regina_11082022,2022.2.4,120.44256707280304,
2,8,3,2,0.25,0.298245614035088,2,0.25,1.0,2,0.444444444444444,0.298245614035088,ReadingArea_rsl2-rcl25-esl29-rsm2-rcm25-esm100-rsr2-rcr44-esr29,exr/ReadingArea_rsl2-rcl25-esl29-rsm2-rcm25-esm100-rsr2-rcr44-esr29.exr,ReadingArea_rsl2-rcl25-esl29-rsm2-rcm25-esm100-rsr2-rcr44-esr29.npz,,,,,0,40,40,568,,,right,red,1.92,317.37297892570496,317.7263810634613,1,,4,2,lightness,readingArea,realistic,75,2023-03-20_13h20.31.581,tripletExp_regina_11082022,2022.2.4,120.44256707280304,
2,1,8,2,0.25,0.298245614035088,2,0.111111111111111,0.298245614035088,2,0.25,1.0,ReadingArea_rsl2-rcl25-esl29-rsm2-rcm11-esm29-rsr2-rcr25-esr100,exr/ReadingArea_rsl2-rcl25-esl29-rsm2-rcm11-esm29-rsr2-rcr25-esr100.exr,ReadingArea_rsl2-rcl25-esl29-rsm2-rcm11-esm29-rsr2-rcr25-esr100.npz,,,,,0,41,41,125,,,left,green,2.04,321.1858940124512,,1,,4,2,lightness,readingArea,realistic,75,2023-03-20_13h20.31.581,tripletExp_regina_11082022,2022.2.4,120.44256707280304,
9,6,8,2,0.444444444444444,1.0,2,0.027777777777778,1.0,2,0.25,1.0,ReadingArea_rsl2-rcl44-esl100-rsm2-rcm2-esm100-rsr2-rcr25-esr100,exr/ReadingArea_rsl2-rcl44-esl100-rsm2-rcm2-esm100-rsr2-rcr25-esr100.exr,ReadingArea_rsl2-rcl44-esl100-rsm2-rcm2-esm100-rsr2-rcr25-esr100.npz,,,,,0,42,42,312,,,right,red,1.88,324.9787600040436,325.32428908348083,1,,4,2,lightness,readingArea,realistic,75,2023-03-20_13h20.31.581,tripletExp_regina_11082022,2022.2.4,120.44256707280304,
14,0,9,2,0.25,3.10526315789474,2,0.027777777777778,0.298245614035088,2,0.444444444444444,1.0,ReadingArea_rsl2-rcl25-esl310-rsm2-rcm2-esm29-rsr2-rcr44-esr100,exr/ReadingArea_rsl2-rcl25-esl310-rsm2-rcm2-esm29-rsr2-rcr44-esr100.exr,ReadingArea_rsl2-rcl25-esl310-rsm2-rcm2-esm29-rsr2-rcr44-esr100.npz,,,,,0,43,43,90,,,right,red,1.89,328.7873270511627,,1,,4,2,lightness,readingArea,realistic,75,2023-03-20_13h20.31.581,tripletExp_regina_11082022,2022.2.4,120.44256707280304,
3,6,4,2,0.444444444444444,0.298245614035088,2,0.027777777777778,1.0,2,0.694444444444444,0.298245614035088,ReadingArea_rsl2-rcl44-esl29-rsm2-rcm2-esm100-rsr2-rcr69-esr29,exr/ReadingArea_rsl2-rcl44-esl29-rsm2-rcm2-esm100-rsr2-rcr69-esr29.exr,ReadingArea_rsl2-rcl44-esl29-rsm2-rcm2-esm100-rsr2-rcr69-esr29.npz,,,,,0,44,44,154,,,left,green,1.97,332.6486570835113,332.9909210205078,1,,4,2,lightness,readingArea,realistic,75,2023-03-20_13h20.31.581,tripletExp_regina_11082022,2022.2.4,120.44256707280304,
1,10,0,2,0.111111111111111,0.298245614035088,2,0.694444444444444,1.0,2,0.027777777777778,0.298245614035088,ReadingArea_rsl2-rcl11-esl29-rsm2-rcm69-esm100-rsr2-rcr2-esr29,exr/ReadingArea_rsl2-rcl11-esl29-rsm2-rcm69-esm100-rsr2-rcr2-esr29.exr,ReadingArea_rsl2-rcl11-esl29-rsm2-rcm69-esm100-rsr2-rcr2-esr29.npz,,,,,0,45,45,196,,,left,green,2.03,336.46012592315674,336.79995608329773,1,,4,2,lightness,readingArea,realistic,75,2023-03-20_13h20.31.581,tripletExp_regina_11082022,2022.2.4,120.44256707280304,
9,11,6,2,0.444444444444444,1.0,2,1.0,1.0,2,0.027777777777778,1.0,ReadingArea_rsl2-rcl44-esl100-rsm2-rcm100-esm100-rsr2-rcr2-esr100,exr/ReadingArea_rsl2-rcl44-esl100-rsm2-rcm100-esm100-rsr2-rcr2-esr100.exr,ReadingArea_rsl2-rcl44-esl100-rsm2-rcm100-esm100-rsr2-rcr2-esr100.npz,,,,,0,46,46,404,,,left,green,1.89,340.28081607818604,,1,,4,2,lightness,readingArea,realistic,75,2023-03-20_13h20.31.581,tripletExp_regina_11082022,2022.2.4,120.44256707280304,
10,4,13,2,0.694444444444444,1.0,2,0.694444444444444,0.298245614035088,2,0.111111111111111,3.10526315789474,ReadingArea_rsl2-rcl69-esl100-rsm2-rcm69-esm29-rsr2-rcr11-esr310,exr/ReadingArea_rsl2-rcl69-esl100-rsm2-rcm69-esm29-rsr2-rcr11-esr310.exr,ReadingArea_rsl2-rcl69-esl100-rsm2-rcm69-esm29-rsr2-rcr11-esr310.npz,,,,,0,47,47,24,,,right,red,1.95,344.19735312461853,344.5374250411988,1,,4,2,lightness,readingArea,realistic,75,2023-03-20_13h20.31.581,tripletExp_regina_11082022,2022.2.4,120.44256707280304,
4,8,0,2,0.694444444444444,0.298245614035088,2,0.25,1.0,2,0.027777777777778,0.298245614035088,ReadingArea_rsl2-rcl69-esl29-rsm2-rcm25-esm100-rsr2-rcr2-esr29,exr/ReadingArea_rsl2-rcl69-esl29-rsm2-rcm25-esm100-rsr2-rcr2-esr29.exr,ReadingArea_rsl2-rcl69-esl29-rsm2-rcm25-esm100-rsr2-rcr2-esr29.npz,,,,,0,48,48,137,,,left,green,0.76,346.231791973114,,1,,4,2,lightness,readingArea,realistic,75,2023-03-20_13h20.31.581,tripletExp_regina_11082022,2022.2.4,120.44256707280304,
6,9,2,2,0.027777777777778,1.0,2,0.444444444444444,1.0,2,0.25,0.298245614035088,ReadingArea_rsl2-rcl2-esl100-rsm2-rcm44-esm100-rsr2-rcr25-esr29,exr/ReadingArea_rsl2-rcl2-esl100-rsm2-rcm44-esm100-rsr2-rcr25-esr29.exr,ReadingArea_rsl2-rcl2-esl100-rsm2-rcm44-esm100-rsr2-rcr25-esr29.npz,,,,,0,49,49,182,,,right,red,0.91,348.3056859970093,348.6445019245148,1,,4,2,lightness,readingArea,realistic,75,2023-03-20_13h20.31.581,tripletExp_regina_11082022,2022.2.4,120.44256707280304,
6,5,0,2,0.027777777777778,1.0,2,1.0,0.298245614035088,2,0.027777777777778,0.298245614035088,ReadingArea_rsl2-rcl2-esl100-rsm2-rcm100-esm29-rsr2-rcr2-esr29,exr/ReadingArea_rsl2-rcl2-esl100-rsm2-rcm100-esm29-rsr2-rcr2-esr29.exr,ReadingArea_rsl2-rcl2-esl100-rsm2-rcm100-esm29-rsr2-rcr2-esr29.npz,,,,,0,50,50,558,,,left,green,2.1,352.10568714141846,352.48781514167786,1,,4,2,lightness,readingArea,realistic,75,2023-03-20_13h20.31.581,tripletExp_regina_11082022,2022.2.4,120.44256707280304,
13,3,7,2,0.111111111111111,3.10526315789474,2,0.444444444444444,0.298245614035088,2,0.111111111111111,1.0,ReadingArea_rsl2-rcl11-esl310-rsm2-rcm44-esm29-rsr2-rcr11-esr100,exr/ReadingArea_rsl2-rcl11-esl310-rsm2-rcm44-esm29-rsr2-rcr11-esr100.exr,ReadingArea_rsl2-rcl11-esl310-rsm2-rcm44-esm29-rsr2-rcr11-esr100.npz,,,,,0,51,51,497,,,right,red,2.06,355.98696208000183,356.3470871448517,1,,4,2,lightness,readingArea,realistic,75,2023-03-20_13h20.31.581,tripletExp_regina_11082022,2022.2.4,120.44256707280304,
0,9,10,2,0.027777777777778,0.298245614035088,2,0.444444444444444,1.0,2,0.694444444444444,1.0,ReadingArea_rsl2-rcl2-esl29-rsm2-rcm44-esm100-rsr2-rcr69-esr100,exr/ReadingArea_rsl2-rcl2-esl29-rsm2-rcm44-esm100-rsr2-rcr69-esr100.exr,ReadingArea_rsl2-rcl2-esl29-rsm2-rcm44-esm100-rsr2-rcr69-esr100.npz,,,,,0,52,52,434,,,right,red,2.28,359.83394408226013,,1,,4,2,lightness,readingArea,realistic,75,2023-03-20_13h20.31.581,tripletExp_regina_11082022,2022.2.4,120.44256707280304,
7,5,11,2,0.111111111111111,1.0,2,1.0,0.298245614035088,2,1.0,1.0,ReadingArea_rsl2-rcl11-esl100-rsm2-rcm100-esm29-rsr2-rcr100-esr100,exr/ReadingArea_rsl2-rcl11-esl100-rsm2-rcm100-esm29-rsr2-rcr100-esr100.exr,ReadingArea_rsl2-rcl11-esl100-rsm2-rcm100-esm29-rsr2-rcr100-esr100.npz,,,,,0,53,53,10,,,left,green,2.6,363.6681370735169,,1,,4,2,lightness,readingArea,realistic,75,2023-03-20_13h20.31.581,tripletExp_regina_11082022,2022.2.4,120.44256707280304,
8,3,12,2,0.25,1.0,2,0.444444444444444,0.298245614035088,2,0.027777777777778,3.10526315789474,ReadingArea_rsl2-rcl25-esl100-rsm2-rcm44-esm29-rsr2-rcr2-esr310,exr/ReadingArea_rsl2-rcl25-esl100-rsm2-rcm44-esm29-rsr2-rcr2-esr310.exr,ReadingArea_rsl2-rcl25-esl100-rsm2-rcm44-esm29-rsr2-rcr2-esr310.npz,,,,,0,54,54,22,,,left,green,1.95,367.52110409736633,367.8863821029663,1,,4,2,lightness,readingArea,realistic,75,2023-03-20_13h20.31.581,tripletExp_regina_11082022,2022.2.4,120.44256707280304,
10,9,6,2,0.694444444444444,1.0,2,0.444444444444444,1.0,2,0.027777777777778,1.0,ReadingArea_rsl2-rcl69-esl100-rsm2-rcm44-esm100-rsr2-rcr2-esr100,exr/ReadingArea_rsl2-rcl69-esl100-rsm2-rcm44-esm100-rsr2-rcr2-esr100.exr,ReadingArea_rsl2-rcl69-esl100-rsm2-rcm44-esm100-rsr2-rcr2-esr100.npz,,,,,0,55,55,35,,,left,green,1.7,369.5839281082153,369.9388530254364,1,,4,2,lightness,readingArea,realistic,75,2023-03-20_13h20.31.581,tripletExp_regina_11082022,2022.2.4,120.44256707280304,
0,5,11,2,0.027777777777778,0.298245614035088,2,1.0,0.298245614035088,2,1.0,1.0,ReadingArea_rsl2-rcl2-esl29-rsm2-rcm100-esm29-rsr2-rcr100-esr100,exr/ReadingArea_rsl2-rcl2-esl29-rsm2-rcm100-esm29-rsr2-rcr100-esr100.exr,ReadingArea_rsl2-rcl2-esl29-rsm2-rcm100-esm29-rsr2-rcr100-esr100.npz,,,,,0,56,56,422,,,right,red,1.27,371.6367900371552,372.0238699913025,1,,4,2,lightness,readingArea,realistic,75,2023-03-20_13h20.31.581,tripletExp_regina_11082022,2022.2.4,120.44256707280304,
14,7,13,2,0.25,3.10526315789474,2,0.111111111111111,1.0,2,0.111111111111111,3.10526315789474,ReadingArea_rsl2-rcl25-esl310-rsm2-rcm11-esm100-rsr2-rcr11-esr310,exr/ReadingArea_rsl2-rcl25-esl310-rsm2-rcm11-esm100-rsr2-rcr11-esr310.exr,ReadingArea_rsl2-rcl25-esl310-rsm2-rcm11-esm100-rsr2-rcr11-esr310.npz,,,,,0,57,57,358,,,right,red,2.46,375.5105240345001,375.86407995224,1,,4,2,lightness,readingArea,realistic,75,2023-03-20_13h20.31.581,tripletExp_regina_11082022,2022.2.4,120.44256707280304,
5,2,10,2,1.0,0.298245614035088,2,0.25,0.298245614035088,2,0.694444444444444,1.0,ReadingArea_rsl2-rcl100-esl29-rsm2-rcm25-esm29-rsr2-rcr69-esr100,exr/ReadingArea_rsl2-rcl100-esl29-rsm2-rcm25-esm29-rsr2-rcr69-esr100.exr,ReadingArea_rsl2-rcl100-esl29-rsm2-rcm25-esm29-rsr2-rcr69-esr100.npz,,,,,0,58,58,595,,,left,green,2.5,379.3433330059052,379.696692943573,1,,4,2,lightness,readingArea,realistic,75,2023-03-20_13h20.31.581,tripletExp_regina_11082022,2022.2.4,120.44256707280304,
13,3,12,2,0.111111111111111,3.10526315789474,2,0.444444444444444,0.298245614035088,2,0.027777777777778,3.10526315789474,ReadingArea_rsl2-rcl11-esl310-rsm2-rcm44-esm29-rsr2-rcr2-esr310,exr/ReadingArea_rsl2-rcl11-esl310-rsm2-rcm44-esm29-rsr2-rcr2-esr310.exr,ReadingArea_rsl2-rcl11-esl310-rsm2-rcm44-esm29-rsr2-rcr2-esr310.npz,,,,,0,59,59,80,,,left,green,2.89,383.1861710548401,383.5283341407776,1,,4,2,lightness,readingArea,realistic,75,2023-03-20_13h20.31.581,tripletExp_regina_11082022,2022.2.4,120.44256707280304,
13,11,8,2,0.111111111111111,3.10526315789474,2,1.0,1.0,2,0.25,1.0,ReadingArea_rsl2-rcl11-esl310-rsm2-rcm100-esm100-rsr2-rcr25-esr100,exr/ReadingArea_rsl2-rcl11-esl310-rsm2-rcm100-esm100-rsr2-rcr25-esr100.exr,ReadingArea_rsl2-rcl11-esl310-rsm2-rcm100-esm100-rsr2-rcr25-esr100.npz,,,,,0,60,60,410,,,left,green,1.87,386.9727289676666,387.3407499790192,1,,4,2,lightness,readingArea,realistic,75,2023-03-20_13h20.31.581,tripletExp_regina_11082022,2022.2.4,120.44256707280304,
6,11,1,2,0.027777777777778,1.0,2,1.0,1.0,2,0.111111111111111,0.298245614035088,ReadingArea_rsl2-rcl2-esl100-rsm2-rcm100-esm100-rsr2-rcr11-esr29,exr/ReadingArea_rsl2-rcl2-esl100-rsm2-rcm100-esm100-rsr2-rcr11-esr29.exr,ReadingArea_rsl2-rcl2-esl100-rsm2-rcm100-esm100-rsr2-rcr11-esr29.npz,,,,,0,61,61,436,,,left,green,2.02,390.778981924057,391.1404139995575,1,,4,2,lightness,readingArea,realistic,75,2023-03-20_13h20.31.581,tripletExp_regina_11082022,2022.2.4,120.44256707280304,
4,5,8,2,0.694444444444444,0.298245614035088,2,1.0,0.298245614035088,2,0.25,1.0,ReadingArea_rsl2-rcl69-esl29-rsm2-rcm100-esm29-rsr2-rcr25-esr100,exr/ReadingArea_rsl2-rcl69-esl29-rsm2-rcm100-esm29-rsr2-rcr25-esr100.exr,ReadingArea_rsl2-rcl69-esl29-rsm2-rcm100-esm29-rsr2-rcr25-esr100.npz,,,,,0,62,62,54,,,left,green,1.96,394.6117849349976,394.9677600860596,1,,4,2,lightness,readingArea,realistic,75,2023-03-20_13h20.31.581,tripletExp_regina_11082022,2022.2.4,120.44256707280304,
5,3,0,2,1.0,0.298245614035088,2,0.444444444444444,0.298245614035088,2,0.027777777777778,0.298245614035088,ReadingArea_rsl2-rcl100-esl29-rsm2-rcm44-esm29-rsr2-rcr2-esr29,exr/ReadingArea_rsl2-rcl100-esl29-rsm2-rcm44-esm29-rsr2-rcr2-esr29.exr,ReadingArea_rsl2-rcl100-esl29-rsm2-rcm44-esm29-rsr2-rcr2-esr29.npz,,,,,0,63,63,303,,,left,green,0.98,396.671667098999,397.0178279876709,1,,4,2,lightness,readingArea,realistic,75,2023-03-20_13h20.31.581,tripletExp_regina_11082022,2022.2.4,120.44256707280304,
13,11,7,2,0.111111111111111,3.10526315789474,2,1.0,1.0,2,0.111111111111111,1.0,ReadingArea_rsl2-rcl11-esl310-rsm2-rcm100-esm100-rsr2-rcr11-esr100,exr/ReadingArea_rsl2-rcl11-esl310-rsm2-rcm100-esm100-rsr2-rcr11-esr100.exr,ReadingArea_rsl2-rcl11-esl310-rsm2-rcm100-esm100-rsr2-rcr11-esr100.npz,,,,,0,64,64,590,,,left,green,2.26,400.5059621334076,400.9147391319275,1,,4,2,lightness,readingArea,realistic,75,2023-03-20_13h20.31.581,tripletExp_regina_11082022,2022.2.4,120.44256707280304,
3,2,11,2,0.444444444444444,0.298245614035088,2,0.25,0.298245614035088,2,1.0,1.0,ReadingArea_rsl2-rcl44-esl29-rsm2-rcm25-esm29-rsr2-rcr100-esr100,exr/ReadingArea_rsl2-rcl44-esl29-rsm2-rcm25-esm29-rsr2-rcr100-esr100.exr,ReadingArea_rsl2-rcl44-esl29-rsm2-rcm25-esm29-rsr2-rcr100-esr100.npz,,,,,0,65,65,257,,,left,green,1.98,404.4044320583344,404.76289892196655,1,,4,2,lightness,readingArea,realistic,75,2023-03-20_13h20.31.581,tripletExp_regina_11082022,2022.2.4,120.44256707280304,
1,14,5,2,0.111111111111111,0.298245614035088,2,0.25,3.10526315789474,2,1.0,0.298245614035088,ReadingArea_rsl2-rcl11-esl29-rsm2-rcm25-esm310-rsr2-rcr100-esr29,exr/ReadingArea_rsl2-rcl11-esl29-rsm2-rcm25-esm310-rsr2-rcr100-esr29.exr,ReadingArea_rsl2-rcl11-esl29-rsm2-rcm25-esm310-rsr2-rcr100-esr29.npz,,,,,0,66,66,509,,,right,red,1.97,408.2299320697784,408.5938830375672,1,,4,2,lightness,readingArea,realistic,75,2023-03-20_13h20.31.581,tripletExp_regina_11082022,2022.2.4,120.44256707280304,
2,4,6,2,0.25,0.298245614035088,2,0.694444444444444,0.298245614035088,2,0.027777777777778,1.0,ReadingArea_rsl2-rcl25-esl29-rsm2-rcm69-esm29-rsr2-rcr2-esr100,exr/ReadingArea_rsl2-rcl25-esl29-rsm2-rcm69-esm29-rsr2-rcr2-esr100.exr,ReadingArea_rsl2-rcl25-esl29-rsm2-rcm69-esm29-rsr2-rcr2-esr100.npz,,,,,0,67,67,563,,,left,green,1.85,412.0815789699554,412.4240460395813,1,,4,2,lightness,readingArea,realistic,75,2023-03-20_13h20.31.581,tripletExp_regina_11082022,2022.2.4,120.44256707280304,
10,3,0,2,0.694444444444444,1.0,2,0.444444444444444,0.298245614035088,2,0.027777777777778,0.298245614035088,ReadingArea_rsl2-rcl69-esl100-rsm2-rcm44-esm29-rsr2-rcr2-esr29,exr/ReadingArea_rsl2-rcl69-esl100-rsm2-rcm44-esm29-rsr2-rcr2-esr29.exr,ReadingArea_rsl2-rcl69-esl100-rsm2-rcm44-esm29-rsr2-rcr2-esr29.npz,,,,,0,68,68,203,,,left,green,1.75,414.13938999176025,414.49310994148254,1,,4,2,lightness,readingArea,realistic,75,2023-03-20_13h20.31.581,tripletExp_regina_11082022,2022.2.4,120.44256707280304,
8,6,11,2,0.25,1.0,2,0.027777777777778,1.0,2,1.0,1.0,ReadingArea_rsl2-rcl25-esl100-rsm2-rcm2-esm100-rsr2-rcr100-esr100,exr/ReadingArea_rsl2-rcl25-esl100-rsm2-rcm2-esm100-rsr2-rcr100-esr100.exr,ReadingArea_rsl2-rcl25-esl100-rsm2-rcm2-esm100-rsr2-rcr100-esr100.npz,,,,,0,69,69,236,,,left,green,1.96,417.9790680408478,418.3445720672608,1,,4,2,lightness,readingArea,realistic,75,2023-03-20_13h20.31.581,tripletExp_regina_11082022,2022.2.4,120.44256707280304,
10,5,4,2,0.694444444444444,1.0,2,1.0,0.298245614035088,2,0.694444444444444,0.298245614035088,ReadingArea_rsl2-rcl69-esl100-rsm2-rcm100-esm29-rsr2-rcr69-esr29,exr/ReadingArea_rsl2-rcl69-esl100-rsm2-rcm100-esm29-rsr2-rcr69-esr29.exr,ReadingArea_rsl2-rcl69-esl100-rsm2-rcm100-esm29-rsr2-rcr69-esr29.npz,,,,,0,70,70,455,,,right,red,1.06,420.0443539619446,420.4083211421967,1,,4,2,lightness,readingArea,realistic,75,2023-03-20_13h20.31.581,tripletExp_regina_11082022,2022.2.4,120.44256707280304,
14,1,13,2,0.25,3.10526315789474,2,0.111111111111111,0.298245614035088,2,0.111111111111111,3.10526315789474,ReadingArea_rsl2-rcl25-esl310-rsm2-rcm11-esm29-rsr2-rcr11-esr310,exr/ReadingArea_rsl2-rcl25-esl310-rsm2-rcm11-esm29-rsr2-rcr11-esr310.exr,ReadingArea_rsl2-rcl25-esl310-rsm2-rcm11-esm29-rsr2-rcr11-esr310.npz,,,,,0,71,71,265,,,right,red,1.81,423.8847351074219,424.2918450832367,1,,4,2,lightness,readingArea,realistic,75,2023-03-20_13h20.31.581,tripletExp_regina_11082022,2022.2.4,120.44256707280304,
1,5,8,2,0.111111111111111,0.298245614035088,2,1.0,0.298245614035088,2,0.25,1.0,ReadingArea_rsl2-rcl11-esl29-rsm2-rcm100-esm29-rsr2-rcr25-esr100,exr/ReadingArea_rsl2-rcl11-esl29-rsm2-rcm100-esm29-rsr2-rcr25-esr100.exr,ReadingArea_rsl2-rcl11-esl29-rsm2-rcm100-esm29-rsr2-rcr25-esr100.npz,,,,,0,72,72,238,,,right,red,1.09,426.00015902519226,426.3577239513397,1,,4,2,lightness,readingArea,realistic,75,2023-03-20_13h20.31.581,tripletExp_regina_11082022,2022.2.4,120.44256707280304,
5,10,2,2,1.0,0.298245614035088,2,0.694444444444444,1.0,2,0.25,0.298245614035088,ReadingArea_rsl2-rcl100-esl29-rsm2-rcm69-esm100-rsr2-rcr25-esr29,exr/ReadingArea_rsl2-rcl100-esl29-rsm2-rcm69-esm100-rsr2-rcr25-esr29.exr,ReadingArea_rsl2-rcl100-esl29-rsm2-rcm69-esm100-rsr2-rcr25-esr29.npz,,,,,0,73,73,489,,,left,green,1.9,429.8194041252136,430.17129611968994,1,,4,2,lightness,readingArea,realistic,75,2023-03-20_13h20.31.581,tripletExp_regina_11082022,2022.2.4,120.44256707280304,
10,0,11,2,0.694444444444444,1.0,2,0.027777777777778,0.298245614035088,2,1.0,1.0,ReadingArea_rsl2-rcl69-esl100-rsm2-rcm2-esm29-rsr2-rcr100-esr100,exr/ReadingArea_rsl2-rcl69-esl100-rsm2-rcm2-esm29-rsr2-rcr100-esr100.exr,ReadingArea_rsl2-rcl69-esl100-rsm2-rcm2-esm29-rsr2-rcr100-esr100.npz,,,,,0,74,74,573,,,left,green,2.1,433.64878511428833,433.8525650501251,1,,4,2,lightness,readingArea,realistic,75,2023-03-20_13h20.31.581,tripletExp_regina_11082022,2022.2.4,120.44256707280304,
5,14,11,2,1.0,0.298245614035088,2,0.25,3.10526315789474,2,1.0,1.0,ReadingArea_rsl2-rcl100-esl29-rsm2-rcm25-esm310-rsr2-rcr100-esr100,exr/ReadingArea_rsl2-rcl100-esl29-rsm2-rcm25-esm310-rsr2-rcr100-esr100.exr,ReadingArea_rsl2-rcl100-esl29-rsm2-rcm25-esm310-rsr2-rcr100-esr100.npz,,,,,0,75,75,98,,,right,red,1.53,468.8068881034851,469.168888092041,2,,4,2,lightness,readingArea,realistic,75,2023-03-20_13h20.31.581,tripletExp_regina_11082022,2022.2.4,120.44256707280304,
0,9,11,2,0.027777777777778,0.298245614035088,2,0.444444444444444,1.0,2,1.0,1.0,ReadingArea_rsl2-rcl2-esl29-rsm2-rcm44-esm100-rsr2-rcr100-esr100,exr/ReadingArea_rsl2-rcl2-esl29-rsm2-rcm44-esm100-rsr2-rcr100-esr100.exr,ReadingArea_rsl2-rcl2-esl29-rsm2-rcm44-esm100-rsr2-rcr100-esr100.npz,,,,,0,76,76,448,,,right,red,2.08,472.6543200016022,473.001482963562,2,,4,2,lightness,readingArea,realistic,75,2023-03-20_13h20.31.581,tripletExp_regina_11082022,2022.2.4,120.44256707280304,
6,10,8,2,0.027777777777778,1.0,2,0.694444444444444,1.0,2,0.25,1.0,ReadingArea_rsl2-rcl2-esl100-rsm2-rcm69-esm100-rsr2-rcr25-esr100,exr/ReadingArea_rsl2-rcl2-esl100-rsm2-rcm69-esm100-rsr2-rcr25-esr100.exr,ReadingArea_rsl2-rcl2-esl100-rsm2-rcm69-esm100-rsr2-rcr25-esr100.npz,,,,,0,77,77,167,,,right,red,1.82,476.4795670509338,476.8419170379639,2,,4,2,lightness,readingArea,realistic,75,2023-03-20_13h20.31.581,tripletExp_regina_11082022,2022.2.4,120.44256707280304,
14,13,2,2,0.25,3.10526315789474,2,0.111111111111111,3.10526315789474,2,0.25,0.298245614035088,ReadingArea_rsl2-rcl25-esl310-rsm2-rcm11-esm310-rsr2-rcr25-esr29,exr/ReadingArea_rsl2-rcl25-esl310-rsm2-rcm11-esm310-rsr2-rcr25-esr29.exr,ReadingArea_rsl2-rcl25-esl310-rsm2-rcm11-esm310-rsr2-rcr25-esr29.npz,,,,,0,78,78,377,,,left,green,0.56,478.5411159992218,478.9962930679321,2,,4,2,lightness,readingArea,realistic,75,2023-03-20_13h20.31.581,tripletExp_regina_11082022,2022.2.4,120.44256707280304,
7,14,10,2,0.111111111111111,1.0,2,0.25,3.10526315789474,2,0.694444444444444,1.0,ReadingArea_rsl2-rcl11-esl100-rsm2-rcm25-esm310-rsr2-rcr69-esr100,exr/ReadingArea_rsl2-rcl11-esl100-rsm2-rcm25-esm310-rsr2-rcr69-esr100.exr,ReadingArea_rsl2-rcl11-esl100-rsm2-rcm25-esm310-rsr2-rcr69-esr100.npz,,,,,0,79,79,472,,,right,red,2.01,482.4990389347077,482.84172892570496,2,,4,2,lightness,readingArea,realistic,75,2023-03-20_13h20.31.581,tripletExp_regina_11082022,2022.2.4,120.44256707280304,
8,1,10,2,0.25,1.0,2,0.111111111111111,0.298245614035088,2,0.694444444444444,1.0,ReadingArea_rsl2-rcl25-esl100-rsm2-rcm11-esm29-rsr2-rcr69-esr100,exr/ReadingArea_rsl2-rcl25-esl100-rsm2-rcm11-esm29-rsr2-rcr69-esr100.exr,ReadingArea_rsl2-rcl25-esl100-rsm2-rcm11-esm29-rsr2-rcr69-esr100.npz,,,,,0,80,80,442,,,left,green,1.8,486.32313203811646,486.6849830150604,2,,4,2,lightness,readingArea,realistic,75,2023-03-20_13h20.31.581,tripletExp_regina_11082022,2022.2.4,120.44256707280304,
1,5,13,2,0.111111111111111,0.298245614035088,2,1.0,0.298245614035088,2,0.111111111111111,3.10526315789474,ReadingArea_rsl2-rcl11-esl29-rsm2-rcm100-esm29-rsr2-rcr11-esr310,exr/ReadingArea_rsl2-rcl11-esl29-rsm2-rcm100-esm29-rsr2-rcr11-esr310.exr,ReadingArea_rsl2-rcl11-esl29-rsm2-rcm100-esm29-rsr2-rcr11-esr310.npz,,,,,0,81,81,598,,,right,red,1.87,490.1910729408264,490.5879189968109,2,,4,2,lightness,readingArea,realistic,75,2023-03-20_13h20.31.581,tripletExp_regina_11082022,2022.2.4,120.44256707280304,
13,6,1,2,0.111111111111111,3.10526315789474,2,0.027777777777778,1.0,2,0.111111111111111,0.298245614035088,ReadingArea_rsl2-rcl11-esl310-rsm2-rcm2-esm100-rsr2-rcr11-esr29,exr/ReadingArea_rsl2-rcl11-esl310-rsm2-rcm2-esm100-rsr2-rcr11-esr29.exr,ReadingArea_rsl2-rcl11-esl310-rsm2-rcm2-esm100-rsr2-rcr11-esr29.npz,,,,,0,82,82,486,,,right,red,0.82,492.2903621196747,492.63700008392334,2,,4,2,lightness,readingArea,realistic,75,2023-03-20_13h20.31.581,tripletExp_regina_11082022,2022.2.4,120.44256707280304,
14,12,0,2,0.25,3.10526315789474,2,0.027777777777778,3.10526315789474,2,0.027777777777778,0.298245614035088,ReadingArea_rsl2-rcl25-esl310-rsm2-rcm2-esm310-rsr2-rcr2-esr29,exr/ReadingArea_rsl2-rcl25-esl310-rsm2-rcm2-esm310-rsr2-rcr2-esr29.exr,ReadingArea_rsl2-rcl25-esl310-rsm2-rcm2-esm310-rsr2-rcr2-esr29.npz,,,,,0,83,83,409,,,right,red,2.2,496.0952570438385,496.4517180919647,2,,4,2,lightness,readingArea,realistic,75,2023-03-20_13h20.31.581,tripletExp_regina_11082022,2022.2.4,120.44256707280304,
7,4,1,2,0.111111111111111,1.0,2,0.694444444444444,0.298245614035088,2,0.111111111111111,0.298245614035088,ReadingArea_rsl2-rcl11-esl100-rsm2-rcm69-esm29-rsr2-rcr11-esr29,exr/ReadingArea_rsl2-rcl11-esl100-rsm2-rcm69-esm29-rsr2-rcr11-esr29.exr,ReadingArea_rsl2-rcl11-esl100-rsm2-rcm69-esm29-rsr2-rcr11-esr29.npz,,,,,0,84,84,369,,,left,green,1.85,499.9180290699005,500.2750279903412,2,,4,2,lightness,readingArea,realistic,75,2023-03-20_13h20.31.581,tripletExp_regina_11082022,2022.2.4,120.44256707280304,
11,7,14,2,1.0,1.0,2,0.111111111111111,1.0,2,0.25,3.10526315789474,ReadingArea_rsl2-rcl100-esl100-rsm2-rcm11-esm100-rsr2-rcr25-esr310,exr/ReadingArea_rsl2-rcl100-esl100-rsm2-rcm11-esm100-rsr2-rcr25-esr310.exr,ReadingArea_rsl2-rcl100-esl100-rsm2-rcm11-esm100-rsr2-rcr25-esr310.npz,,,,,0,85,85,119,,,right,red,1.81,503.77036213874817,504.13233709335327,2,,4,2,lightness,readingArea,realistic,75,2023-03-20_13h20.31.581,tripletExp_regina_11082022,2022.2.4,120.44256707280304,
9,0,8,2,0.444444444444444,1.0,2,0.027777777777778,0.298245614035088,2,0.25,1.0,ReadingArea_rsl2-rcl44-esl100-rsm2-rcm2-esm29-rsr2-rcr25-esr100,exr/ReadingArea_rsl2-rcl44-esl100-rsm2-rcm2-esm29-rsr2-rcr25-esr100.exr,ReadingArea_rsl2-rcl44-esl100-rsm2-rcm2-esm29-rsr2-rcr25-esr100.npz,,,,,0,86,86,27,,,right,red,2.09,507.6044099330902,508.0166239738464,2,,4,2,lightness,readingArea,realistic,75,2023-03-20_13h20.31.581,tripletExp_regina_11082022,2022.2.4,120.44256707280304,
6,4,13,2,0.027777777777778,1.0,2,0.694444444444444,0.298245614035088,2,0.111111111111111,3.10526315789474,ReadingArea_rsl2-rcl2-esl100-rsm2-rcm69-esm29-rsr2-rcr11-esr310,exr/ReadingArea_rsl2-rcl2-esl100-rsm2-rcm69-esm29-rsr2-rcr11-esr310.exr,ReadingArea_rsl2-rcl2-esl100-rsm2-rcm69-esm29-rsr2-rcr11-esr310.npz,,,,,0,87,87,202,,,right,red,1.03,509.7381031513214,510.09321808815,2,,4,2,lightness,readingArea,realistic,75,2023-03-20_13h20.31.581,tripletExp_regina_11082022,2022.2.4,120.44256707280304,
6,0,10,2,0.027777777777778,1.0,2,0.027777777777778,0.298245614035088,2,0.694444444444444,1.0,ReadingArea_rsl2-rcl2-esl100-rsm2-rcm2-esm29-rsr2-rcr69-esr100,exr/ReadingArea_rsl2-rcl2-esl100-rsm2-rcm2-esm29-rsr2-rcr69-esr100.exr,ReadingArea_rsl2-rcl2-esl100-rsm2-rcm2-esm29-rsr2-rcr69-esr100.npz,,,,,0,88,88,532,,,left,green,1.81,513.5727291107178,514.0164611339569,2,,4,2,lightness,readingArea,realistic,75,2023-03-20_13h20.31.581,tripletExp_regina_11082022,2022.2.4,120.44256707280304,
12,5,10,2,0.027777777777778,3.10526315789474,2,1.0,0.298245614035088,2,0.694444444444444,1.0,ReadingArea_rsl2-rcl2-esl310-rsm2-rcm100-esm29-rsr2-rcr69-esr100,exr/ReadingArea_rsl2-rcl2-esl310-rsm2-rcm100-esm29-rsr2-rcr69-esr100.exr,ReadingArea_rsl2-rcl2-esl310-rsm2-rcm100-esm29-rsr2-rcr69-esr100.npz,,,,,0,89,89,493,,,right,red,2.14,517.4909820556641,517.8466291427612,2,,4,2,lightness,readingArea,realistic,75,2023-03-20_13h20.31.581,tripletExp_regina_11082022,2022.2.4,120.44256707280304,
0,11,9,2,0.027777777777778,0.298245614035088,2,1.0,1.0,2,0.444444444444444,1.0,ReadingArea_rsl2-rcl2-esl29-rsm2-rcm100-esm100-rsr2-rcr44-esr100,exr/ReadingArea_rsl2-rcl2-esl29-rsm2-rcm100-esm100-rsr2-rcr44-esr100.exr,ReadingArea_rsl2-rcl2-esl29-rsm2-rcm100-esm100-rsr2-rcr44-esr100.npz,,,,,0,90,90,32,,,right,red,1.03,519.5672581195831,,2,,4,2,lightness,readingArea,realistic,75,2023-03-20_13h20.31.581,tripletExp_regina_11082022,2022.2.4,120.44256707280304,
10,5,2,2,0.694444444444444,1.0,2,1.0,0.298245614035088,2,0.25,0.298245614035088,ReadingArea_rsl2-rcl69-esl100-rsm2-rcm100-esm29-rsr2-rcr25-esr29,exr/ReadingArea_rsl2-rcl69-esl100-rsm2-rcm100-esm29-rsr2-rcr25-esr29.exr,ReadingArea_rsl2-rcl69-esl100-rsm2-rcm100-esm29-rsr2-rcr25-esr29.npz,,,,,0,91,91,299,,,left,green,2.36,523.4365670681,523.8332049846649,2,,4,2,lightness,readingArea,realistic,75,2023-03-20_13h20.31.581,tripletExp_regina_11082022,2022.2.4,120.44256707280304,
3,7,8,2,0.444444444444444,0.298245614035088,2,0.111111111111111,1.0,2,0.25,1.0,ReadingArea_rsl2-rcl44-esl29-rsm2-rcm11-esm100-rsr2-rcr25-esr100,exr/ReadingArea_rsl2-rcl44-esl29-rsm2-rcm11-esm100-rsr2-rcr25-esr100.exr,ReadingArea_rsl2-rcl44-esl29-rsm2-rcm11-esm100-rsr2-rcr25-esr100.npz,,,,,0,92,92,246,,,left,green,1.79,527.3273260593414,,2,,4,2,lightness,readingArea,realistic,75,2023-03-20_13h20.31.581,tripletExp_regina_11082022,2022.2.4,120.44256707280304,
0,10,12,2,0.027777777777778,0.298245614035088,2,0.694444444444444,1.0,2,0.027777777777778,3.10526315789474,ReadingArea_rsl2-rcl2-esl29-rsm2-rcm69-esm100-rsr2-rcr2-esr310,exr/ReadingArea_rsl2-rcl2-esl29-rsm2-rcm69-esm100-rsr2-rcr2-esr310.exr,ReadingArea_rsl2-rcl2-esl29-rsm2-rcm69-esm100-rsr2-rcr2-esr310.npz,,,,,0,93,93,531,,,right,red,1.85,531.1727011203766,531.5308899879456,2,,4,2,lightness,readingArea,realistic,75,2023-03-20_13h20.31.581,tripletExp_regina_11082022,2022.2.4,120.44256707280304,
12,10,5,2,0.027777777777778,3.10526315789474,2,0.694444444444444,1.0,2,1.0,0.298245614035088,ReadingArea_rsl2-rcl2-esl310-rsm2-rcm69-esm100-rsr2-rcr100-esr29,exr/ReadingArea_rsl2-rcl2-esl310-rsm2-rcm69-esm100-rsr2-rcr100-esr29.exr,ReadingArea_rsl2-rcl2-esl310-rsm2-rcm69-esm100-rsr2-rcr100-esr29.npz,,,,,0,94,94,470,,,right,red,2.04,535.0326941013336,535.4771280288696,2,,4,2,lightness,readingArea,realistic,75,2023-03-20_13h20.31.581,tripletExp_regina_11082022,2022.2.4,120.44256707280304,
11,13,1,2,1.0,1.0,2,0.111111111111111,3.10526315789474,2,0.111111111111111,0.298245614035088,ReadingArea_rsl2-rcl100-esl100-rsm2-rcm11-esm310-rsr2-rcr11-esr29,exr/ReadingArea_rsl2-rcl100-esl100-rsm2-rcm11-esm310-rsr2-rcr11-esr29.exr,ReadingArea_rsl2-rcl100-esl100-rsm2-rcm11-esm310-rsr2-rcr11-esr29.npz,,,,,0,95,95,185,,,right,red,2.06,538.9543070793152,,2,,4,2,lightness,readingArea,realistic,75,2023-03-20_13h20.31.581,tripletExp_regina_11082022,2022.2.4,120.44256707280304,
5,4,12,2,1.0,0.298245614035088,2,0.694444444444444,0.298245614035088,2,0.027777777777778,3.10526315789474,ReadingArea_rsl2-rcl100-esl29-rsm2-rcm69-esm29-rsr2-rcr2-esr310,exr/ReadingArea_rsl2-rcl100-esl29-rsm2-rcm69-esm29-rsr2-rcr2-esr310.exr,ReadingArea_rsl2-rcl100-esl29-rsm2-rcm69-esm29-rsr2-rcr2-esr310.npz,,,,,0,96,96,82,,,left,green,1.49,541.0394020080566,541.4133679866791,2,,4,2,lightness,readingArea,realistic,75,2023-03-20_13h20.31.581,tripletExp_regina_11082022,2022.2.4,120.44256707280304,
12,8,3,2,0.027777777777778,3.10526315789474,2,0.25,1.0,2,0.444444444444444,0.298245614035088,ReadingArea_rsl2-rcl2-esl310-rsm2-rcm25-esm100-rsr2-rcr44-esr29,exr/ReadingArea_rsl2-rcl2-esl310-rsm2-rcm25-esm100-rsr2-rcr44-esr29.exr,ReadingArea_rsl2-rcl2-esl310-rsm2-rcm25-esm100-rsr2-rcr44-esr29.npz,,,,,0,97,97,386,,,right,red,1.11,543.1073160171509,543.4663510322571,2,,4,2,lightness,readingArea,realistic,75,2023-03-20_13h20.31.581,tripletExp_regina_11082022,2022.2.4,120.44256707280304,
12,4,9,2,0.027777777777778,3.10526315789474,2,0.694444444444444,0.298245614035088,2,0.444444444444444,1.0,ReadingArea_rsl2-rcl2-esl310-rsm2-rcm69-esm29-rsr2-rcr44-esr100,exr/ReadingArea_rsl2-rcl2-esl310-rsm2-rcm69-esm29-rsr2-rcr44-esr100.exr,ReadingArea_rsl2-rcl2-esl310-rsm2-rcm69-esm29-rsr2-rcr44-esr100.npz,,,,,0,98,98,380,,,right,red,2.18,546.9603109359741,547.335930109024,2,,4,2,lightness,readingArea,realistic,75,2023-03-20_13h20.31.581,tripletExp_regina_11082022,2022.2.4,120.44256707280304,
2,8,11,2,0.25,0.298245614035088,2,0.25,1.0,2,1.0,1.0,ReadingArea_rsl2-rcl25-esl29-rsm2-rcm25-esm100-rsr2-rcr100-esr100,exr/ReadingArea_rsl2-rcl25-esl29-rsm2-rcm25-esm100-rsr2-rcr100-esr100.exr,ReadingArea_rsl2-rcl25-esl29-rsm2-rcm25-esm100-rsr2-rcr100-esr100.npz,,,,,0,99,99,225,,,left,green,2.11,550.8206429481506,551.1792380809784,2,,4,2,lightness,readingArea,realistic,75,2023-03-20_13h20.31.581,tripletExp_regina_11082022,2022.2.4,120.44256707280304,
6,12,8,2,0.027777777777778,1.0,2,0.027777777777778,3.10526315789474,2,0.25,1.0,ReadingArea_rsl2-rcl2-esl100-rsm2-rcm2-esm310-rsr2-rcr25-esr100,exr/ReadingArea_rsl2-rcl2-esl100-rsm2-rcm2-esm310-rsr2-rcr25-esr100.exr,ReadingArea_rsl2-rcl2-esl100-rsm2-rcm2-esm310-rsr2-rcr25-esr100.npz,,,,,0,100,100,186,,,left,green,2.35,554.6453981399536,554.9926950931549,2,,4,2,lightness,readingArea,realistic,75,2023-03-20_13h20.31.581,tripletExp_regina_11082022,2022.2.4,120.44256707280304,
10,11,0,2,0.694444444444444,1.0,2,1.0,1.0,2,0.027777777777778,0.298245614035088,ReadingArea_rsl2-rcl69-esl100-rsm2-rcm100-esm100-rsr2-rcr2-esr29,exr/ReadingArea_rsl2-rcl69-esl100-rsm2-rcm100-esm100-rsr2-rcr2-esr29.exr,ReadingArea_rsl2-rcl69-esl100-rsm2-rcm100-esm100-rsr2-rcr2-esr29.npz,,,,,0,101,101,58,,,left,green,2.13,558.4890561103821,558.8607070446014,2,,4,2,lightness,readingArea,realistic,75,2023-03-20_13h20.31.581,tripletExp_regina_11082022,2022.2.4,120.44256707280304,
11,8,7,2,1.0,1.0,2,0.25,1.0,2,0.111111111111111,1.0,ReadingArea_rsl2-rcl100-esl100-rsm2-rcm25-esm100-rsr2-rcr11-esr100,exr/ReadingArea_rsl2-rcl100-esl100-rsm2-rcm25-esm100-rsr2-rcr11-esr100.exr,ReadingArea_rsl2-rcl100-esl100-rsm2-rcm25-esm100-rsr2-rcr11-esr100.npz,,,,,0,102,102,105,,,right,red,1.63,560.5697920322418,560.9266650676727,2,,4,2,lightness,readingArea,realistic,75,2023-03-20_13h20.31.581,tripletExp_regina_11082022,2022.2.4,120.44256707280304,
2,11,8,2,0.25,0.298245614035088,2,1.0,1.0,2,0.25,1.0,ReadingArea_rsl2-rcl25-esl29-rsm2-rcm100-esm100-rsr2-rcr25-esr100,exr/ReadingArea_rsl2-rcl25-esl29-rsm2-rcm100-esm100-rsr2-rcr25-esr100.exr,ReadingArea_rsl2-rcl25-esl29-rsm2-rcm100-esm100-rsr2-rcr25-esr100.npz,,,,,0,103,103,364,,,right,red,1.93,564.3790390491486,564.7420661449432,2,,4,2,lightness,readingArea,realistic,75,2023-03-20_13h20.31.581,tripletExp_regina_11082022,2022.2.4,120.44256707280304,
5,3,10,2,1.0,0.298245614035088,2,0.444444444444444,0.298245614035088,2,0.694444444444444,1.0,ReadingArea_rsl2-rcl100-esl29-rsm2-rcm44-esm29-rsr2-rcr69-esr100,exr/ReadingArea_rsl2-rcl100-esl29-rsm2-rcm44-esm29-rsr2-rcr69-esr100.exr,ReadingArea_rsl2-rcl100-esl29-rsm2-rcm44-esm29-rsr2-rcr69-esr100.npz,,,,,0,104,104,546,,,left,green,1.29,566.4308860301971,566.7928950786591,2,,4,2,lightness,readingArea,realistic,75,2023-03-20_13h20.31.581,tripletExp_regina_11082022,2022.2.4,120.44256707280304,
3,6,13,2,0.444444444444444,0.298245614035088,2,0.027777777777778,1.0,2,0.111111111111111,3.10526315789474,ReadingArea_rsl2-rcl44-esl29-rsm2-rcm2-esm100-rsr2-rcr11-esr310,exr/ReadingArea_rsl2-rcl44-esl29-rsm2-rcm2-esm100-rsr2-rcr11-esr310.exr,ReadingArea_rsl2-rcl44-esl29-rsm2-rcm2-esm100-rsr2-rcr11-esr310.npz,,,,,0,105,105,449,,,left,green,2.17,570.2649300098419,570.6132440567017,2,,4,2,lightness,readingArea,realistic,75,2023-03-20_13h20.31.581,tripletExp_regina_11082022,2022.2.4,120.44256707280304,
8,13,3,2,0.25,1.0,2,0.111111111111111,3.10526315789474,2,0.444444444444444,0.298245614035088,ReadingArea_rsl2-rcl25-esl100-rsm2-rcm11-esm310-rsr2-rcr44-esr29,exr/ReadingArea_rsl2-rcl25-esl100-rsm2-rcm11-esm310-rsr2-rcr44-esr29.exr,ReadingArea_rsl2-rcl25-esl100-rsm2-rcm11-esm310-rsr2-rcr44-esr29.npz,,,,,0,106,106,553,,,left,green,2.15,574.0967309474945,574.4721119403839,2,,4,2,lightness,readingArea,realistic,75,2023-03-20_13h20.31.581,tripletExp_regina_11082022,2022.2.4,120.44256707280304,
7,5,1,2,0.111111111111111,1.0,2,1.0,0.298245614035088,2,0.111111111111111,0.298245614035088,ReadingArea_rsl2-rcl11-esl100-rsm2-rcm100-esm29-rsr2-rcr11-esr29,exr/ReadingArea_rsl2-rcl11-esl100-rsm2-rcm100-esm29-rsr2-rcr11-esr29.exr,ReadingArea_rsl2-rcl11-esl100-rsm2-rcm100-esm29-rsr2-rcr11-esr29.npz,,,,,0,107,107,513,,,left,green,3.36,577.9388439655304,578.3043241500854,2,,4,2,lightness,readingArea,realistic,75,2023-03-20_13h20.31.581,tripletExp_regina_11082022,2022.2.4,120.44256707280304,
6,12,7,2,0.027777777777778,1.0,2,0.027777777777778,3.10526315789474,2,0.111111111111111,1.0,ReadingArea_rsl2-rcl2-esl100-rsm2-rcm2-esm310-rsr2-rcr11-esr100,exr/ReadingArea_rsl2-rcl2-esl100-rsm2-rcm2-esm310-rsr2-rcr11-esr100.exr,ReadingArea_rsl2-rcl2-esl100-rsm2-rcm2-esm310-rsr2-rcr11-esr100.npz,,,,,0,108,108,157,,,right,red,2.62,581.7689809799194,,2,,4,2,lightness,readingArea,realistic,75,2023-03-20_13h20.31.581,tripletExp_regina_11082022,2022.2.4,120.44256707280304,
10,11,9,2,0.694444444444444,1.0,2,1.0,1.0,2,0.444444444444444,1.0,ReadingArea_rsl2-rcl69-esl100-rsm2-rcm100-esm100-rsr2-rcr44-esr100,exr/ReadingArea_rsl2-rcl69-esl100-rsm2-rcm100-esm100-rsr2-rcr44-esr100.exr,ReadingArea_rsl2-rcl69-esl100-rsm2-rcm100-esm100-rsr2-rcr44-esr100.npz,,,,,0,109,109,492,,,left,green,2.78,585.5824539661407,585.9430840015411,2,,4,2,lightness,readingArea,realistic,75,2023-03-20_13h20.31.581,tripletExp_regina_11082022,2022.2.4,120.44256707280304,
9,4,11,2,0.444444444444444,1.0,2,0.694444444444444,0.298245614035088,2,1.0,1.0,ReadingArea_rsl2-rcl44-esl100-rsm2-rcm69-esm29-rsr2-rcr100-esr100,exr/ReadingArea_rsl2-rcl44-esl100-rsm2-rcm69-esm29-rsr2-rcr100-esr100.exr,ReadingArea_rsl2-rcl44-esl100-rsm2-rcm69-esm29-rsr2-rcr100-esr100.npz,,,,,0,110,110,133,,,left,green,2.38,589.4146840572357,589.7771050930023,2,,4,2,lightness,readingArea,realistic,75,2023-03-20_13h20.31.581,tripletExp_regina_11082022,2022.2.4,120.44256707280304,
7,12,3,2,0.111111111111111,1.0,2,0.027777777777778,3.10526315789474,2,0.444444444444444,0.298245614035088,ReadingArea_rsl2-rcl11-esl100-rsm2-rcm2-esm310-rsr2-rcr44-esr29,exr/ReadingArea_rsl2-rcl11-esl100-rsm2-rcm2-esm310-rsr2-rcr44-esr29.exr,ReadingArea_rsl2-rcl11-esl100-rsm2-rcm2-esm310-rsr2-rcr44-esr29.npz,,,,,0,111,111,584,,,left,green,3.89,595.031240940094,595.3982539176941,2,,4,2,lightness,readingArea,realistic,75,2023-03-20_13h20.31.581,tripletExp_regina_11082022,2022.2.4,120.44256707280304,
11,12,2,2,1.0,1.0,2,0.027777777777778,3.10526315789474,2,0.25,0.298245614035088,ReadingArea_rsl2-rcl100-esl100-rsm2-rcm2-esm310-rsr2-rcr25-esr29,exr/ReadingArea_rsl2-rcl100-esl100-rsm2-rcm2-esm310-rsr2-rcr25-esr29.exr,ReadingArea_rsl2-rcl100-esl100-rsm2-rcm2-esm310-rsr2-rcr25-esr29.npz,,,,,0,112,112,423,,,right,red,2.78,598.8753521442413,599.2598171234131,2,,4,2,lightness,readingArea,realistic,75,2023-03-20_13h20.31.581,tripletExp_regina_11082022,2022.2.4,120.44256707280304,
2,5,3,2,0.25,0.298245614035088,2,1.0,0.298245614035088,2,0.444444444444444,0.298245614035088,ReadingArea_rsl2-rcl25-esl29-rsm2-rcm100-esm29-rsr2-rcr44-esr29,exr/ReadingArea_rsl2-rcl25-esl29-rsm2-rcm100-esm29-rsr2-rcr44-esr29.exr,ReadingArea_rsl2-rcl25-esl29-rsm2-rcm100-esm29-rsr2-rcr44-esr29.npz,,,,,0,113,113,135,,,right,red,1.87,602.7342381477356,603.1059629917145,2,,4,2,lightness,readingArea,realistic,75,2023-03-20_13h20.31.581,tripletExp_regina_11082022,2022.2.4,120.44256707280304,
10,1,0,2,0.694444444444444,1.0,2,0.111111111111111,0.298245614035088,2,0.027777777777778,0.298245614035088,ReadingArea_rsl2-rcl69-esl100-rsm2-rcm11-esm29-rsr2-rcr2-esr29,exr/ReadingArea_rsl2-rcl69-esl100-rsm2-rcm11-esm29-rsr2-rcr2-esr29.exr,ReadingArea_rsl2-rcl69-esl100-rsm2-rcm11-esm29-rsr2-rcr2-esr29.npz,,,,,0,114,114,276,,,right,red,1.85,606.5797960758209,606.9245500564575,2,,4,2,lightness,readingArea,realistic,75,2023-03-20_13h20.31.581,tripletExp_regina_11082022,2022.2.4,120.44256707280304,
3,8,1,2,0.444444444444444,0.298245614035088,2,0.25,1.0,2,0.111111111111111,0.298245614035088,ReadingArea_rsl2-rcl44-esl29-rsm2-rcm25-esm100-rsr2-rcr11-esr29,exr/ReadingArea_rsl2-rcl44-esl29-rsm2-rcm25-esm100-rsr2-rcr11-esr29.exr,ReadingArea_rsl2-rcl44-esl29-rsm2-rcm25-esm100-rsr2-rcr11-esr29.npz,,,,,0,115,115,230,,,left,green,2.28,610.4049019813538,610.7650520801544,2,,4,2,lightness,readingArea,realistic,75,2023-03-20_13h20.31.581,tripletExp_regina_11082022,2022.2.4,120.44256707280304,
2,11,7,2,0.25,0.298245614035088,2,1.0,1.0,2,0.111111111111111,1.0,ReadingArea_rsl2-rcl25-esl29-rsm2-rcm100-esm100-rsr2-rcr11-esr100,exr/ReadingArea_rsl2-rcl25-esl29-rsm2-rcm100-esm100-rsr2-rcr11-esr100.exr,ReadingArea_rsl2-rcl25-esl29-rsm2-rcm100-esm100-rsr2-rcr11-esr100.npz,,,,,0,116,116,576,,,right,red,2.79,614.2325360774994,,2,,4,2,lightness,readingArea,realistic,75,2023-03-20_13h20.31.581,tripletExp_regina_11082022,2022.2.4,120.44256707280304,
6,0,4,2,0.027777777777778,1.0,2,0.027777777777778,0.298245614035088,2,0.694444444444444,0.298245614035088,ReadingArea_rsl2-rcl2-esl100-rsm2-rcm2-esm29-rsr2-rcr69-esr29,exr/ReadingArea_rsl2-rcl2-esl100-rsm2-rcm2-esm29-rsr2-rcr69-esr29.exr,ReadingArea_rsl2-rcl2-esl100-rsm2-rcm2-esm29-rsr2-rcr69-esr29.npz,,,,,0,117,117,555,,,left,green,1.94,618.102865934372,618.461462020874,2,,4,2,lightness,readingArea,realistic,75,2023-03-20_13h20.31.581,tripletExp_regina_11082022,2022.2.4,120.44256707280304,
8,6,0,2,0.25,1.0,2,0.027777777777778,1.0,2,0.027777777777778,0.298245614035088,ReadingArea_rsl2-rcl25-esl100-rsm2-rcm2-esm100-rsr2-rcr2-esr29,exr/ReadingArea_rsl2-rcl25-esl100-rsm2-rcm2-esm100-rsr2-rcr2-esr29.exr,ReadingArea_rsl2-rcl25-esl100-rsm2-rcm2-esm100-rsr2-rcr2-esr29.npz,,,,,0,118,118,187,,,left,green,1.97,621.9483821392059,622.3775470256805,2,,4,2,lightness,readingArea,realistic,75,2023-03-20_13h20.31.581,tripletExp_regina_11082022,2022.2.4,120.44256707280304,
10,7,2,2,0.694444444444444,1.0,2,0.111111111111111,1.0,2,0.25,0.298245614035088,ReadingArea_rsl2-rcl69-esl100-rsm2-rcm11-esm100-rsr2-rcr25-esr29,exr/ReadingArea_rsl2-rcl69-esl100-rsm2-rcm11-esm100-rsr2-rcr25-esr29.exr,ReadingArea_rsl2-rcl69-esl100-rsm2-rcm11-esm100-rsr2-rcr25-esr29.npz,,,,,0,119,119,523,,,right,red,1.91,625.8319020271301,626.1916649341583,2,,4,2,lightness,readingArea,realistic,75,2023-03-20_13h20.31.581,tripletExp_regina_11082022,2022.2.4,120.44256707280304,
14,13,3,2,0.25,3.10526315789474,2,0.111111111111111,3.10526315789474,2,0.444444444444444,0.298245614035088,ReadingArea_rsl2-rcl25-esl310-rsm2-rcm11-esm310-rsr2-rcr44-esr29,exr/ReadingArea_rsl2-rcl25-esl310-rsm2-rcm11-esm310-rsr2-rcr44-esr29.exr,ReadingArea_rsl2-rcl25-esl310-rsm2-rcm11-esm310-rsr2-rcr44-esr29.npz,,,,,0,120,120,256,,,right,red,1.9,629.6576950550079,630.0187730789185,2,,4,2,lightness,readingArea,realistic,75,2023-03-20_13h20.31.581,tripletExp_regina_11082022,2022.2.4,120.44256707280304,
13,8,0,2,0.111111111111111,3.10526315789474,2,0.25,1.0,2,0.027777777777778,0.298245614035088,ReadingArea_rsl2-rcl11-esl310-rsm2-rcm25-esm100-rsr2-rcr2-esr29,exr/ReadingArea_rsl2-rcl11-esl310-rsm2-rcm25-esm100-rsr2-rcr2-esr29.exr,ReadingArea_rsl2-rcl11-esl310-rsm2-rcm25-esm100-rsr2-rcr2-esr29.npz,,,,,0,121,121,429,,,left,green,1.7,631.7220599651337,632.084545135498,2,,4,2,lightness,readingArea,realistic,75,2023-03-20_13h20.31.581,tripletExp_regina_11082022,2022.2.4,120.44256707280304,
5,14,3,2,1.0,0.298245614035088,2,0.25,3.10526315789474,2,0.444444444444444,0.298245614035088,ReadingArea_rsl2-rcl100-esl29-rsm2-rcm25-esm310-rsr2-rcr44-esr29,exr/ReadingArea_rsl2-rcl100-esl29-rsm2-rcm25-esm310-rsr2-rcr44-esr29.exr,ReadingArea_rsl2-rcl100-esl29-rsm2-rcm25-esm310-rsr2-rcr44-esr29.npz,,,,,0,122,122,93,,,left,green,2.61,635.5834519863129,635.9488570690155,2,,4,2,lightness,readingArea,realistic,75,2023-03-20_13h20.31.581,tripletExp_regina_11082022,2022.2.4,120.44256707280304,
13,10,9,2,0.111111111111111,3.10526315789474,2,0.694444444444444,1.0,2,0.444444444444444,1.0,ReadingArea_rsl2-rcl11-esl310-rsm2-rcm69-esm100-rsr2-rcr44-esr100,exr/ReadingArea_rsl2-rcl11-esl310-rsm2-rcm69-esm100-rsr2-rcr44-esr100.exr,ReadingArea_rsl2-rcl11-esl310-rsm2-rcm69-esm100-rsr2-rcr44-esr100.npz,,,,,0,123,123,330,,,left,green,2.47,639.4381170272827,639.7956919670105,2,,4,2,lightness,readingArea,realistic,75,2023-03-20_13h20.31.581,tripletExp_regina_11082022,2022.2.4,120.44256707280304,
13,2,4,2,0.111111111111111,3.10526315789474,2,0.25,0.298245614035088,2,0.694444444444444,0.298245614035088,ReadingArea_rsl2-rcl11-esl310-rsm2-rcm25-esm29-rsr2-rcr69-esr29,exr/ReadingArea_rsl2-rcl11-esl310-rsm2-rcm25-esm29-rsr2-rcr69-esr29.exr,ReadingArea_rsl2-rcl11-esl310-rsm2-rcm25-esm29-rsr2-rcr69-esr29.npz,,,,,0,124,124,307,,,right,red,4.34,645.0705089569092,,2,,4,2,lightness,readingArea,realistic,75,2023-03-20_13h20.31.581,tripletExp_regina_11082022,2022.2.4,120.44256707280304,
0,13,1,2,0.027777777777778,0.298245614035088,2,0.111111111111111,3.10526315789474,2,0.111111111111111,0.298245614035088,ReadingArea_rsl2-rcl2-esl29-rsm2-rcm11-esm310-rsr2-rcr11-esr29,exr/ReadingArea_rsl2-rcl2-esl29-rsm2-rcm11-esm310-rsr2-rcr11-esr29.exr,ReadingArea_rsl2-rcl2-esl29-rsm2-rcm11-esm310-rsr2-rcr11-esr29.npz,,,,,0,125,125,458,,,right,red,2.03,648.9070250988007,649.2683119773865,2,,4,2,lightness,readingArea,realistic,75,2023-03-20_13h20.31.581,tripletExp_regina_11082022,2022.2.4,120.44256707280304,
7,11,13,2,0.111111111111111,1.0,2,1.0,1.0,2,0.111111111111111,3.10526315789474,ReadingArea_rsl2-rcl11-esl100-rsm2-rcm100-esm100-rsr2-rcr11-esr310,exr/ReadingArea_rsl2-rcl11-esl100-rsm2-rcm100-esm100-rsr2-rcr11-esr310.exr,ReadingArea_rsl2-rcl11-esl100-rsm2-rcm100-esm100-rsr2-rcr11-esr310.npz,,,,,0,126,126,76,,,right,red,1.96,652.7474670410156,653.1127729415894,2,,4,2,lightness,readingArea,realistic,75,2023-03-20_13h20.31.581,tripletExp_regina_11082022,2022.2.4,120.44256707280304,
0,7,9,2,0.027777777777778,0.298245614035088,2,0.111111111111111,1.0,2,0.444444444444444,1.0,ReadingArea_rsl2-rcl2-esl29-rsm2-rcm11-esm100-rsr2-rcr44-esr100,exr/ReadingArea_rsl2-rcl2-esl29-rsm2-rcm11-esm100-rsr2-rcr44-esr100.exr,ReadingArea_rsl2-rcl2-esl29-rsm2-rcm11-esm100-rsr2-rcr44-esr100.npz,,,,,0,127,127,463,,,right,red,2.47,656.6019859313965,656.9776000976562,2,,4,2,lightness,readingArea,realistic,75,2023-03-20_13h20.31.581,tripletExp_regina_11082022,2022.2.4,120.44256707280304,
3,4,0,2,0.444444444444444,0.298245614035088,2,0.694444444444444,0.298245614035088,2,0.027777777777778,0.298245614035088,ReadingArea_rsl2-rcl44-esl29-rsm2-rcm69-esm29-rsr2-rcr2-esr29,exr/ReadingArea_rsl2-rcl44-esl29-rsm2-rcm69-esm29-rsr2-rcr2-esr29.exr,ReadingArea_rsl2-rcl44-esl29-rsm2-rcm69-esm29-rsr2-rcr2-esr29.npz,,,,,0,128,128,130,,,left,green,0.77,658.688903093338,659.0476260185242,2,,4,2,lightness,readingArea,realistic,75,2023-03-20_13h20.31.581,tripletExp_regina_11082022,2022.2.4,120.44256707280304,
12,14,4,2,0.027777777777778,3.10526315789474,2,0.25,3.10526315789474,2,0.694444444444444,0.298245614035088,ReadingArea_rsl2-rcl2-esl310-rsm2-rcm25-esm310-rsr2-rcr69-esr29,exr/ReadingArea_rsl2-rcl2-esl310-rsm2-rcm25-esm310-rsr2-rcr69-esr29.exr,ReadingArea_rsl2-rcl2-esl310-rsm2-rcm25-esm310-rsr2-rcr69-esr29.npz,,,,,0,129,129,315,,,right,red,1.98,662.5029289722443,662.9777660369873,2,,4,2,lightness,readingArea,realistic,75,2023-03-20_13h20.31.581,tripletExp_regina_11082022,2022.2.4,120.44256707280304,
12,5,4,2,0.027777777777778,3.10526315789474,2,1.0,0.298245614035088,2,0.694444444444444,0.298245614035088,ReadingArea_rsl2-rcl2-esl310-rsm2-rcm100-esm29-rsr2-rcr69-esr29,exr/ReadingArea_rsl2-rcl2-esl310-rsm2-rcm100-esm29-rsr2-rcr69-esr29.exr,ReadingArea_rsl2-rcl2-esl310-rsm2-rcm100-esm29-rsr2-rcr69-esr29.npz,,,,,0,130,130,566,,,right,red,1.7,664.6935119628906,665.0604560375214,2,,4,2,lightness,readingArea,realistic,75,2023-03-20_13h20.31.581,tripletExp_regina_11082022,2022.2.4,120.44256707280304,
5,13,6,2,1.0,0.298245614035088,2,0.111111111111111,3.10526315789474,2,0.027777777777778,1.0,ReadingArea_rsl2-rcl100-esl29-rsm2-rcm11-esm310-rsr2-rcr2-esr100,exr/ReadingArea_rsl2-rcl100-esl29-rsm2-rcm11-esm310-rsr2-rcr2-esr100.exr,ReadingArea_rsl2-rcl100-esl29-rsm2-rcm11-esm310-rsr2-rcr2-esr100.npz,,,,,0,131,131,263,,,left,green,1.04,666.7729260921478,667.2341039180756,2,,4,2,lightness,readingArea,realistic,75,2023-03-20_13h20.31.581,tripletExp_regina_11082022,2022.2.4,120.44256707280304,
13,10,3,2,0.111111111111111,3.10526315789474,2,0.694444444444444,1.0,2,0.444444444444444,0.298245614035088,ReadingArea_rsl2-rcl11-esl310-rsm2-rcm69-esm100-rsr2-rcr44-esr29,exr/ReadingArea_rsl2-rcl11-esl310-rsm2-rcm69-esm100-rsr2-rcr44-esr29.exr,ReadingArea_rsl2-rcl11-esl310-rsm2-rcm69-esm100-rsr2-rcr44-esr29.npz,,,,,0,132,132,224,,,left,green,1.87,670.7018229961395,671.0677089691162,2,,4,2,lightness,readingArea,realistic,75,2023-03-20_13h20.31.581,tripletExp_regina_11082022,2022.2.4,120.44256707280304,
13,3,14,2,0.111111111111111,3.10526315789474,2,0.444444444444444,0.298245614035088,2,0.25,3.10526315789474,ReadingArea_rsl2-rcl11-esl310-rsm2-rcm44-esm29-rsr2-rcr25-esr310,exr/ReadingArea_rsl2-rcl11-esl310-rsm2-rcm44-esm29-rsr2-rcr25-esr310.exr,ReadingArea_rsl2-rcl11-esl310-rsm2-rcm44-esm29-rsr2-rcr25-esr310.npz,,,,,0,133,133,38,,,left,green,2.07,674.5322749614716,674.9266350269318,2,,4,2,lightness,readingArea,realistic,75,2023-03-20_13h20.31.581,tripletExp_regina_11082022,2022.2.4,120.44256707280304,
0,10,14,2,0.027777777777778,0.298245614035088,2,0.694444444444444,1.0,2,0.25,3.10526315789474,ReadingArea_rsl2-rcl2-esl29-rsm2-rcm69-esm100-rsr2-rcr25-esr310,exr/ReadingArea_rsl2-rcl2-esl29-rsm2-rcm69-esm100-rsr2-rcr25-esr310.exr,ReadingArea_rsl2-rcl2-esl29-rsm2-rcm69-esm100-rsr2-rcr25-esr310.npz,,,,,0,134,134,31,,,right,red,1.99,678.4102821350098,678.7725250720978,2,,4,2,lightness,readingArea,realistic,75,2023-03-20_13h20.31.581,tripletExp_regina_11082022,2022.2.4,120.44256707280304,
14,10,13,2,0.25,3.10526315789474,2,0.694444444444444,1.0,2,0.111111111111111,3.10526315789474,ReadingArea_rsl2-rcl25-esl310-rsm2-rcm69-esm100-rsr2-rcr11-esr310,exr/ReadingArea_rsl2-rcl25-esl310-rsm2-rcm69-esm100-rsr2-rcr11-esr310.exr,ReadingArea_rsl2-rcl25-esl310-rsm2-rcm69-esm100-rsr2-rcr11-esr310.npz,,,,,0,135,135,204,,,left,green,1.9,682.2349791526794,682.5870640277863,2,,4,2,lightness,readingArea,realistic,75,2023-03-20_13h20.31.581,tripletExp_regina_11082022,2022.2.4,120.44256707280304,
6,2,12,2,0.027777777777778,1.0,2,0.25,0.298245614035088,2,0.027777777777778,3.10526315789474,ReadingArea_rsl2-rcl2-esl100-rsm2-rcm25-esm29-rsr2-rcr2-esr310,exr/ReadingArea_rsl2-rcl2-esl100-rsm2-rcm25-esm29-rsr2-rcr2-esr310.exr,ReadingArea_rsl2-rcl2-esl100-rsm2-rcm25-esm29-rsr2-rcr2-esr310.npz,,,,,0,136,136,480,,,right,red,0.92,684.3060030937195,684.6557080745697,2,,4,2,lightness,readingArea,realistic,75,2023-03-20_13h20.31.581,tripletExp_regina_11082022,2022.2.4,120.44256707280304,
13,10,11,2,0.111111111111111,3.10526315789474,2,0.694444444444444,1.0,2,1.0,1.0,ReadingArea_rsl2-rcl11-esl310-rsm2-rcm69-esm100-rsr2-rcr100-esr100,exr/ReadingArea_rsl2-rcl11-esl310-rsm2-rcm69-esm100-rsr2-rcr100-esr100.exr,ReadingArea_rsl2-rcl11-esl310-rsm2-rcm69-esm100-rsr2-rcr100-esr100.npz,,,,,0,137,137,320,,,right,red,1.87,688.1510901451111,688.5019869804382,2,,4,2,lightness,readingArea,realistic,75,2023-03-20_13h20.31.581,tripletExp_regina_11082022,2022.2.4,120.44256707280304,
9,11,5,2,0.444444444444444,1.0,2,1.0,1.0,2,1.0,0.298245614035088,ReadingArea_rsl2-rcl44-esl100-rsm2-rcm100-esm100-rsr2-rcr100-esr29,exr/ReadingArea_rsl2-rcl44-esl100-rsm2-rcm100-esm100-rsr2-rcr100-esr29.exr,ReadingArea_rsl2-rcl44-esl100-rsm2-rcm100-esm100-rsr2-rcr100-esr29.npz,,,,,0,138,138,142,,,left,green,1.92,691.9771809577942,692.326385974884,2,,4,2,lightness,readingArea,realistic,75,2023-03-20_13h20.31.581,tripletExp_regina_11082022,2022.2.4,120.44256707280304,
0,5,12,2,0.027777777777778,0.298245614035088,2,1.0,0.298245614035088,2,0.027777777777778,3.10526315789474,ReadingArea_rsl2-rcl2-esl29-rsm2-rcm100-esm29-rsr2-rcr2-esr310,exr/ReadingArea_rsl2-rcl2-esl29-rsm2-rcm100-esm29-rsr2-rcr2-esr310.exr,ReadingArea_rsl2-rcl2-esl29-rsm2-rcm100-esm29-rsr2-rcr2-esr310.npz,,,,,0,139,139,366,,,right,red,1.85,695.826905965805,696.1875641345978,2,,4,2,lightness,readingArea,realistic,75,2023-03-20_13h20.31.581,tripletExp_regina_11082022,2022.2.4,120.44256707280304,
2,5,14,2,0.25,0.298245614035088,2,1.0,0.298245614035088,2,0.25,3.10526315789474,ReadingArea_rsl2-rcl25-esl29-rsm2-rcm100-esm29-rsr2-rcr25-esr310,exr/ReadingArea_rsl2-rcl25-esl29-rsm2-rcm100-esm29-rsr2-rcr25-esr310.exr,ReadingArea_rsl2-rcl25-esl29-rsm2-rcm100-esm29-rsr2-rcr25-esr310.npz,,,,,0,140,140,390,,,left,green,1.89,699.6702311038971,700.0355849266052,2,,4,2,lightness,readingArea,realistic,75,2023-03-20_13h20.31.581,tripletExp_regina_11082022,2022.2.4,120.44256707280304,
2,8,4,2,0.25,0.298245614035088,2,0.25,1.0,2,0.694444444444444,0.298245614035088,ReadingArea_rsl2-rcl25-esl29-rsm2-rcm25-esm100-rsr2-rcr69-esr29,exr/ReadingArea_rsl2-rcl25-esl29-rsm2-rcm25-esm100-rsr2-rcr69-esr29.exr,ReadingArea_rsl2-rcl25-esl29-rsm2-rcm25-esm100-rsr2-rcr69-esr29.npz,,,,,0,141,141,507,,,right,red,1.83,703.5359380245209,703.8878200054169,2,,4,2,lightness,readingArea,realistic,75,2023-03-20_13h20.31.581,tripletExp_regina_11082022,2022.2.4,120.44256707280304,
2,1,13,2,0.25,0.298245614035088,2,0.111111111111111,0.298245614035088,2,0.111111111111111,3.10526315789474,ReadingArea_rsl2-rcl25-esl29-rsm2-rcm11-esm29-rsr2-rcr11-esr310,exr/ReadingArea_rsl2-rcl25-esl29-rsm2-rcm11-esm29-rsr2-rcr11-esr310.exr,ReadingArea_rsl2-rcl25-esl29-rsm2-rcm11-esm29-rsr2-rcr11-esr310.npz,,,,,0,142,142,290,,,left,green,1.82,707.384439945221,707.7451150417328,2,,4,2,lightness,readingArea,realistic,75,2023-03-20_13h20.31.581,tripletExp_regina_11082022,2022.2.4,120.44256707280304,
7,13,4,2,0.111111111111111,1.0,2,0.111111111111111,3.10526315789474,2,0.694444444444444,0.298245614035088,ReadingArea_rsl2-rcl11-esl100-rsm2-rcm11-esm310-rsr2-rcr69-esr29,exr/ReadingArea_rsl2-rcl11-esl100-rsm2-rcm11-esm310-rsr2-rcr69-esr29.exr,ReadingArea_rsl2-rcl11-esl100-rsm2-rcm11-esm310-rsr2-rcr69-esr29.npz,,,,,0,143,143,456,,,right,red,2.51,711.2130300998688,711.5742909908295,2,,4,2,lightness,readingArea,realistic,75,2023-03-20_13h20.31.581,tripletExp_regina_11082022,2022.2.4,120.44256707280304,
14,7,8,2,0.25,3.10526315789474,2,0.111111111111111,1.0,2,0.25,1.0,ReadingArea_rsl2-rcl25-esl310-rsm2-rcm11-esm100-rsr2-rcr25-esr100,exr/ReadingArea_rsl2-rcl25-esl310-rsm2-rcm11-esm100-rsr2-rcr25-esr100.exr,ReadingArea_rsl2-rcl25-esl310-rsm2-rcm11-esm100-rsr2-rcr25-esr100.npz,,,,,0,144,144,326,,,right,red,1.79,715.0403089523315,715.3952269554138,2,,4,2,lightness,readingArea,realistic,75,2023-03-20_13h20.31.581,tripletExp_regina_11082022,2022.2.4,120.44256707280304,
0,8,6,2,0.027777777777778,0.298245614035088,2,0.25,1.0,2,0.027777777777778,1.0,ReadingArea_rsl2-rcl2-esl29-rsm2-rcm25-esm100-rsr2-rcr2-esr100,exr/ReadingArea_rsl2-rcl2-esl29-rsm2-rcm25-esm100-rsr2-rcr2-esr100.exr,ReadingArea_rsl2-rcl2-esl29-rsm2-rcm25-esm100-rsr2-rcr2-esr100.npz,,,,,0,145,145,92,,,right,red,2.27,718.8822159767151,,2,,4,2,lightness,readingArea,realistic,75,2023-03-20_13h20.31.581,tripletExp_regina_11082022,2022.2.4,120.44256707280304,
7,4,2,2,0.111111111111111,1.0,2,0.694444444444444,0.298245614035088,2,0.25,0.298245614035088,ReadingArea_rsl2-rcl11-esl100-rsm2-rcm69-esm29-rsr2-rcr25-esr29,exr/ReadingArea_rsl2-rcl11-esl100-rsm2-rcm69-esm29-rsr2-rcr25-esr29.exr,ReadingArea_rsl2-rcl11-esl100-rsm2-rcm69-esm29-rsr2-rcr25-esr29.npz,,,,,0,146,146,146,,,left,green,1.86,722.7025799751282,723.0595550537109,2,,4,2,lightness,readingArea,realistic,75,2023-03-20_13h20.31.581,tripletExp_regina_11082022,2022.2.4,120.44256707280304,
4,8,7,2,0.694444444444444,0.298245614035088,2,0.25,1.0,2,0.111111111111111,1.0,ReadingArea_rsl2-rcl69-esl29-rsm2-rcm25-esm100-rsr2-rcr11-esr100,exr/ReadingArea_rsl2-rcl69-esl29-rsm2-rcm25-esm100-rsr2-rcr11-esr100.exr,ReadingArea_rsl2-rcl69-esl29-rsm2-rcm25-esm100-rsr2-rcr11-esr100.npz,,,,,0,147,147,461,,,right,red,1.97,726.5233211517334,726.8976061344147,2,,4,2,lightness,readingArea,realistic,75,2023-03-20_13h20.31.581,tripletExp_regina_11082022,2022.2.4,120.44256707280304,
10,7,3,2,0.694444444444444,1.0,2,0.111111111111111,1.0,2,0.444444444444444,0.298245614035088,ReadingArea_rsl2-rcl69-esl100-rsm2-rcm11-esm100-rsr2-rcr44-esr29,exr/ReadingArea_rsl2-rcl69-esl100-rsm2-rcm11-esm100-rsr2-rcr44-esr29.exr,ReadingArea_rsl2-rcl69-esl100-rsm2-rcm11-esm100-rsr2-rcr44-esr29.npz,,,,,0,148,148,582,,,right,red,2.65,730.3667211532593,730.7304010391235,2,,4,2,lightness,readingArea,realistic,75,2023-03-20_13h20.31.581,tripletExp_regina_11082022,2022.2.4,120.44256707280304,
14,12,10,2,0.25,3.10526315789474,2,0.027777777777778,3.10526315789474,2,0.694444444444444,1.0,ReadingArea_rsl2-rcl25-esl310-rsm2-rcm2-esm310-rsr2-rcr69-esr100,exr/ReadingArea_rsl2-rcl25-esl310-rsm2-rcm2-esm310-rsr2-rcr69-esr100.exr,ReadingArea_rsl2-rcl25-esl310-rsm2-rcm2-esm310-rsr2-rcr69-esr100.npz,,,,,0,149,149,331,,,left,green,2.9,734.2359359264374,734.4415519237518,2,,4,2,lightness,readingArea,realistic,75,2023-03-20_13h20.31.581,tripletExp_regina_11082022,2022.2.4,120.44256707280304,
0,13,12,2,0.027777777777778,0.298245614035088,2,0.111111111111111,3.10526315789474,2,0.027777777777778,3.10526315789474,ReadingArea_rsl2-rcl2-esl29-rsm2-rcm11-esm310-rsr2-rcr2-esr310,exr/ReadingArea_rsl2-rcl2-esl29-rsm2-rcm11-esm310-rsr2-rcr2-esr310.exr,ReadingArea_rsl2-rcl2-esl29-rsm2-rcm11-esm310-rsr2-rcr2-esr310.npz,,,,,0,150,150,501,,,right,red,1.06,782.9798181056976,783.3637080192566,3,,4,2,lightness,readingArea,realistic,75,2023-03-20_13h20.31.581,tripletExp_regina_11082022,2022.2.4,120.44256707280304,
3,6,10,2,0.444444444444444,0.298245614035088,2,0.027777777777778,1.0,2,0.694444444444444,1.0,ReadingArea_rsl2-rcl44-esl29-rsm2-rcm2-esm100-rsr2-rcr69-esr100,exr/ReadingArea_rsl2-rcl44-esl29-rsm2-rcm2-esm100-rsr2-rcr69-esr100.exr,ReadingArea_rsl2-rcl44-esl29-rsm2-rcm2-esm100-rsr2-rcr69-esr100.npz,,,,,0,151,151,138,,,left,green,1.31,785.0751659870148,785.4498629570007,3,,4,2,lightness,readingArea,realistic,75,2023-03-20_13h20.31.581,tripletExp_regina_11082022,2022.2.4,120.44256707280304,
4,13,1,2,0.694444444444444,0.298245614035088,2,0.111111111111111,3.10526315789474,2,0.111111111111111,0.298245614035088,ReadingArea_rsl2-rcl69-esl29-rsm2-rcm11-esm310-rsr2-rcr11-esr29,exr/ReadingArea_rsl2-rcl69-esl29-rsm2-rcm11-esm310-rsr2-rcr11-esr29.exr,ReadingArea_rsl2-rcl69-esl29-rsm2-rcm11-esm310-rsr2-rcr11-esr29.npz,,,,,0,152,152,192,,,left,green,1.2,787.162759065628,787.6276891231537,3,,4,2,lightness,readingArea,realistic,75,2023-03-20_13h20.31.581,tripletExp_regina_11082022,2022.2.4,120.44256707280304,
3,14,4,2,0.444444444444444,0.298245614035088,2,0.25,3.10526315789474,2,0.694444444444444,0.298245614035088,ReadingArea_rsl2-rcl44-esl29-rsm2-rcm25-esm310-rsr2-rcr69-esr29,exr/ReadingArea_rsl2-rcl44-esl29-rsm2-rcm25-esm310-rsr2-rcr69-esr29.exr,ReadingArea_rsl2-rcl44-esl29-rsm2-rcm25-esm310-rsr2-rcr69-esr29.npz,,,,,0,153,153,537,,,right,red,2.61,791.0853550434113,,3,,4,2,lightness,readingArea,realistic,75,2023-03-20_13h20.31.581,tripletExp_regina_11082022,2022.2.4,120.44256707280304,
10,3,6,2,0.694444444444444,1.0,2,0.444444444444444,0.298245614035088,2,0.027777777777778,1.0,ReadingArea_rsl2-rcl69-esl100-rsm2-rcm44-esm29-rsr2-rcr2-esr100,exr/ReadingArea_rsl2-rcl69-esl100-rsm2-rcm44-esm29-rsr2-rcr2-esr100.exr,ReadingArea_rsl2-rcl69-esl100-rsm2-rcm44-esm29-rsr2-rcr2-esr100.npz,,,,,0,154,154,261,,,right,red,3.17,794.9636669158936,795.3312449455261,3,,4,2,lightness,readingArea,realistic,75,2023-03-20_13h20.31.581,tripletExp_regina_11082022,2022.2.4,120.44256707280304,
6,11,7,2,0.027777777777778,1.0,2,1.0,1.0,2,0.111111111111111,1.0,ReadingArea_rsl2-rcl2-esl100-rsm2-rcm100-esm100-rsr2-rcr11-esr100,exr/ReadingArea_rsl2-rcl2-esl100-rsm2-rcm100-esm100-rsr2-rcr11-esr100.exr,ReadingArea_rsl2-rcl2-esl100-rsm2-rcm100-esm100-rsr2-rcr11-esr100.npz,,,,,0,155,155,571,,,right,red,1.98,798.8282599449158,,3,,4,2,lightness,readingArea,realistic,75,2023-03-20_13h20.31.581,tripletExp_regina_11082022,2022.2.4,120.44256707280304,
14,4,7,2,0.25,3.10526315789474,2,0.694444444444444,0.298245614035088,2,0.111111111111111,1.0,ReadingArea_rsl2-rcl25-esl310-rsm2-rcm69-esm29-rsr2-rcr11-esr100,exr/ReadingArea_rsl2-rcl25-esl310-rsm2-rcm69-esm29-rsr2-rcr11-esr100.exr,ReadingArea_rsl2-rcl25-esl310-rsm2-rcm69-esm29-rsr2-rcr11-esr100.npz,,,,,0,156,156,136,,,right,red,2.1,802.6924870014191,803.0616409778595,3,,4,2,lightness,readingArea,realistic,75,2023-03-20_13h20.31.581,tripletExp_regina_11082022,2022.2.4,120.44256707280304,
11,12,4,2,1.0,1.0,2,0.027777777777778,3.10526315789474,2,0.694444444444444,0.298245614035088,ReadingArea_rsl2-rcl100-esl100-rsm2-rcm2-esm310-rsr2-rcr69-esr29,exr/ReadingArea_rsl2-rcl100-esl100-rsm2-rcm2-esm310-rsr2-rcr69-esr29.exr,ReadingArea_rsl2-rcl100-esl100-rsm2-rcm2-esm310-rsr2-rcr69-esr29.npz,,,,,0,157,157,250,,,right,red,2.16,806.5257909297943,806.8837399482727,3,,4,2,lightness,readingArea,realistic,75,2023-03-20_13h20.31.581,tripletExp_regina_11082022,2022.2.4,120.44256707280304,
5,11,8,2,1.0,0.298245614035088,2,1.0,1.0,2,0.25,1.0,ReadingArea_rsl2-rcl100-esl29-rsm2-rcm100-esm100-rsr2-rcr25-esr100,exr/ReadingArea_rsl2-rcl100-esl29-rsm2-rcm100-esm100-rsr2-rcr25-esr100.exr,ReadingArea_rsl2-rcl100-esl29-rsm2-rcm100-esm100-rsr2-rcr25-esr100.npz,,,,,0,158,158,548,,,right,red,2.08,810.3509929180145,810.722736120224,3,,4,2,lightness,readingArea,realistic,75,2023-03-20_13h20.31.581,tripletExp_regina_11082022,2022.2.4,120.44256707280304,
1,13,11,2,0.111111111111111,0.298245614035088,2,0.111111111111111,3.10526315789474,2,1.0,1.0,ReadingArea_rsl2-rcl11-esl29-rsm2-rcm11-esm310-rsr2-rcr100-esr100,exr/ReadingArea_rsl2-rcl11-esl29-rsm2-rcm11-esm310-rsr2-rcr100-esr100.exr,ReadingArea_rsl2-rcl11-esl29-rsm2-rcm11-esm310-rsr2-rcr100-esr100.npz,,,,,0,159,159,333,,,left,green,2.43,814.2066659927368,814.5762131214142,3,,4,2,lightness,readingArea,realistic,75,2023-03-20_13h20.31.581,tripletExp_regina_11082022,2022.2.4,120.44256707280304,
5,6,0,2,1.0,0.298245614035088,2,0.027777777777778,1.0,2,0.027777777777778,0.298245614035088,ReadingArea_rsl2-rcl100-esl29-rsm2-rcm2-esm100-rsr2-rcr2-esr29,exr/ReadingArea_rsl2-rcl100-esl29-rsm2-rcm2-esm100-rsr2-rcr2-esr29.exr,ReadingArea_rsl2-rcl100-esl29-rsm2-rcm2-esm100-rsr2-rcr2-esr29.npz,,,,,0,160,160,511,,,right,red,2.26,818.0187699794769,818.3888981342316,3,,4,2,lightness,readingArea,realistic,75,2023-03-20_13h20.31.581,tripletExp_regina_11082022,2022.2.4,120.44256707280304,
11,5,3,2,1.0,1.0,2,1.0,0.298245614035088,2,0.444444444444444,0.298245614035088,ReadingArea_rsl2-rcl100-esl100-rsm2-rcm100-esm29-rsr2-rcr44-esr29,exr/ReadingArea_rsl2-rcl100-esl100-rsm2-rcm100-esm29-rsr2-rcr44-esr29.exr,ReadingArea_rsl2-rcl100-esl100-rsm2-rcm100-esm29-rsr2-rcr44-esr29.npz,,,,,0,161,161,172,,,right,red,1.7,820.0979211330414,,3,,4,2,lightness,readingArea,realistic,75,2023-03-20_13h20.31.581,tripletExp_regina_11082022,2022.2.4,120.44256707280304,
0,14,8,2,0.027777777777778,0.298245614035088,2,0.25,3.10526315789474,2,0.25,1.0,ReadingArea_rsl2-rcl2-esl29-rsm2-rcm25-esm310-rsr2-rcr25-esr100,exr/ReadingArea_rsl2-rcl2-esl29-rsm2-rcm25-esm310-rsr2-rcr25-esr100.exr,ReadingArea_rsl2-rcl2-esl29-rsm2-rcm25-esm310-rsr2-rcr25-esr100.npz,,,,,0,162,162,545,,,right,red,1.73,822.1814799308777,,3,,4,2,lightness,readingArea,realistic,75,2023-03-20_13h20.31.581,tripletExp_regina_11082022,2022.2.4,120.44256707280304,
8,9,6,2,0.25,1.0,2,0.444444444444444,1.0,2,0.027777777777778,1.0,ReadingArea_rsl2-rcl25-esl100-rsm2-rcm44-esm100-rsr2-rcr2-esr100,exr/ReadingArea_rsl2-rcl25-esl100-rsm2-rcm44-esm100-rsr2-rcr2-esr100.exr,ReadingArea_rsl2-rcl25-esl100-rsm2-rcm44-esm100-rsr2-rcr2-esr100.npz,,,,,0,163,163,3,,,left,green,2.04,826.0063900947571,826.3693771362305,3,,4,2,lightness,readingArea,realistic,75,2023-03-20_13h20.31.581,tripletExp_regina_11082022,2022.2.4,120.44256707280304,
9,12,0,2,0.444444444444444,1.0,2,0.027777777777778,3.10526315789474,2,0.027777777777778,0.298245614035088,ReadingArea_rsl2-rcl44-esl100-rsm2-rcm2-esm310-rsr2-rcr2-esr29,exr/ReadingArea_rsl2-rcl44-esl100-rsm2-rcm2-esm310-rsr2-rcr2-esr29.exr,ReadingArea_rsl2-rcl44-esl100-rsm2-rcm2-esm310-rsr2-rcr2-esr29.npz,,,,,0,164,164,175,,,right,red,1.95,829.8366961479187,830.1922791004181,3,,4,2,lightness,readingArea,realistic,75,2023-03-20_13h20.31.581,tripletExp_regina_11082022,2022.2.4,120.44256707280304,
2,0,13,2,0.25,0.298245614035088,2,0.027777777777778,0.298245614035088,2,0.111111111111111,3.10526315789474,ReadingArea_rsl2-rcl25-esl29-rsm2-rcm2-esm29-rsr2-rcr11-esr310,exr/ReadingArea_rsl2-rcl25-esl29-rsm2-rcm2-esm29-rsr2-rcr11-esr310.exr,ReadingArea_rsl2-rcl25-esl29-rsm2-rcm2-esm29-rsr2-rcr11-esr310.npz,,,,,0,165,165,50,,,left,green,2.03,833.6570861339569,834.0211279392242,3,,4,2,lightness,readingArea,realistic,75,2023-03-20_13h20.31.581,tripletExp_regina_11082022,2022.2.4,120.44256707280304,
7,3,5,2,0.111111111111111,1.0,2,0.444444444444444,0.298245614035088,2,1.0,0.298245614035088,ReadingArea_rsl2-rcl11-esl100-rsm2-rcm44-esm29-rsr2-rcr100-esr29,exr/ReadingArea_rsl2-rcl11-esl100-rsm2-rcm44-esm29-rsr2-rcr100-esr29.exr,ReadingArea_rsl2-rcl11-esl100-rsm2-rcm44-esm29-rsr2-rcr100-esr29.npz,,,,,0,166,166,589,,,left,green,2.21,837.4863951206207,837.8664259910583,3,,4,2,lightness,readingArea,realistic,75,2023-03-20_13h20.31.581,tripletExp_regina_11082022,2022.2.4,120.44256707280304,
8,0,4,2,0.25,1.0,2,0.027777777777778,0.298245614035088,2,0.694444444444444,0.298245614035088,ReadingArea_rsl2-rcl25-esl100-rsm2-rcm2-esm29-rsr2-rcr69-esr29,exr/ReadingArea_rsl2-rcl25-esl100-rsm2-rcm2-esm29-rsr2-rcr69-esr29.exr,ReadingArea_rsl2-rcl25-esl100-rsm2-rcm2-esm29-rsr2-rcr69-esr29.npz,,,,,0,167,167,346,,,left,green,2.17,841.3581380844116,841.7363679409027,3,,4,2,lightness,readingArea,realistic,75,2023-03-20_13h20.31.581,tripletExp_regina_11082022,2022.2.4,120.44256707280304,
4,5,9,2,0.694444444444444,0.298245614035088,2,1.0,0.298245614035088,2,0.444444444444444,1.0,ReadingArea_rsl2-rcl69-esl29-rsm2-rcm100-esm29-rsr2-rcr44-esr100,exr/ReadingArea_rsl2-rcl69-esl29-rsm2-rcm100-esm29-rsr2-rcr44-esr100.exr,ReadingArea_rsl2-rcl69-esl29-rsm2-rcm100-esm29-rsr2-rcr44-esr100.npz,,,,,0,168,168,211,,,left,green,1.79,845.2188200950623,,3,,4,2,lightness,readingArea,realistic,75,2023-03-20_13h20.31.581,tripletExp_regina_11082022,2022.2.4,120.44256707280304,
8,10,7,2,0.25,1.0,2,0.694444444444444,1.0,2,0.111111111111111,1.0,ReadingArea_rsl2-rcl25-esl100-rsm2-rcm69-esm100-rsr2-rcr11-esr100,exr/ReadingArea_rsl2-rcl25-esl100-rsm2-rcm69-esm100-rsr2-rcr11-esr100.exr,ReadingArea_rsl2-rcl25-esl100-rsm2-rcm69-esm100-rsr2-rcr11-esr100.npz,,,,,0,169,169,424,,,left,green,2.16,849.0543999671936,849.4289691448212,3,,4,2,lightness,readingArea,realistic,75,2023-03-20_13h20.31.581,tripletExp_regina_11082022,2022.2.4,120.44256707280304,
6,0,11,2,0.027777777777778,1.0,2,0.027777777777778,0.298245614035088,2,1.0,1.0,ReadingArea_rsl2-rcl2-esl100-rsm2-rcm2-esm29-rsr2-rcr100-esr100,exr/ReadingArea_rsl2-rcl2-esl100-rsm2-rcm2-esm29-rsr2-rcr100-esr100.exr,ReadingArea_rsl2-rcl2-esl100-rsm2-rcm2-esm29-rsr2-rcr100-esr100.npz,,,,,0,170,170,245,,,left,green,1.15,851.1503579616547,851.5064051151276,3,,4,2,lightness,readingArea,realistic,75,2023-03-20_13h20.31.581,tripletExp_regina_11082022,2022.2.4,120.44256707280304,
9,6,11,2,0.444444444444444,1.0,2,0.027777777777778,1.0,2,1.0,1.0,ReadingArea_rsl2-rcl44-esl100-rsm2-rcm2-esm100-rsr2-rcr100-esr100,exr/ReadingArea_rsl2-rcl44-esl100-rsm2-rcm2-esm100-rsr2-rcr100-esr100.exr,ReadingArea_rsl2-rcl44-esl100-rsm2-rcm2-esm100-rsr2-rcr100-esr100.npz,,,,,0,171,171,572,,,left,green,1.9,854.9949309825897,,3,,4,2,lightness,readingArea,realistic,75,2023-03-20_13h20.31.581,tripletExp_regina_11082022,2022.2.4,120.44256707280304,
3,14,10,2,0.444444444444444,0.298245614035088,2,0.25,3.10526315789474,2,0.694444444444444,1.0,ReadingArea_rsl2-rcl44-esl29-rsm2-rcm25-esm310-rsr2-rcr69-esr100,exr/ReadingArea_rsl2-rcl44-esl29-rsm2-rcm25-esm310-rsr2-rcr69-esr100.exr,ReadingArea_rsl2-rcl44-esl29-rsm2-rcm25-esm310-rsr2-rcr69-esr100.npz,,,,,0,172,172,279,,,right,red,1.84,858.8515100479126,859.220076084137,3,,4,2,lightness,readingArea,realistic,75,2023-03-20_13h20.31.581,tripletExp_regina_11082022,2022.2.4,120.44256707280304,
13,0,14,2,0.111111111111111,3.10526315789474,2,0.027777777777778,0.298245614035088,2,0.25,3.10526315789474,ReadingArea_rsl2-rcl11-esl310-rsm2-rcm2-esm29-rsr2-rcr25-esr310,exr/ReadingArea_rsl2-rcl11-esl310-rsm2-rcm2-esm29-rsr2-rcr25-esr310.exr,ReadingArea_rsl2-rcl11-esl310-rsm2-rcm2-esm29-rsr2-rcr25-esr310.npz,,,,,0,173,173,278,,,left,green,2.26,862.6767270565033,863.1573231220245,3,,4,2,lightness,readingArea,realistic,75,2023-03-20_13h20.31.581,tripletExp_regina_11082022,2022.2.4,120.44256707280304,
1,14,7,2,0.111111111111111,0.298245614035088,2,0.25,3.10526315789474,2,0.111111111111111,1.0,ReadingArea_rsl2-rcl11-esl29-rsm2-rcm25-esm310-rsr2-rcr11-esr100,exr/ReadingArea_rsl2-rcl11-esl29-rsm2-rcm25-esm310-rsr2-rcr11-esr100.exr,ReadingArea_rsl2-rcl11-esl29-rsm2-rcm25-esm310-rsr2-rcr11-esr100.npz,,,,,0,174,174,583,,,right,red,1.91,866.6575939655304,867.0177600383759,3,,4,2,lightness,readingArea,realistic,75,2023-03-20_13h20.31.581,tripletExp_regina_11082022,2022.2.4,120.44256707280304,
5,7,14,2,1.0,0.298245614035088,2,0.111111111111111,1.0,2,0.25,3.10526315789474,ReadingArea_rsl2-rcl100-esl29-rsm2-rcm11-esm100-rsr2-rcr25-esr310,exr/ReadingArea_rsl2-rcl100-esl29-rsm2-rcm11-esm100-rsr2-rcr25-esr310.exr,ReadingArea_rsl2-rcl100-esl29-rsm2-rcm11-esm100-rsr2-rcr25-esr310.npz,,,,,0,175,175,210,,,left,green,2.59,870.4855041503906,870.8639960289001,3,,4,2,lightness,readingArea,realistic,75,2023-03-20_13h20.31.581,tripletExp_regina_11082022,2022.2.4,120.44256707280304,
4,1,13,2,0.694444444444444,0.298245614035088,2,0.111111111111111,0.298245614035088,2,0.111111111111111,3.10526315789474,ReadingArea_rsl2-rcl69-esl29-rsm2-rcm11-esm29-rsr2-rcr11-esr310,exr/ReadingArea_rsl2-rcl69-esl29-rsm2-rcm11-esm29-rsr2-rcr11-esr310.exr,ReadingArea_rsl2-rcl69-esl29-rsm2-rcm11-esm29-rsr2-rcr11-esr310.npz,,,,,0,176,176,565,,,left,green,2.69,874.3198499679565,874.6997499465942,3,,4,2,lightness,readingArea,realistic,75,2023-03-20_13h20.31.581,tripletExp_regina_11082022,2022.2.4,120.44256707280304,
3,9,10,2,0.444444444444444,0.298245614035088,2,0.444444444444444,1.0,2,0.694444444444444,1.0,ReadingArea_rsl2-rcl44-esl29-rsm2-rcm44-esm100-rsr2-rcr69-esr100,exr/ReadingArea_rsl2-rcl44-esl29-rsm2-rcm44-esm100-rsr2-rcr69-esr100.exr,ReadingArea_rsl2-rcl44-esl29-rsm2-rcm44-esm100-rsr2-rcr69-esr100.npz,,,,,0,177,177,581,,,right,red,1.9,878.1661591529846,878.5406749248505,3,,4,2,lightness,readingArea,realistic,75,2023-03-20_13h20.31.581,tripletExp_regina_11082022,2022.2.4,120.44256707280304,
5,8,2,2,1.0,0.298245614035088,2,0.25,1.0,2,0.25,0.298245614035088,ReadingArea_rsl2-rcl100-esl29-rsm2-rcm25-esm100-rsr2-rcr25-esr29,exr/ReadingArea_rsl2-rcl100-esl29-rsm2-rcm25-esm100-rsr2-rcr25-esr29.exr,ReadingArea_rsl2-rcl100-esl29-rsm2-rcm25-esm100-rsr2-rcr25-esr29.npz,,,,,0,178,178,65,,,right,red,4.35,883.7920711040497,884.2060451507568,3,,4,2,lightness,readingArea,realistic,75,2023-03-20_13h20.31.581,tripletExp_regina_11082022,2022.2.4,120.44256707280304,
14,6,7,2,0.25,3.10526315789474,2,0.027777777777778,1.0,2,0.111111111111111,1.0,ReadingArea_rsl2-rcl25-esl310-rsm2-rcm2-esm100-rsr2-rcr11-esr100,exr/ReadingArea_rsl2-rcl25-esl310-rsm2-rcm2-esm100-rsr2-rcr11-esr100.exr,ReadingArea_rsl2-rcl25-esl310-rsm2-rcm2-esm100-rsr2-rcr11-esr100.npz,,,,,0,179,179,306,,,right,red,4.26,889.4583790302277,889.9092741012573,3,,4,2,lightness,readingArea,realistic,75,2023-03-20_13h20.31.581,tripletExp_regina_11082022,2022.2.4,120.44256707280304,
6,13,5,2,0.027777777777778,1.0,2,0.111111111111111,3.10526315789474,2,1.0,0.298245614035088,ReadingArea_rsl2-rcl2-esl100-rsm2-rcm11-esm310-rsr2-rcr100-esr29,exr/ReadingArea_rsl2-rcl2-esl100-rsm2-rcm11-esm310-rsr2-rcr100-esr29.exr,ReadingArea_rsl2-rcl2-esl100-rsm2-rcm11-esm310-rsr2-rcr100-esr29.npz,,,,,0,180,180,53,,,right,red,1.52,891.6276249885559,891.9857370853424,3,,4,2,lightness,readingArea,realistic,75,2023-03-20_13h20.31.581,tripletExp_regina_11082022,2022.2.4,120.44256707280304,
7,14,11,2,0.111111111111111,1.0,2,0.25,3.10526315789474,2,1.0,1.0,ReadingArea_rsl2-rcl11-esl100-rsm2-rcm25-esm310-rsr2-rcr100-esr100,exr/ReadingArea_rsl2-rcl11-esl100-rsm2-rcm25-esm310-rsr2-rcr100-esr100.exr,ReadingArea_rsl2-rcl11-esl100-rsm2-rcm25-esm310-rsr2-rcr100-esr100.npz,,,,,0,181,181,252,,,right,red,1.09,893.7008099555969,894.0629699230194,3,,4,2,lightness,readingArea,realistic,75,2023-03-20_13h20.31.581,tripletExp_regina_11082022,2022.2.4,120.44256707280304,
0,5,7,2,0.027777777777778,0.298245614035088,2,1.0,0.298245614035088,2,0.111111111111111,1.0,ReadingArea_rsl2-rcl2-esl29-rsm2-rcm100-esm29-rsr2-rcr11-esr100,exr/ReadingArea_rsl2-rcl2-esl29-rsm2-rcm100-esm29-rsr2-rcr11-esr100.exr,ReadingArea_rsl2-rcl2-esl29-rsm2-rcm100-esm29-rsr2-rcr11-esr100.npz,,,,,0,182,182,217,,,right,red,1.99,897.556293964386,897.9305341243744,3,,4,2,lightness,readingArea,realistic,75,2023-03-20_13h20.31.581,tripletExp_regina_11082022,2022.2.4,120.44256707280304,
11,13,8,2,1.0,1.0,2,0.111111111111111,3.10526315789474,2,0.25,1.0,ReadingArea_rsl2-rcl100-esl100-rsm2-rcm11-esm310-rsr2-rcr25-esr100,exr/ReadingArea_rsl2-rcl100-esl100-rsm2-rcm11-esm310-rsr2-rcr25-esr100.exr,ReadingArea_rsl2-rcl100-esl100-rsm2-rcm11-esm310-rsr2-rcr25-esr100.npz,,,,,0,183,183,198,,,right,red,1.08,899.6476421356201,900.0239899158478,3,,4,2,lightness,readingArea,realistic,75,2023-03-20_13h20.31.581,tripletExp_regina_11082022,2022.2.4,120.44256707280304,
4,9,13,2,0.694444444444444,0.298245614035088,2,0.444444444444444,1.0,2,0.111111111111111,3.10526315789474,ReadingArea_rsl2-rcl69-esl29-rsm2-rcm44-esm100-rsr2-rcr11-esr310,exr/ReadingArea_rsl2-rcl69-esl29-rsm2-rcm44-esm100-rsr2-rcr11-esr310.exr,ReadingArea_rsl2-rcl69-esl29-rsm2-rcm44-esm100-rsr2-rcr11-esr310.npz,,,,,0,184,184,488,,,left,green,1.96,903.518965959549,903.9706530570984,3,,4,2,lightness,readingArea,realistic,75,2023-03-20_13h20.31.581,tripletExp_regina_11082022,2022.2.4,120.44256707280304,
3,7,0,2,0.444444444444444,0.298245614035088,2,0.111111111111111,1.0,2,0.027777777777778,0.298245614035088,ReadingArea_rsl2-rcl44-esl29-rsm2-rcm11-esm100-rsr2-rcr2-esr29,exr/ReadingArea_rsl2-rcl44-esl29-rsm2-rcm11-esm100-rsr2-rcr2-esr29.exr,ReadingArea_rsl2-rcl44-esl29-rsm2-rcm11-esm100-rsr2-rcr2-esr29.npz,,,,,0,185,185,327,,,left,green,1.04,905.6838090419768,906.0562541484832,3,,4,2,lightness,readingArea,realistic,75,2023-03-20_13h20.31.581,tripletExp_regina_11082022,2022.2.4,120.44256707280304,
13,6,8,2,0.111111111111111,3.10526315789474,2,0.027777777777778,1.0,2,0.25,1.0,ReadingArea_rsl2-rcl11-esl310-rsm2-rcm2-esm100-rsr2-rcr25-esr100,exr/ReadingArea_rsl2-rcl11-esl310-rsm2-rcm2-esm100-rsr2-rcr25-esr100.exr,ReadingArea_rsl2-rcl11-esl310-rsm2-rcm2-esm100-rsr2-rcr25-esr100.npz,,,,,0,186,186,340,,,right,red,2.54,909.542002916336,909.9242010116576,3,,4,2,lightness,readingArea,realistic,75,2023-03-20_13h20.31.581,tripletExp_regina_11082022,2022.2.4,120.44256707280304,
5,0,11,2,1.0,0.298245614035088,2,0.027777777777778,0.298245614035088,2,1.0,1.0,ReadingArea_rsl2-rcl100-esl29-rsm2-rcm2-esm29-rsr2-rcr100-esr100,exr/ReadingArea_rsl2-rcl100-esl29-rsm2-rcm2-esm29-rsr2-rcr100-esr100.exr,ReadingArea_rsl2-rcl100-esl29-rsm2-rcm2-esm29-rsr2-rcr100-esr100.npz,,,,,0,187,187,547,,,left,green,2.14,913.431841135025,913.795755147934,3,,4,2,lightness,readingArea,realistic,75,2023-03-20_13h20.31.581,tripletExp_regina_11082022,2022.2.4,120.44256707280304,
9,3,8,2,0.444444444444444,1.0,2,0.444444444444444,0.298245614035088,2,0.25,1.0,ReadingArea_rsl2-rcl44-esl100-rsm2-rcm44-esm29-rsr2-rcr25-esr100,exr/ReadingArea_rsl2-rcl44-esl100-rsm2-rcm44-esm29-rsr2-rcr25-esr100.exr,ReadingArea_rsl2-rcl44-esl100-rsm2-rcm44-esm29-rsr2-rcr25-esr100.npz,,,,,0,188,188,530,,,right,red,1.81,917.2410581111908,917.5972969532012,3,,4,2,lightness,readingArea,realistic,75,2023-03-20_13h20.31.581,tripletExp_regina_11082022,2022.2.4,120.44256707280304,
13,12,5,2,0.111111111111111,3.10526315789474,2,0.027777777777778,3.10526315789474,2,1.0,0.298245614035088,ReadingArea_rsl2-rcl11-esl310-rsm2-rcm2-esm310-rsr2-rcr100-esr29,exr/ReadingArea_rsl2-rcl11-esl310-rsm2-rcm2-esm310-rsr2-rcr100-esr29.exr,ReadingArea_rsl2-rcl11-esl310-rsm2-rcm2-esm310-rsr2-rcr100-esr29.npz,,,,,0,189,189,294,,,left,green,4.69,922.835382938385,923.2165310382844,3,,4,2,lightness,readingArea,realistic,75,2023-03-20_13h20.31.581,tripletExp_regina_11082022,2022.2.4,120.44256707280304,
10,12,9,2,0.694444444444444,1.0,2,0.027777777777778,3.10526315789474,2,0.444444444444444,1.0,ReadingArea_rsl2-rcl69-esl100-rsm2-rcm2-esm310-rsr2-rcr44-esr100,exr/ReadingArea_rsl2-rcl69-esl100-rsm2-rcm2-esm310-rsr2-rcr44-esr100.exr,ReadingArea_rsl2-rcl69-esl100-rsm2-rcm2-esm310-rsr2-rcr44-esr100.npz,,,,,0,190,190,405,,,right,red,2.01,926.689440011978,,3,,4,2,lightness,readingArea,realistic,75,2023-03-20_13h20.31.581,tripletExp_regina_11082022,2022.2.4,120.44256707280304,
9,2,12,2,0.444444444444444,1.0,2,0.25,0.298245614035088,2,0.027777777777778,3.10526315789474,ReadingArea_rsl2-rcl44-esl100-rsm2-rcm25-esm29-rsr2-rcr2-esr310,exr/ReadingArea_rsl2-rcl44-esl100-rsm2-rcm25-esm29-rsr2-rcr2-esr310.exr,ReadingArea_rsl2-rcl44-esl100-rsm2-rcm25-esm29-rsr2-rcr2-esr310.npz,,,,,0,191,191,391,,,right,red,1.0,928.7764570713044,929.2500450611116,3,,4,2,lightness,readingArea,realistic,75,2023-03-20_13h20.31.581,tripletExp_regina_11082022,2022.2.4,120.44256707280304,
10,12,11,2,0.694444444444444,1.0,2,0.027777777777778,3.10526315789474,2,1.0,1.0,ReadingArea_rsl2-rcl69-esl100-rsm2-rcm2-esm310-rsr2-rcr100-esr100,exr/ReadingArea_rsl2-rcl69-esl100-rsm2-rcm2-esm310-rsr2-rcr100-esr100.exr,ReadingArea_rsl2-rcl69-esl100-rsm2-rcm2-esm310-rsr2-rcr100-esr100.npz,,,,,0,192,192,317,,,left,green,2.11,932.720191001892,933.0782489776612,3,,4,2,lightness,readingArea,realistic,75,2023-03-20_13h20.31.581,tripletExp_regina_11082022,2022.2.4,120.44256707280304,
13,9,4,2,0.111111111111111,3.10526315789474,2,0.444444444444444,1.0,2,0.694444444444444,0.298245614035088,ReadingArea_rsl2-rcl11-esl310-rsm2-rcm44-esm100-rsr2-rcr69-esr29,exr/ReadingArea_rsl2-rcl11-esl310-rsm2-rcm44-esm100-rsr2-rcr69-esr29.exr,ReadingArea_rsl2-rcl11-esl310-rsm2-rcm44-esm100-rsr2-rcr69-esr29.npz,,,,,0,193,193,444,,,left,green,1.91,936.570433139801,936.9436359405518,3,,4,2,lightness,readingArea,realistic,75,2023-03-20_13h20.31.581,tripletExp_regina_11082022,2022.2.4,120.44256707280304,
2,9,8,2,0.25,0.298245614035088,2,0.444444444444444,1.0,2,0.25,1.0,ReadingArea_rsl2-rcl25-esl29-rsm2-rcm44-esm100-rsr2-rcr25-esr100,exr/ReadingArea_rsl2-rcl25-esl29-rsm2-rcm44-esm100-rsr2-rcr25-esr100.exr,ReadingArea_rsl2-rcl25-esl29-rsm2-rcm44-esm100-rsr2-rcr25-esr100.npz,,,,,0,194,194,407,,,right,red,1.86,940.4228410720824,940.8746509552002,3,,4,2,lightness,readingArea,realistic,75,2023-03-20_13h20.31.581,tripletExp_regina_11082022,2022.2.4,120.44256707280304,
7,4,6,2,0.111111111111111,1.0,2,0.694444444444444,0.298245614035088,2,0.027777777777778,1.0,ReadingArea_rsl2-rcl11-esl100-rsm2-rcm69-esm29-rsr2-rcr2-esr100,exr/ReadingArea_rsl2-rcl11-esl100-rsm2-rcm69-esm29-rsr2-rcr2-esr100.exr,ReadingArea_rsl2-rcl11-esl100-rsm2-rcm69-esm29-rsr2-rcr2-esr100.npz,,,,,0,195,195,528,,,left,green,0.92,942.5859639644624,942.9474101066588,3,,4,2,lightness,readingArea,realistic,75,2023-03-20_13h20.31.581,tripletExp_regina_11082022,2022.2.4,120.44256707280304,
11,2,8,2,1.0,1.0,2,0.25,0.298245614035088,2,0.25,1.0,ReadingArea_rsl2-rcl100-esl100-rsm2-rcm25-esm29-rsr2-rcr25-esr100,exr/ReadingArea_rsl2-rcl100-esl100-rsm2-rcm25-esm29-rsr2-rcr25-esr100.exr,ReadingArea_rsl2-rcl100-esl100-rsm2-rcm25-esm29-rsr2-rcr25-esr100.npz,,,,,0,196,196,214,,,right,red,1.85,946.4361979961396,946.8126809597017,3,,4,2,lightness,readingArea,realistic,75,2023-03-20_13h20.31.581,tripletExp_regina_11082022,2022.2.4,120.44256707280304,
2,5,0,2,0.25,0.298245614035088,2,1.0,0.298245614035088,2,0.027777777777778,0.298245614035088,ReadingArea_rsl2-rcl25-esl29-rsm2-rcm100-esm29-rsr2-rcr2-esr29,exr/ReadingArea_rsl2-rcl25-esl29-rsm2-rcm100-esm29-rsr2-rcr2-esr29.exr,ReadingArea_rsl2-rcl25-esl29-rsm2-rcm100-esm29-rsr2-rcr2-esr29.npz,,,,,0,197,197,414,,,left,green,0.84,948.5045449733734,948.8745460510254,3,,4,2,lightness,readingArea,realistic,75,2023-03-20_13h20.31.581,tripletExp_regina_11082022,2022.2.4,120.44256707280304,
8,9,2,2,0.25,1.0,2,0.444444444444444,1.0,2,0.25,0.298245614035088,ReadingArea_rsl2-rcl25-esl100-rsm2-rcm44-esm100-rsr2-rcr25-esr29,exr/ReadingArea_rsl2-rcl25-esl100-rsm2-rcm44-esm100-rsr2-rcr25-esr29.exr,ReadingArea_rsl2-rcl25-esl100-rsm2-rcm44-esm100-rsr2-rcr25-esr29.npz,,,,,0,198,198,559,,,left,green,2.03,952.3548460006714,952.7138750553132,3,,4,2,lightness,readingArea,realistic,75,2023-03-20_13h20.31.581,tripletExp_regina_11082022,2022.2.4,120.44256707280304,
5,9,12,2,1.0,0.298245614035088,2,0.444444444444444,1.0,2,0.027777777777778,3.10526315789474,ReadingArea_rsl2-rcl100-esl29-rsm2-rcm44-esm100-rsr2-rcr2-esr310,exr/ReadingArea_rsl2-rcl100-esl29-rsm2-rcm44-esm100-rsr2-rcr2-esr310.exr,ReadingArea_rsl2-rcl100-esl29-rsm2-rcm44-esm100-rsr2-rcr2-esr310.npz,,,,,0,199,199,539,,,left,green,2.07,956.17644405365,956.6269419193268,3,,4,2,lightness,readingArea,realistic,75,2023-03-20_13h20.31.581,tripletExp_regina_11082022,2022.2.4,120.44256707280304,
1,6,11,2,0.111111111111111,0.298245614035088,2,0.027777777777778,1.0,2,1.0,1.0,ReadingArea_rsl2-rcl11-esl29-rsm2-rcm2-esm100-rsr2-rcr100-esr100,exr/ReadingArea_rsl2-rcl11-esl29-rsm2-rcm2-esm100-rsr2-rcr100-esr100.exr,ReadingArea_rsl2-rcl11-esl29-rsm2-rcm2-esm100-rsr2-rcr100-esr100.npz,,,,,0,200,200,39,,,left,green,1.61,958.3315229415894,958.7070400714874,3,,4,2,lightness,readingArea,realistic,75,2023-03-20_13h20.31.581,tripletExp_regina_11082022,2022.2.4,120.44256707280304,
11,7,10,2,1.0,1.0,2,0.111111111111111,1.0,2,0.694444444444444,1.0,ReadingArea_rsl2-rcl100-esl100-rsm2-rcm11-esm100-rsr2-rcr69-esr100,exr/ReadingArea_rsl2-rcl100-esl100-rsm2-rcm11-esm100-rsr2-rcr69-esr100.exr,ReadingArea_rsl2-rcl100-esl100-rsm2-rcm11-esm100-rsr2-rcr69-esr100.npz,,,,,0,201,201,411,,,right,red,2.0,962.1994819641112,962.6670570373536,3,,4,2,lightness,readingArea,realistic,75,2023-03-20_13h20.31.581,tripletExp_regina_11082022,2022.2.4,120.44256707280304,
11,7,12,2,1.0,1.0,2,0.111111111111111,1.0,2,0.027777777777778,3.10526315789474,ReadingArea_rsl2-rcl100-esl100-rsm2-rcm11-esm100-rsr2-rcr2-esr310,exr/ReadingArea_rsl2-rcl100-esl100-rsm2-rcm11-esm100-rsr2-rcr2-esr310.exr,ReadingArea_rsl2-rcl100-esl100-rsm2-rcm11-esm100-rsr2-rcr2-esr310.npz,,,,,0,202,202,352,,,right,red,2.03,966.151782989502,966.5249140262604,3,,4,2,lightness,readingArea,realistic,75,2023-03-20_13h20.31.581,tripletExp_regina_11082022,2022.2.4,120.44256707280304,
12,3,10,2,0.027777777777778,3.10526315789474,2,0.444444444444444,0.298245614035088,2,0.694444444444444,1.0,ReadingArea_rsl2-rcl2-esl310-rsm2-rcm44-esm29-rsr2-rcr69-esr100,exr/ReadingArea_rsl2-rcl2-esl310-rsm2-rcm44-esm29-rsr2-rcr69-esr100.exr,ReadingArea_rsl2-rcl2-esl310-rsm2-rcm44-esm29-rsr2-rcr69-esr100.npz,,,,,0,203,203,437,,,left,green,1.7,968.2375531196594,968.6041650772096,3,,4,2,lightness,readingArea,realistic,75,2023-03-20_13h20.31.581,tripletExp_regina_11082022,2022.2.4,120.44256707280304,
