index_left,index_middle,index_right,reflectance_surround_left,reflectance_center_left,emission_spot_left,reflectance_surround_middle,reflectance_center_middle,emission_spot_middle,reflectance_surround_right,reflectance_center_right,emission_spot_right,ImageName,ImageExr,ImageNpy,trials_2.thisRepN,trials_2.thisTrialN,trials_2.thisN,trials_2.thisIndex,trials.thisRepN,trials.thisTrialN,trials.thisN,trials.thisIndex,sound_1.started,BB_Trial.resp,BB_Trial.color,BB_Trial.rt,text.started,text.stopped,sound_2.started,sound_1.stopped,block,participant,session,L/B,scene,condition,nTrialsPerBlock,date,expName,psychopyVersion,frameRate,Unnamed: 42
14,13,0,0,0.25,3.10526315789474,0,0.111111111111111,3.10526315789474,0,0.027777777777778,0.298245614035088,ReadingArea_rsl0-rcl25-esl310-rsm0-rcm11-esm310-rsr0-rcr2-esr29,exr/ReadingArea_rsl0-rcl25-esl310-rsm0-rcm11-esm310-rsr0-rcr2-esr29.exr,ReadingArea_rsl0-rcl25-esl310-rsm0-rcm11-esm310-rsr0-rcr2-esr29.npz,,,,,0,0,0,417,182.5390058279037,left,green,0.82,197.20636320114136,197.56623721122745,120.18466289043428,168.9357030391693,1,PM,1,lightness,readingArea,realistic,75,2023-03-13_14h30.10.942,tripletExp_regina_11082022,2022.2.4,119.67313398767403,
3,9,13,0,0.444444444444444,0.298245614035088,0,0.444444444444444,1.0,0,0.111111111111111,3.10526315789474,ReadingArea_rsl0-rcl44-esl29-rsm0-rcm44-esm100-rsr0-rcr11-esr310,exr/ReadingArea_rsl0-rcl44-esl29-rsm0-rcm44-esm100-rsr0-rcr11-esr310.exr,ReadingArea_rsl0-rcl44-esl29-rsm0-rcm44-esm100-rsr0-rcr11-esr310.npz,,,,,0,1,1,341,,right,red,0.7,199.25760912895203,199.707102060318,,,1,PM,1,lightness,readingArea,realistic,75,2023-03-13_14h30.10.942,tripletExp_regina_11082022,2022.2.4,119.67313398767403,
3,6,5,0,0.444444444444444,0.298245614035088,0,0.027777777777778,1.0,0,1.0,0.298245614035088,ReadingArea_rsl0-rcl44-esl29-rsm0-rcm2-esm100-rsr0-rcr100-esr29,exr/ReadingArea_rsl0-rcl44-esl29-rsm0-rcm2-esm100-rsr0-rcr100-esr29.exr,ReadingArea_rsl0-rcl44-esl29-rsm0-rcm2-esm100-rsr0-rcr100-esr29.npz,,,,,0,2,2,274,,left,green,0.99,201.4044890403748,201.7523431777954,,,1,PM,1,lightness,readingArea,realistic,75,2023-03-13_14h30.10.942,tripletExp_regina_11082022,2022.2.4,119.67313398767403,
0,9,11,0,0.027777777777778,0.298245614035088,0,0.444444444444444,1.0,0,1.0,1.0,ReadingArea_rsl0-rcl2-esl29-rsm0-rcm44-esm100-rsr0-rcr100-esr100,exr/ReadingArea_rsl0-rcl2-esl29-rsm0-rcm44-esm100-rsr0-rcr100-esr100.exr,ReadingArea_rsl0-rcl2-esl29-rsm0-rcm44-esm100-rsr0-rcr100-esr100.npz,,,,,0,3,3,448,,right,red,0.78,203.46248316764832,203.80995321273804,,,1,PM,1,lightness,readingArea,realistic,75,2023-03-13_14h30.10.942,tripletExp_regina_11082022,2022.2.4,119.67313398767403,
12,13,14,0,0.027777777777778,3.10526315789474,0,0.111111111111111,3.10526315789474,0,0.25,3.10526315789474,ReadingArea_rsl0-rcl2-esl310-rsm0-rcm11-esm310-rsr0-rcr25-esr310,exr/ReadingArea_rsl0-rcl2-esl310-rsm0-rcm11-esm310-rsr0-rcr25-esr310.exr,ReadingArea_rsl0-rcl2-esl310-rsm0-rcm11-esm310-rsr0-rcr25-esr310.npz,,,,,0,4,4,208,,right,red,0.95,205.51280903816223,205.91431307792664,,,1,PM,1,lightness,readingArea,realistic,75,2023-03-13_14h30.10.942,tripletExp_regina_11082022,2022.2.4,119.67313398767403,
2,4,6,0,0.25,0.298245614035088,0,0.694444444444444,0.298245614035088,0,0.027777777777778,1.0,ReadingArea_rsl0-rcl25-esl29-rsm0-rcm69-esm29-rsr0-rcr2-esr100,exr/ReadingArea_rsl0-rcl25-esl29-rsm0-rcm69-esm29-rsr0-rcr2-esr100.exr,ReadingArea_rsl0-rcl25-esl29-rsm0-rcm69-esm29-rsr0-rcr2-esr100.npz,,,,,0,5,5,563,,left,green,0.81,207.61817717552185,207.9638700485229,,,1,PM,1,lightness,readingArea,realistic,75,2023-03-13_14h30.10.942,tripletExp_regina_11082022,2022.2.4,119.67313398767403,
9,2,12,0,0.444444444444444,1.0,0,0.25,0.298245614035088,0,0.027777777777778,3.10526315789474,ReadingArea_rsl0-rcl44-esl100-rsm0-rcm25-esm29-rsr0-rcr2-esr310,exr/ReadingArea_rsl0-rcl44-esl100-rsm0-rcm25-esm29-rsr0-rcr2-esr310.exr,ReadingArea_rsl0-rcl44-esl100-rsm0-rcm25-esm29-rsr0-rcr2-esr310.npz,,,,,0,6,6,391,,right,red,0.85,209.6566231250763,210.03078603744507,,,1,PM,1,lightness,readingArea,realistic,75,2023-03-13_14h30.10.942,tripletExp_regina_11082022,2022.2.4,119.67313398767403,
11,0,10,0,1.0,1.0,0,0.027777777777778,0.298245614035088,0,0.694444444444444,1.0,ReadingArea_rsl0-rcl100-esl100-rsm0-rcm2-esm29-rsr0-rcr69-esr100,exr/ReadingArea_rsl0-rcl100-esl100-rsm0-rcm2-esm29-rsr0-rcr69-esr100.exr,ReadingArea_rsl0-rcl100-esl100-rsm0-rcm2-esm29-rsr0-rcr69-esr100.npz,,,,,0,7,7,259,,right,red,2.73,213.50646114349365,213.8605220317841,,,1,PM,1,lightness,readingArea,realistic,75,2023-03-13_14h30.10.942,tripletExp_regina_11082022,2022.2.4,119.67313398767403,
1,11,12,0,0.111111111111111,0.298245614035088,0,1.0,1.0,0,0.027777777777778,3.10526315789474,ReadingArea_rsl0-rcl11-esl29-rsm0-rcm100-esm100-rsr0-rcr2-esr310,exr/ReadingArea_rsl0-rcl11-esl29-rsm0-rcm100-esm100-rsr0-rcr2-esr310.exr,ReadingArea_rsl0-rcl11-esl29-rsm0-rcm100-esm100-rsr0-rcr2-esr310.npz,,,,,0,8,8,288,,right,red,0.98,215.56863713264465,215.8900611400604,,,1,PM,1,lightness,readingArea,realistic,75,2023-03-13_14h30.10.942,tripletExp_regina_11082022,2022.2.4,119.67313398767403,
13,7,6,0,0.111111111111111,3.10526315789474,0,0.111111111111111,1.0,0,0.027777777777778,1.0,ReadingArea_rsl0-rcl11-esl310-rsm0-rcm11-esm100-rsr0-rcr2-esr100,exr/ReadingArea_rsl0-rcl11-esl310-rsm0-rcm11-esm100-rsr0-rcr2-esr100.exr,ReadingArea_rsl0-rcl11-esl310-rsm0-rcm11-esm100-rsr0-rcr2-esr100.npz,,,,,0,9,9,283,,left,green,0.79,217.58874106407168,217.94071912765503,,,1,PM,1,lightness,readingArea,realistic,75,2023-03-13_14h30.10.942,tripletExp_regina_11082022,2022.2.4,119.67313398767403,
3,4,13,0,0.444444444444444,0.298245614035088,0,0.694444444444444,0.298245614035088,0,0.111111111111111,3.10526315789474,ReadingArea_rsl0-rcl44-esl29-rsm0-rcm69-esm29-rsr0-rcr11-esr310,exr/ReadingArea_rsl0-rcl44-esl29-rsm0-rcm69-esm29-rsr0-rcr11-esr310.exr,ReadingArea_rsl0-rcl44-esl29-rsm0-rcm69-esm29-rsr0-rcr11-esr310.npz,,,,,0,10,10,63,,left,green,1.21,219.6498601436615,219.9974000453949,,,1,PM,1,lightness,readingArea,realistic,75,2023-03-13_14h30.10.942,tripletExp_regina_11082022,2022.2.4,119.67313398767403,
14,6,12,0,0.25,3.10526315789474,0,0.027777777777778,1.0,0,0.027777777777778,3.10526315789474,ReadingArea_rsl0-rcl25-esl310-rsm0-rcm2-esm100-rsr0-rcr2-esr310,exr/ReadingArea_rsl0-rcl25-esl310-rsm0-rcm2-esm100-rsr0-rcr2-esr310.exr,ReadingArea_rsl0-rcl25-esl310-rsm0-rcm2-esm100-rsr0-rcr2-esr310.npz,,,,,0,11,11,242,,right,red,0.81,221.7143352031708,222.0630559921265,,,1,PM,1,lightness,readingArea,realistic,75,2023-03-13_14h30.10.942,tripletExp_regina_11082022,2022.2.4,119.67313398767403,
12,5,14,0,0.027777777777778,3.10526315789474,0,1.0,0.298245614035088,0,0.25,3.10526315789474,ReadingArea_rsl0-rcl2-esl310-rsm0-rcm100-esm29-rsr0-rcr25-esr310,exr/ReadingArea_rsl0-rcl2-esl310-rsm0-rcm100-esm29-rsr0-rcr25-esr310.exr,ReadingArea_rsl0-rcl2-esl310-rsm0-rcm100-esm29-rsr0-rcr25-esr310.npz,,,,,0,12,12,193,,left,green,1.44,223.75327110290527,224.1185431480408,,,1,PM,1,lightness,readingArea,realistic,75,2023-03-13_14h30.10.942,tripletExp_regina_11082022,2022.2.4,119.67313398767403,
11,7,10,0,1.0,1.0,0,0.111111111111111,1.0,0,0.694444444444444,1.0,ReadingArea_rsl0-rcl100-esl100-rsm0-rcm11-esm100-rsr0-rcr69-esr100,exr/ReadingArea_rsl0-rcl100-esl100-rsm0-rcm11-esm100-rsr0-rcr69-esr100.exr,ReadingArea_rsl0-rcl100-esl100-rsm0-rcm11-esm100-rsr0-rcr69-esr100.npz,,,,,0,13,13,411,,left,green,3.03,227.58239603042605,227.93131303787231,,,1,PM,1,lightness,readingArea,realistic,75,2023-03-13_14h30.10.942,tripletExp_regina_11082022,2022.2.4,119.67313398767403,
11,1,12,0,1.0,1.0,0,0.111111111111111,0.298245614035088,0,0.027777777777778,3.10526315789474,ReadingArea_rsl0-rcl100-esl100-rsm0-rcm11-esm29-rsr0-rcr2-esr310,exr/ReadingArea_rsl0-rcl100-esl100-rsm0-rcm11-esm29-rsr0-rcr2-esr310.exr,ReadingArea_rsl0-rcl100-esl100-rsm0-rcm11-esm29-rsr0-rcr2-esr310.npz,,,,,0,14,14,339,,right,red,0.7,229.6417140960693,230.0176701545716,,,1,PM,1,lightness,readingArea,realistic,75,2023-03-13_14h30.10.942,tripletExp_regina_11082022,2022.2.4,119.67313398767403,
12,4,9,0,0.027777777777778,3.10526315789474,0,0.694444444444444,0.298245614035088,0,0.444444444444444,1.0,ReadingArea_rsl0-rcl2-esl310-rsm0-rcm69-esm29-rsr0-rcr44-esr100,exr/ReadingArea_rsl0-rcl2-esl310-rsm0-rcm69-esm29-rsr0-rcr44-esr100.exr,ReadingArea_rsl0-rcl2-esl310-rsm0-rcm69-esm29-rsr0-rcr44-esr100.npz,,,,,0,15,15,380,,left,green,0.68,231.741238117218,232.0759379863739,,,1,PM,1,lightness,readingArea,realistic,75,2023-03-13_14h30.10.942,tripletExp_regina_11082022,2022.2.4,119.67313398767403,
6,12,0,0,0.027777777777778,1.0,0,0.027777777777778,3.10526315789474,0,0.027777777777778,0.298245614035088,ReadingArea_rsl0-rcl2-esl100-rsm0-rcm2-esm310-rsr0-rcr2-esr29,exr/ReadingArea_rsl0-rcl2-esl100-rsm0-rcm2-esm310-rsr0-rcr2-esr29.exr,ReadingArea_rsl0-rcl2-esl100-rsm0-rcm2-esm310-rsr0-rcr2-esr29.npz,,,,,0,16,16,23,,left,green,1.2,233.78157019615173,,,,1,PM,1,lightness,readingArea,realistic,75,2023-03-13_14h30.10.942,tripletExp_regina_11082022,2022.2.4,119.67313398767403,
9,4,14,0,0.444444444444444,1.0,0,0.694444444444444,0.298245614035088,0,0.25,3.10526315789474,ReadingArea_rsl0-rcl44-esl100-rsm0-rcm69-esm29-rsr0-rcr25-esr310,exr/ReadingArea_rsl0-rcl44-esl100-rsm0-rcm69-esm29-rsr0-rcr25-esr310.exr,ReadingArea_rsl0-rcl44-esl100-rsm0-rcm69-esm29-rsr0-rcr25-esr310.npz,,,,,0,17,17,104,,left,green,0.95,235.8382911682129,236.1806981563568,,,1,PM,1,lightness,readingArea,realistic,75,2023-03-13_14h30.10.942,tripletExp_regina_11082022,2022.2.4,119.67313398767403,
11,14,2,0,1.0,1.0,0,0.25,3.10526315789474,0,0.25,0.298245614035088,ReadingArea_rsl0-rcl100-esl100-rsm0-rcm25-esm310-rsr0-rcr25-esr29,exr/ReadingArea_rsl0-rcl100-esl100-rsm0-rcm25-esm310-rsr0-rcr25-esr29.exr,ReadingArea_rsl0-rcl100-esl100-rsm0-rcm25-esm310-rsr0-rcr25-esr29.npz,,,,,0,18,18,419,,left,green,0.8,237.88400602340693,238.2449140548706,,,1,PM,1,lightness,readingArea,realistic,75,2023-03-13_14h30.10.942,tripletExp_regina_11082022,2022.2.4,119.67313398767403,
4,7,10,0,0.694444444444444,0.298245614035088,0,0.111111111111111,1.0,0,0.694444444444444,1.0,ReadingArea_rsl0-rcl69-esl29-rsm0-rcm11-esm100-rsr0-rcr69-esr100,exr/ReadingArea_rsl0-rcl69-esl29-rsm0-rcm11-esm100-rsr0-rcr69-esr100.exr,ReadingArea_rsl0-rcl69-esl29-rsm0-rcm11-esm100-rsr0-rcr69-esr100.npz,,,,,0,19,19,8,,left,green,0.71,239.9384741783142,240.27096819877625,,,1,PM,1,lightness,readingArea,realistic,75,2023-03-13_14h30.10.942,tripletExp_regina_11082022,2022.2.4,119.67313398767403,
7,2,0,0,0.111111111111111,1.0,0,0.25,0.298245614035088,0,0.027777777777778,0.298245614035088,ReadingArea_rsl0-rcl11-esl100-rsm0-rcm25-esm29-rsr0-rcr2-esr29,exr/ReadingArea_rsl0-rcl11-esl100-rsm0-rcm25-esm29-rsr0-rcr2-esr29.exr,ReadingArea_rsl0-rcl11-esl100-rsm0-rcm25-esm29-rsr0-rcr2-esr29.npz,,,,,0,20,20,520,,left,green,0.62,241.98016500473025,242.3020250797272,,,1,PM,1,lightness,readingArea,realistic,75,2023-03-13_14h30.10.942,tripletExp_regina_11082022,2022.2.4,119.67313398767403,
1,9,11,0,0.111111111111111,0.298245614035088,0,0.444444444444444,1.0,0,1.0,1.0,ReadingArea_rsl0-rcl11-esl29-rsm0-rcm44-esm100-rsr0-rcr100-esr100,exr/ReadingArea_rsl0-rcl11-esl29-rsm0-rcm44-esm100-rsr0-rcr100-esr100.exr,ReadingArea_rsl0-rcl11-esl29-rsm0-rcm44-esm100-rsr0-rcr100-esr100.npz,,,,,0,21,21,215,,right,red,1.34,243.99415516853333,244.32969212532043,,,1,PM,1,lightness,readingArea,realistic,75,2023-03-13_14h30.10.942,tripletExp_regina_11082022,2022.2.4,119.67313398767403,
3,2,8,0,0.444444444444444,0.298245614035088,0,0.25,0.298245614035088,0,0.25,1.0,ReadingArea_rsl0-rcl44-esl29-rsm0-rcm25-esm29-rsr0-rcr25-esr100,exr/ReadingArea_rsl0-rcl44-esl29-rsm0-rcm25-esm29-rsr0-rcr25-esr100.exr,ReadingArea_rsl0-rcl44-esl29-rsm0-rcm25-esm29-rsr0-rcr25-esr100.npz,,,,,0,22,22,181,,left,green,0.67,246.0165181159973,246.38204216957087,,,1,PM,1,lightness,readingArea,realistic,75,2023-03-13_14h30.10.942,tripletExp_regina_11082022,2022.2.4,119.67313398767403,
14,5,13,0,0.25,3.10526315789474,0,1.0,0.298245614035088,0,0.111111111111111,3.10526315789474,ReadingArea_rsl0-rcl25-esl310-rsm0-rcm100-esm29-rsr0-rcr11-esr310,exr/ReadingArea_rsl0-rcl25-esl310-rsm0-rcm100-esm29-rsr0-rcr11-esr310.exr,ReadingArea_rsl0-rcl25-esl310-rsm0-rcm100-esm29-rsr0-rcr11-esr310.npz,,,,,0,23,23,524,,right,red,1.02,248.07328414916992,248.4085440635681,,,1,PM,1,lightness,readingArea,realistic,75,2023-03-13_14h30.10.942,tripletExp_regina_11082022,2022.2.4,119.67313398767403,
0,5,12,0,0.027777777777778,0.298245614035088,0,1.0,0.298245614035088,0,0.027777777777778,3.10526315789474,ReadingArea_rsl0-rcl2-esl29-rsm0-rcm100-esm29-rsr0-rcr2-esr310,exr/ReadingArea_rsl0-rcl2-esl29-rsm0-rcm100-esm29-rsr0-rcr2-esr310.exr,ReadingArea_rsl0-rcl2-esl29-rsm0-rcm100-esm29-rsr0-rcr2-esr310.npz,,,,,0,24,24,366,,right,red,1.03,250.1060800552368,250.45735716819763,,,1,PM,1,lightness,readingArea,realistic,75,2023-03-13_14h30.10.942,tripletExp_regina_11082022,2022.2.4,119.67313398767403,
0,8,7,0,0.027777777777778,0.298245614035088,0,0.25,1.0,0,0.111111111111111,1.0,ReadingArea_rsl0-rcl2-esl29-rsm0-rcm25-esm100-rsr0-rcr11-esr100,exr/ReadingArea_rsl0-rcl2-esl29-rsm0-rcm25-esm100-rsr0-rcr11-esr100.exr,ReadingArea_rsl0-rcl2-esl29-rsm0-rcm25-esm100-rsr0-rcr11-esr100.npz,,,,,0,25,25,9,,right,red,0.78,252.1605610847473,252.48548698425293,,,1,PM,1,lightness,readingArea,realistic,75,2023-03-13_14h30.10.942,tripletExp_regina_11082022,2022.2.4,119.67313398767403,
8,7,12,0,0.25,1.0,0,0.111111111111111,1.0,0,0.027777777777778,3.10526315789474,ReadingArea_rsl0-rcl25-esl100-rsm0-rcm11-esm100-rsr0-rcr2-esr310,exr/ReadingArea_rsl0-rcl25-esl100-rsm0-rcm11-esm100-rsr0-rcr2-esr310.exr,ReadingArea_rsl0-rcl25-esl100-rsm0-rcm11-esm100-rsr0-rcr2-esr310.npz,,,,,0,26,26,471,,right,red,0.76,254.1807789802552,254.5118081569672,,,1,PM,1,lightness,readingArea,realistic,75,2023-03-13_14h30.10.942,tripletExp_regina_11082022,2022.2.4,119.67313398767403,
14,10,13,0,0.25,3.10526315789474,0,0.694444444444444,1.0,0,0.111111111111111,3.10526315789474,ReadingArea_rsl0-rcl25-esl310-rsm0-rcm69-esm100-rsr0-rcr11-esr310,exr/ReadingArea_rsl0-rcl25-esl310-rsm0-rcm69-esm100-rsr0-rcr11-esr310.exr,ReadingArea_rsl0-rcl25-esl310-rsm0-rcm69-esm100-rsr0-rcr11-esr310.npz,,,,,0,27,27,204,,right,red,1.34,256.21077513694763,256.5662851333618,,,1,PM,1,lightness,readingArea,realistic,75,2023-03-13_14h30.10.942,tripletExp_regina_11082022,2022.2.4,119.67313398767403,
10,9,6,0,0.694444444444444,1.0,0,0.444444444444444,1.0,0,0.027777777777778,1.0,ReadingArea_rsl0-rcl69-esl100-rsm0-rcm44-esm100-rsr0-rcr2-esr100,exr/ReadingArea_rsl0-rcl69-esl100-rsm0-rcm44-esm100-rsr0-rcr2-esr100.exr,ReadingArea_rsl0-rcl69-esl100-rsm0-rcm44-esm100-rsr0-rcr2-esr100.npz,,,,,0,28,28,35,,left,green,0.68,258.26302099227905,258.60088419914246,,,1,PM,1,lightness,readingArea,realistic,75,2023-03-13_14h30.10.942,tripletExp_regina_11082022,2022.2.4,119.67313398767403,
9,0,6,0,0.444444444444444,1.0,0,0.027777777777778,0.298245614035088,0,0.027777777777778,1.0,ReadingArea_rsl0-rcl44-esl100-rsm0-rcm2-esm29-rsr0-rcr2-esr100,exr/ReadingArea_rsl0-rcl44-esl100-rsm0-rcm2-esm29-rsr0-rcr2-esr100.exr,ReadingArea_rsl0-rcl44-esl100-rsm0-rcm2-esm29-rsr0-rcr2-esr100.npz,,,,,0,29,29,362,,right,red,0.77,260.28685998916626,260.61185598373413,,,1,PM,1,lightness,readingArea,realistic,75,2023-03-13_14h30.10.942,tripletExp_regina_11082022,2022.2.4,119.67313398767403,
9,0,14,0,0.444444444444444,1.0,0,0.027777777777778,0.298245614035088,0,0.25,3.10526315789474,ReadingArea_rsl0-rcl44-esl100-rsm0-rcm2-esm29-rsr0-rcr25-esr310,exr/ReadingArea_rsl0-rcl44-esl100-rsm0-rcm2-esm29-rsr0-rcr25-esr310.exr,ReadingArea_rsl0-rcl44-esl100-rsm0-rcm2-esm29-rsr0-rcr25-esr310.npz,,,,,0,30,30,550,,left,green,0.94,262.3040590286255,262.6553900241852,,,1,PM,1,lightness,readingArea,realistic,75,2023-03-13_14h30.10.942,tripletExp_regina_11082022,2022.2.4,119.67313398767403,
1,2,12,0,0.111111111111111,0.298245614035088,0,0.25,0.298245614035088,0,0.027777777777778,3.10526315789474,ReadingArea_rsl0-rcl11-esl29-rsm0-rcm25-esm29-rsr0-rcr2-esr310,exr/ReadingArea_rsl0-rcl11-esl29-rsm0-rcm25-esm29-rsr0-rcr2-esr310.exr,ReadingArea_rsl0-rcl11-esl29-rsm0-rcm25-esm29-rsr0-rcr2-esr310.npz,,,,,0,31,31,229,,right,red,0.72,264.3526871204376,,,,1,PM,1,lightness,readingArea,realistic,75,2023-03-13_14h30.10.942,tripletExp_regina_11082022,2022.2.4,119.67313398767403,
14,13,3,0,0.25,3.10526315789474,0,0.111111111111111,3.10526315789474,0,0.444444444444444,0.298245614035088,ReadingArea_rsl0-rcl25-esl310-rsm0-rcm11-esm310-rsr0-rcr44-esr29,exr/ReadingArea_rsl0-rcl25-esl310-rsm0-rcm11-esm310-rsr0-rcr44-esr29.exr,ReadingArea_rsl0-rcl25-esl310-rsm0-rcm11-esm310-rsr0-rcr44-esr29.npz,,,,,0,32,32,256,,right,red,0.84,266.4437720775604,266.7653751373291,,,1,PM,1,lightness,readingArea,realistic,75,2023-03-13_14h30.10.942,tripletExp_regina_11082022,2022.2.4,119.67313398767403,
9,0,3,0,0.444444444444444,1.0,0,0.027777777777778,0.298245614035088,0,0.444444444444444,0.298245614035088,ReadingArea_rsl0-rcl44-esl100-rsm0-rcm2-esm29-rsr0-rcr44-esr29,exr/ReadingArea_rsl0-rcl44-esl100-rsm0-rcm2-esm29-rsr0-rcr44-esr29.exr,ReadingArea_rsl0-rcl44-esl100-rsm0-rcm2-esm29-rsr0-rcr44-esr29.npz,,,,,0,33,33,2,,right,red,1.23,268.48768615722656,268.8393361568451,,,1,PM,1,lightness,readingArea,realistic,75,2023-03-13_14h30.10.942,tripletExp_regina_11082022,2022.2.4,119.67313398767403,
8,0,4,0,0.25,1.0,0,0.027777777777778,0.298245614035088,0,0.694444444444444,0.298245614035088,ReadingArea_rsl0-rcl25-esl100-rsm0-rcm2-esm29-rsr0-rcr69-esr29,exr/ReadingArea_rsl0-rcl25-esl100-rsm0-rcm2-esm29-rsr0-rcr69-esr29.exr,ReadingArea_rsl0-rcl25-esl100-rsm0-rcm2-esm29-rsr0-rcr69-esr29.npz,,,,,0,34,34,346,,left,green,1.5,270.5318570137024,270.8835680484772,,,1,PM,1,lightness,readingArea,realistic,75,2023-03-13_14h30.10.942,tripletExp_regina_11082022,2022.2.4,119.67313398767403,
11,5,1,0,1.0,1.0,0,1.0,0.298245614035088,0,0.111111111111111,0.298245614035088,ReadingArea_rsl0-rcl100-esl100-rsm0-rcm100-esm29-rsr0-rcr11-esr29,exr/ReadingArea_rsl0-rcl100-esl100-rsm0-rcm100-esm29-rsr0-rcr11-esr29.exr,ReadingArea_rsl0-rcl100-esl100-rsm0-rcm100-esm29-rsr0-rcr11-esr29.npz,,,,,0,35,35,48,,left,green,0.71,272.57408118247986,272.9075291156769,,,1,PM,1,lightness,readingArea,realistic,75,2023-03-13_14h30.10.942,tripletExp_regina_11082022,2022.2.4,119.67313398767403,
2,3,6,0,0.25,0.298245614035088,0,0.444444444444444,0.298245614035088,0,0.027777777777778,1.0,ReadingArea_rsl0-rcl25-esl29-rsm0-rcm44-esm29-rsr0-rcr2-esr100,exr/ReadingArea_rsl0-rcl25-esl29-rsm0-rcm44-esm29-rsr0-rcr2-esr100.exr,ReadingArea_rsl0-rcl25-esl29-rsm0-rcm44-esm29-rsr0-rcr2-esr100.npz,,,,,0,36,36,357,,left,green,2.5,276.3757951259613,276.72026109695435,,,1,PM,1,lightness,readingArea,realistic,75,2023-03-13_14h30.10.942,tripletExp_regina_11082022,2022.2.4,119.67313398767403,
13,4,12,0,0.111111111111111,3.10526315789474,0,0.694444444444444,0.298245614035088,0,0.027777777777778,3.10526315789474,ReadingArea_rsl0-rcl11-esl310-rsm0-rcm69-esm29-rsr0-rcr2-esr310,exr/ReadingArea_rsl0-rcl11-esl310-rsm0-rcm69-esm29-rsr0-rcr2-esr310.exr,ReadingArea_rsl0-rcl11-esl310-rsm0-rcm69-esm29-rsr0-rcr2-esr310.npz,,,,,0,37,37,122,,left,green,0.93,278.4208631515503,278.74069714546204,,,1,PM,1,lightness,readingArea,realistic,75,2023-03-13_14h30.10.942,tripletExp_regina_11082022,2022.2.4,119.67313398767403,
8,14,6,0,0.25,1.0,0,0.25,3.10526315789474,0,0.027777777777778,1.0,ReadingArea_rsl0-rcl25-esl100-rsm0-rcm25-esm310-rsr0-rcr2-esr100,exr/ReadingArea_rsl0-rcl25-esl100-rsm0-rcm25-esm310-rsr0-rcr2-esr100.exr,ReadingArea_rsl0-rcl25-esl100-rsm0-rcm25-esm310-rsr0-rcr2-esr100.npz,,,,,0,38,38,469,,left,green,1.25,280.44109320640564,280.79472613334656,,,1,PM,1,lightness,readingArea,realistic,75,2023-03-13_14h30.10.942,tripletExp_regina_11082022,2022.2.4,119.67313398767403,
9,4,6,0,0.444444444444444,1.0,0,0.694444444444444,0.298245614035088,0,0.027777777777778,1.0,ReadingArea_rsl0-rcl44-esl100-rsm0-rcm69-esm29-rsr0-rcr2-esr100,exr/ReadingArea_rsl0-rcl44-esl100-rsm0-rcm69-esm29-rsr0-rcr2-esr100.exr,ReadingArea_rsl0-rcl44-esl100-rsm0-rcm69-esm29-rsr0-rcr2-esr100.npz,,,,,0,39,39,453,,left,green,0.88,282.48251605033875,282.81618905067444,,,1,PM,1,lightness,readingArea,realistic,75,2023-03-13_14h30.10.942,tripletExp_regina_11082022,2022.2.4,119.67313398767403,
6,2,12,0,0.027777777777778,1.0,0,0.25,0.298245614035088,0,0.027777777777778,3.10526315789474,ReadingArea_rsl0-rcl2-esl100-rsm0-rcm25-esm29-rsr0-rcr2-esr310,exr/ReadingArea_rsl0-rcl2-esl100-rsm0-rcm25-esm29-rsr0-rcr2-esr310.exr,ReadingArea_rsl0-rcl2-esl100-rsm0-rcm25-esm29-rsr0-rcr2-esr310.npz,,,,,0,40,40,480,,right,red,0.82,284.51052618026733,284.8575019836426,,,1,PM,1,lightness,readingArea,realistic,75,2023-03-13_14h30.10.942,tripletExp_regina_11082022,2022.2.4,119.67313398767403,
10,4,13,0,0.694444444444444,1.0,0,0.694444444444444,0.298245614035088,0,0.111111111111111,3.10526315789474,ReadingArea_rsl0-rcl69-esl100-rsm0-rcm69-esm29-rsr0-rcr11-esr310,exr/ReadingArea_rsl0-rcl69-esl100-rsm0-rcm69-esm29-rsr0-rcr11-esr310.exr,ReadingArea_rsl0-rcl69-esl100-rsm0-rcm69-esm29-rsr0-rcr11-esr310.npz,,,,,0,41,41,24,,right,red,1.11,286.547523021698,286.8954110145569,,,1,PM,1,lightness,readingArea,realistic,75,2023-03-13_14h30.10.942,tripletExp_regina_11082022,2022.2.4,119.67313398767403,
6,4,13,0,0.027777777777778,1.0,0,0.694444444444444,0.298245614035088,0,0.111111111111111,3.10526315789474,ReadingArea_rsl0-rcl2-esl100-rsm0-rcm69-esm29-rsr0-rcr11-esr310,exr/ReadingArea_rsl0-rcl2-esl100-rsm0-rcm69-esm29-rsr0-rcr11-esr310.exr,ReadingArea_rsl0-rcl2-esl100-rsm0-rcm69-esm29-rsr0-rcr11-esr310.npz,,,,,0,42,42,202,,right,red,0.7,288.6016039848328,288.93403005599976,,,1,PM,1,lightness,readingArea,realistic,75,2023-03-13_14h30.10.942,tripletExp_regina_11082022,2022.2.4,119.67313398767403,
4,12,5,0,0.694444444444444,0.298245614035088,0,0.027777777777778,3.10526315789474,0,1.0,0.298245614035088,ReadingArea_rsl0-rcl69-esl29-rsm0-rcm2-esm310-rsr0-rcr100-esr29,exr/ReadingArea_rsl0-rcl69-esl29-rsm0-rcm2-esm310-rsr0-rcr100-esr29.exr,ReadingArea_rsl0-rcl69-esl29-rsm0-rcm2-esm310-rsr0-rcr100-esr29.npz,,,,,0,43,43,296,,left,green,1.21,290.6401870250702,,,,1,PM,1,lightness,readingArea,realistic,75,2023-03-13_14h30.10.942,tripletExp_regina_11082022,2022.2.4,119.67313398767403,
3,4,0,0,0.444444444444444,0.298245614035088,0,0.694444444444444,0.298245614035088,0,0.027777777777778,0.298245614035088,ReadingArea_rsl0-rcl44-esl29-rsm0-rcm69-esm29-rsr0-rcr2-esr29,exr/ReadingArea_rsl0-rcl44-esl29-rsm0-rcm69-esm29-rsr0-rcr2-esr29.exr,ReadingArea_rsl0-rcl44-esl29-rsm0-rcm69-esm29-rsr0-rcr2-esr29.npz,,,,,0,44,44,130,,left,green,0.97,292.6938099861145,293.0506751537323,,,1,PM,1,lightness,readingArea,realistic,75,2023-03-13_14h30.10.942,tripletExp_regina_11082022,2022.2.4,119.67313398767403,
10,3,11,0,0.694444444444444,1.0,0,0.444444444444444,0.298245614035088,0,1.0,1.0,ReadingArea_rsl0-rcl69-esl100-rsm0-rcm44-esm29-rsr0-rcr100-esr100,exr/ReadingArea_rsl0-rcl69-esl100-rsm0-rcm44-esm29-rsr0-rcr100-esr100.exr,ReadingArea_rsl0-rcl69-esl100-rsm0-rcm44-esm29-rsr0-rcr100-esr100.npz,,,,,0,45,45,485,,left,green,1.15,294.75414514541626,295.11569714546204,,,1,PM,1,lightness,readingArea,realistic,75,2023-03-13_14h30.10.942,tripletExp_regina_11082022,2022.2.4,119.67313398767403,
6,11,3,0,0.027777777777778,1.0,0,1.0,1.0,0,0.444444444444444,0.298245614035088,ReadingArea_rsl0-rcl2-esl100-rsm0-rcm100-esm100-rsr0-rcr44-esr29,exr/ReadingArea_rsl0-rcl2-esl100-rsm0-rcm100-esm100-rsr0-rcr44-esr29.exr,ReadingArea_rsl0-rcl2-esl100-rsm0-rcm100-esm100-rsr0-rcr44-esr29.npz,,,,,0,46,46,11,,right,red,1.25,296.8157591819763,297.1689021587372,,,1,PM,1,lightness,readingArea,realistic,75,2023-03-13_14h30.10.942,tripletExp_regina_11082022,2022.2.4,119.67313398767403,
14,2,6,0,0.25,3.10526315789474,0,0.25,0.298245614035088,0,0.027777777777778,1.0,ReadingArea_rsl0-rcl25-esl310-rsm0-rcm25-esm29-rsr0-rcr2-esr100,exr/ReadingArea_rsl0-rcl25-esl310-rsm0-rcm25-esm29-rsr0-rcr2-esr100.exr,ReadingArea_rsl0-rcl25-esl310-rsm0-rcm25-esm29-rsr0-rcr2-esr100.npz,,,,,0,47,47,350,,right,red,1.16,298.8565881252289,299.2058811187744,,,1,PM,1,lightness,readingArea,realistic,75,2023-03-13_14h30.10.942,tripletExp_regina_11082022,2022.2.4,119.67313398767403,
1,13,7,0,0.111111111111111,0.298245614035088,0,0.111111111111111,3.10526315789474,0,0.111111111111111,1.0,ReadingArea_rsl0-rcl11-esl29-rsm0-rcm11-esm310-rsr0-rcr11-esr100,exr/ReadingArea_rsl0-rcl11-esl29-rsm0-rcm11-esm310-rsr0-rcr11-esr100.exr,ReadingArea_rsl0-rcl11-esl29-rsm0-rcm11-esm310-rsr0-rcr11-esr100.npz,,,,,0,48,48,158,,right,red,0.76,300.9048399925232,301.2588400840759,,,1,PM,1,lightness,readingArea,realistic,75,2023-03-13_14h30.10.942,tripletExp_regina_11082022,2022.2.4,119.67313398767403,
0,4,6,0,0.027777777777778,0.298245614035088,0,0.694444444444444,0.298245614035088,0,0.027777777777778,1.0,ReadingArea_rsl0-rcl2-esl29-rsm0-rcm69-esm29-rsr0-rcr2-esr100,exr/ReadingArea_rsl0-rcl2-esl29-rsm0-rcm69-esm29-rsr0-rcr2-esr100.exr,ReadingArea_rsl0-rcl2-esl29-rsm0-rcm69-esm29-rsr0-rcr2-esr100.npz,,,,,0,49,49,49,,right,red,1.02,302.97202014923096,303.3058822154999,,,1,PM,1,lightness,readingArea,realistic,75,2023-03-13_14h30.10.942,tripletExp_regina_11082022,2022.2.4,119.67313398767403,
3,8,7,0,0.444444444444444,0.298245614035088,0,0.25,1.0,0,0.111111111111111,1.0,ReadingArea_rsl0-rcl44-esl29-rsm0-rcm25-esm100-rsr0-rcr11-esr100,exr/ReadingArea_rsl0-rcl44-esl29-rsm0-rcm25-esm100-rsr0-rcr11-esr100.exr,ReadingArea_rsl0-rcl44-esl29-rsm0-rcm25-esm100-rsr0-rcr11-esr100.npz,,,,,0,50,50,484,,left,green,1.45,305.0097930431366,305.3423202037811,,,1,PM,1,lightness,readingArea,realistic,75,2023-03-13_14h30.10.942,tripletExp_regina_11082022,2022.2.4,119.67313398767403,
1,7,8,0,0.111111111111111,0.298245614035088,0,0.111111111111111,1.0,0,0.25,1.0,ReadingArea_rsl0-rcl11-esl29-rsm0-rcm11-esm100-rsr0-rcr25-esr100,exr/ReadingArea_rsl0-rcl11-esl29-rsm0-rcm11-esm100-rsr0-rcr25-esr100.exr,ReadingArea_rsl0-rcl11-esl29-rsm0-rcm11-esm100-rsr0-rcr25-esr100.npz,,,,,0,51,51,260,,left,green,1.29,307.0308899879456,307.3855760097504,,,1,PM,1,lightness,readingArea,realistic,75,2023-03-13_14h30.10.942,tripletExp_regina_11082022,2022.2.4,119.67313398767403,
3,10,9,0,0.444444444444444,0.298245614035088,0,0.694444444444444,1.0,0,0.444444444444444,1.0,ReadingArea_rsl0-rcl44-esl29-rsm0-rcm69-esm100-rsr0-rcr44-esr100,exr/ReadingArea_rsl0-rcl44-esl29-rsm0-rcm69-esm100-rsr0-rcr44-esr100.exr,ReadingArea_rsl0-rcl44-esl29-rsm0-rcm69-esm100-rsr0-rcr44-esr100.npz,,,,,0,52,52,222,,right,red,1.19,309.07778000831604,309.43503999710083,,,1,PM,1,lightness,readingArea,realistic,75,2023-03-13_14h30.10.942,tripletExp_regina_11082022,2022.2.4,119.67313398767403,
12,11,13,0,0.027777777777778,3.10526315789474,0,1.0,1.0,0,0.111111111111111,3.10526315789474,ReadingArea_rsl0-rcl2-esl310-rsm0-rcm100-esm100-rsr0-rcr11-esr310,exr/ReadingArea_rsl0-rcl2-esl310-rsm0-rcm100-esm100-rsr0-rcr11-esr310.exr,ReadingArea_rsl0-rcl2-esl310-rsm0-rcm100-esm100-rsr0-rcr11-esr310.npz,,,,,0,53,53,151,,right,red,1.35,311.1347990036011,,,,1,PM,1,lightness,readingArea,realistic,75,2023-03-13_14h30.10.942,tripletExp_regina_11082022,2022.2.4,119.67313398767403,
0,14,11,0,0.027777777777778,0.298245614035088,0,0.25,3.10526315789474,0,1.0,1.0,ReadingArea_rsl0-rcl2-esl29-rsm0-rcm25-esm310-rsr0-rcr100-esr100,exr/ReadingArea_rsl0-rcl2-esl29-rsm0-rcm25-esm310-rsr0-rcr100-esr100.exr,ReadingArea_rsl0-rcl2-esl29-rsm0-rcm25-esm310-rsr0-rcr100-esr100.npz,,,,,0,54,54,557,,right,red,1.0,313.1948070526123,313.5494430065155,,,1,PM,1,lightness,readingArea,realistic,75,2023-03-13_14h30.10.942,tripletExp_regina_11082022,2022.2.4,119.67313398767403,
8,6,5,0,0.25,1.0,0,0.027777777777778,1.0,0,1.0,0.298245614035088,ReadingArea_rsl0-rcl25-esl100-rsm0-rcm2-esm100-rsr0-rcr100-esr29,exr/ReadingArea_rsl0-rcl25-esl100-rsm0-rcm2-esm100-rsr0-rcr100-esr29.exr,ReadingArea_rsl0-rcl25-esl100-rsm0-rcm2-esm100-rsr0-rcr100-esr29.npz,,,,,0,55,55,241,,left,green,2.25,317.00369119644165,317.337779045105,,,1,PM,1,lightness,readingArea,realistic,75,2023-03-13_14h30.10.942,tripletExp_regina_11082022,2022.2.4,119.67313398767403,
2,4,13,0,0.25,0.298245614035088,0,0.694444444444444,0.298245614035088,0,0.111111111111111,3.10526315789474,ReadingArea_rsl0-rcl25-esl29-rsm0-rcm69-esm29-rsr0-rcr11-esr310,exr/ReadingArea_rsl0-rcl25-esl29-rsm0-rcm69-esm29-rsr0-rcr11-esr310.exr,ReadingArea_rsl0-rcl25-esl29-rsm0-rcm69-esm29-rsr0-rcr11-esr310.npz,,,,,0,56,56,325,,left,green,1.17,319.0541541576385,319.4092969894409,,,1,PM,1,lightness,readingArea,realistic,75,2023-03-13_14h30.10.942,tripletExp_regina_11082022,2022.2.4,119.67313398767403,
10,6,3,0,0.694444444444444,1.0,0,0.027777777777778,1.0,0,0.444444444444444,0.298245614035088,ReadingArea_rsl0-rcl69-esl100-rsm0-rcm2-esm100-rsr0-rcr44-esr29,exr/ReadingArea_rsl0-rcl69-esl100-rsm0-rcm2-esm100-rsr0-rcr44-esr29.exr,ReadingArea_rsl0-rcl69-esl100-rsm0-rcm2-esm100-rsr0-rcr44-esr29.npz,,,,,0,57,57,0,,right,red,1.12,321.10516905784607,321.4393560886383,,,1,PM,1,lightness,readingArea,realistic,75,2023-03-13_14h30.10.942,tripletExp_regina_11082022,2022.2.4,119.67313398767403,
2,14,8,0,0.25,0.298245614035088,0,0.25,3.10526315789474,0,0.25,1.0,ReadingArea_rsl0-rcl25-esl29-rsm0-rcm25-esm310-rsr0-rcr25-esr100,exr/ReadingArea_rsl0-rcl25-esl29-rsm0-rcm25-esm310-rsr0-rcr25-esr100.exr,ReadingArea_rsl0-rcl25-esl29-rsm0-rcm25-esm310-rsr0-rcr25-esr100.npz,,,,,0,58,58,255,,right,red,2.12,324.9105172157288,325.2615749835968,,,1,PM,1,lightness,readingArea,realistic,75,2023-03-13_14h30.10.942,tripletExp_regina_11082022,2022.2.4,119.67313398767403,
4,12,2,0,0.694444444444444,0.298245614035088,0,0.027777777777778,3.10526315789474,0,0.25,0.298245614035088,ReadingArea_rsl0-rcl69-esl29-rsm0-rcm2-esm310-rsr0-rcr25-esr29,exr/ReadingArea_rsl0-rcl69-esl29-rsm0-rcm2-esm310-rsr0-rcr25-esr29.exr,ReadingArea_rsl0-rcl69-esl29-rsm0-rcm2-esm310-rsr0-rcr25-esr29.npz,,,,,0,59,59,543,,right,red,0.86,326.9647500514984,327.32547211647034,,,1,PM,1,lightness,readingArea,realistic,75,2023-03-13_14h30.10.942,tripletExp_regina_11082022,2022.2.4,119.67313398767403,
13,10,3,0,0.111111111111111,3.10526315789474,0,0.694444444444444,1.0,0,0.444444444444444,0.298245614035088,ReadingArea_rsl0-rcl11-esl310-rsm0-rcm69-esm100-rsr0-rcr44-esr29,exr/ReadingArea_rsl0-rcl11-esl310-rsm0-rcm69-esm100-rsr0-rcr44-esr29.exr,ReadingArea_rsl0-rcl11-esl310-rsm0-rcm69-esm100-rsr0-rcr44-esr29.npz,,,,,0,60,60,224,,left,green,1.09,329.0248281955719,329.37867307662964,,,1,PM,1,lightness,readingArea,realistic,75,2023-03-13_14h30.10.942,tripletExp_regina_11082022,2022.2.4,119.67313398767403,
14,3,4,0,0.25,3.10526315789474,0,0.444444444444444,0.298245614035088,0,0.694444444444444,0.298245614035088,ReadingArea_rsl0-rcl25-esl310-rsm0-rcm44-esm29-rsr0-rcr69-esr29,exr/ReadingArea_rsl0-rcl25-esl310-rsm0-rcm44-esm29-rsr0-rcr69-esr29.exr,ReadingArea_rsl0-rcl25-esl310-rsm0-rcm44-esm29-rsr0-rcr69-esr29.npz,,,,,0,61,61,127,,right,red,0.78,331.06583619117737,331.4072561264038,,,1,PM,1,lightness,readingArea,realistic,75,2023-03-13_14h30.10.942,tripletExp_regina_11082022,2022.2.4,119.67313398767403,
12,3,0,0,0.027777777777778,3.10526315789474,0,0.444444444444444,0.298245614035088,0,0.027777777777778,0.298245614035088,ReadingArea_rsl0-rcl2-esl310-rsm0-rcm44-esm29-rsr0-rcr2-esr29,exr/ReadingArea_rsl0-rcl2-esl310-rsm0-rcm44-esm29-rsr0-rcr2-esr29.exr,ReadingArea_rsl0-rcl2-esl310-rsm0-rcm44-esm29-rsr0-rcr2-esr29.npz,,,,,0,62,62,502,,left,green,1.37,333.094829082489,333.4215290546417,,,1,PM,1,lightness,readingArea,realistic,75,2023-03-13_14h30.10.942,tripletExp_regina_11082022,2022.2.4,119.67313398767403,
8,9,13,0,0.25,1.0,0,0.444444444444444,1.0,0,0.111111111111111,3.10526315789474,ReadingArea_rsl0-rcl25-esl100-rsm0-rcm44-esm100-rsr0-rcr11-esr310,exr/ReadingArea_rsl0-rcl25-esl100-rsm0-rcm44-esm100-rsr0-rcr11-esr310.exr,ReadingArea_rsl0-rcl25-esl100-rsm0-rcm44-esm100-rsr0-rcr11-esr310.npz,,,,,0,63,63,519,,left,green,3.04,336.8790121078491,337.2364602088928,,,1,PM,1,lightness,readingArea,realistic,75,2023-03-13_14h30.10.942,tripletExp_regina_11082022,2022.2.4,119.67313398767403,
7,12,2,0,0.111111111111111,1.0,0,0.027777777777778,3.10526315789474,0,0.25,0.298245614035088,ReadingArea_rsl0-rcl11-esl100-rsm0-rcm2-esm310-rsr0-rcr25-esr29,exr/ReadingArea_rsl0-rcl11-esl100-rsm0-rcm2-esm310-rsr0-rcr25-esr29.exr,ReadingArea_rsl0-rcl11-esl100-rsm0-rcm2-esm310-rsr0-rcr25-esr29.npz,,,,,0,64,64,72,,right,red,2.41,340.67955899238586,341.0281400680542,,,1,PM,1,lightness,readingArea,realistic,75,2023-03-13_14h30.10.942,tripletExp_regina_11082022,2022.2.4,119.67313398767403,
2,1,3,0,0.25,0.298245614035088,0,0.111111111111111,0.298245614035088,0,0.444444444444444,0.298245614035088,ReadingArea_rsl0-rcl25-esl29-rsm0-rcm11-esm29-rsr0-rcr44-esr29,exr/ReadingArea_rsl0-rcl25-esl29-rsm0-rcm11-esm29-rsr0-rcr44-esr29.exr,ReadingArea_rsl0-rcl25-esl29-rsm0-rcm11-esm29-rsr0-rcr44-esr29.npz,,,,,0,65,65,85,,left,green,2.94,344.50875520706177,344.8398962020874,,,1,PM,1,lightness,readingArea,realistic,75,2023-03-13_14h30.10.942,tripletExp_regina_11082022,2022.2.4,119.67313398767403,
14,6,13,0,0.25,3.10526315789474,0,0.027777777777778,1.0,0,0.111111111111111,3.10526315789474,ReadingArea_rsl0-rcl25-esl310-rsm0-rcm2-esm100-rsr0-rcr11-esr310,exr/ReadingArea_rsl0-rcl25-esl310-rsm0-rcm2-esm100-rsr0-rcr11-esr310.exr,ReadingArea_rsl0-rcl25-esl310-rsm0-rcm2-esm100-rsr0-rcr11-esr310.npz,,,,,0,66,66,91,,right,red,2.21,348.3207321166992,348.68414998054504,,,1,PM,1,lightness,readingArea,realistic,75,2023-03-13_14h30.10.942,tripletExp_regina_11082022,2022.2.4,119.67313398767403,
13,0,8,0,0.111111111111111,3.10526315789474,0,0.027777777777778,0.298245614035088,0,0.25,1.0,ReadingArea_rsl0-rcl11-esl310-rsm0-rcm2-esm29-rsr0-rcr25-esr100,exr/ReadingArea_rsl0-rcl11-esl310-rsm0-rcm2-esm29-rsr0-rcr25-esr100.exr,ReadingArea_rsl0-rcl11-esl310-rsm0-rcm2-esm29-rsr0-rcr25-esr100.npz,,,,,0,67,67,249,,right,red,1.18,350.4073359966278,350.7814071178436,,,1,PM,1,lightness,readingArea,realistic,75,2023-03-13_14h30.10.942,tripletExp_regina_11082022,2022.2.4,119.67313398767403,
2,5,3,0,0.25,0.298245614035088,0,1.0,0.298245614035088,0,0.444444444444444,0.298245614035088,ReadingArea_rsl0-rcl25-esl29-rsm0-rcm100-esm29-rsr0-rcr44-esr29,exr/ReadingArea_rsl0-rcl25-esl29-rsm0-rcm100-esm29-rsr0-rcr44-esr29.exr,ReadingArea_rsl0-rcl25-esl29-rsm0-rcm100-esm29-rsr0-rcr44-esr29.npz,,,,,0,68,68,135,,right,red,1.17,352.4761040210724,352.83628010749817,,,1,PM,1,lightness,readingArea,realistic,75,2023-03-13_14h30.10.942,tripletExp_regina_11082022,2022.2.4,119.67313398767403,
11,8,10,0,1.0,1.0,0,0.25,1.0,0,0.694444444444444,1.0,ReadingArea_rsl0-rcl100-esl100-rsm0-rcm25-esm100-rsr0-rcr69-esr100,exr/ReadingArea_rsl0-rcl100-esl100-rsm0-rcm25-esm100-rsr0-rcr69-esr100.exr,ReadingArea_rsl0-rcl100-esl100-rsm0-rcm25-esm100-rsr0-rcr69-esr100.npz,,,,,0,69,69,67,,right,red,2.12,356.2976701259613,356.65195417404175,,,1,PM,1,lightness,readingArea,realistic,75,2023-03-13_14h30.10.942,tripletExp_regina_11082022,2022.2.4,119.67313398767403,
13,3,7,0,0.111111111111111,3.10526315789474,0,0.444444444444444,0.298245614035088,0,0.111111111111111,1.0,ReadingArea_rsl0-rcl11-esl310-rsm0-rcm44-esm29-rsr0-rcr11-esr100,exr/ReadingArea_rsl0-rcl11-esl310-rsm0-rcm44-esm29-rsr0-rcr11-esr100.exr,ReadingArea_rsl0-rcl11-esl310-rsm0-rcm44-esm29-rsr0-rcr11-esr100.npz,,,,,0,70,70,497,,left,green,1.0,358.34309220314026,358.72518515586853,,,1,PM,1,lightness,readingArea,realistic,75,2023-03-13_14h30.10.942,tripletExp_regina_11082022,2022.2.4,119.67313398767403,
6,4,10,0,0.027777777777778,1.0,0,0.694444444444444,0.298245614035088,0,0.694444444444444,1.0,ReadingArea_rsl0-rcl2-esl100-rsm0-rcm69-esm29-rsr0-rcr69-esr100,exr/ReadingArea_rsl0-rcl2-esl100-rsm0-rcm69-esm29-rsr0-rcr69-esr100.exr,ReadingArea_rsl0-rcl2-esl100-rsm0-rcm69-esm29-rsr0-rcr69-esr100.npz,,,,,0,71,71,554,,right,red,2.97,362.2112991809845,362.5649352073669,,,1,PM,1,lightness,readingArea,realistic,75,2023-03-13_14h30.10.942,tripletExp_regina_11082022,2022.2.4,119.67313398767403,
9,3,8,0,0.444444444444444,1.0,0,0.444444444444444,0.298245614035088,0,0.25,1.0,ReadingArea_rsl0-rcl44-esl100-rsm0-rcm44-esm29-rsr0-rcr25-esr100,exr/ReadingArea_rsl0-rcl44-esl100-rsm0-rcm44-esm29-rsr0-rcr25-esr100.exr,ReadingArea_rsl0-rcl44-esl100-rsm0-rcm44-esm29-rsr0-rcr25-esr100.npz,,,,,0,72,72,530,,right,red,1.45,364.2657589912415,364.6005442142487,,,1,PM,1,lightness,readingArea,realistic,75,2023-03-13_14h30.10.942,tripletExp_regina_11082022,2022.2.4,119.67313398767403,
10,14,4,0,0.694444444444444,1.0,0,0.25,3.10526315789474,0,0.694444444444444,0.298245614035088,ReadingArea_rsl0-rcl69-esl100-rsm0-rcm25-esm310-rsr0-rcr69-esr29,exr/ReadingArea_rsl0-rcl69-esl100-rsm0-rcm25-esm310-rsr0-rcr69-esr29.exr,ReadingArea_rsl0-rcl69-esl100-rsm0-rcm25-esm310-rsr0-rcr69-esr29.npz,,,,,0,73,73,267,,left,green,0.83,366.3227801322937,366.6810791492462,,,1,PM,1,lightness,readingArea,realistic,75,2023-03-13_14h30.10.942,tripletExp_regina_11082022,2022.2.4,119.67313398767403,
5,3,4,0,1.0,0.298245614035088,0,0.444444444444444,0.298245614035088,0,0.694444444444444,0.298245614035088,ReadingArea_rsl0-rcl100-esl29-rsm0-rcm44-esm29-rsr0-rcr69-esr29,exr/ReadingArea_rsl0-rcl100-esl29-rsm0-rcm44-esm29-rsr0-rcr69-esr29.exr,ReadingArea_rsl0-rcl100-esl29-rsm0-rcm44-esm29-rsr0-rcr69-esr29.npz,,,,,0,74,74,201,,right,red,2.92,370.1451780796051,370.3514821529389,,,1,PM,1,lightness,readingArea,realistic,75,2023-03-13_14h30.10.942,tripletExp_regina_11082022,2022.2.4,119.67313398767403,
3,14,12,0,0.444444444444444,0.298245614035088,0,0.25,3.10526315789474,0,0.027777777777778,3.10526315789474,ReadingArea_rsl0-rcl44-esl29-rsm0-rcm25-esm310-rsr0-rcr2-esr310,exr/ReadingArea_rsl0-rcl44-esl29-rsm0-rcm25-esm310-rsr0-rcr2-esr310.exr,ReadingArea_rsl0-rcl44-esl29-rsm0-rcm25-esm310-rsr0-rcr2-esr310.npz,,,,,0,75,75,336,,left,green,1.43,377.9302840232849,378.29456305503845,,,2,PM,1,lightness,readingArea,realistic,75,2023-03-13_14h30.10.942,tripletExp_regina_11082022,2022.2.4,119.67313398767403,
10,13,1,0,0.694444444444444,1.0,0,0.111111111111111,3.10526315789474,0,0.111111111111111,0.298245614035088,ReadingArea_rsl0-rcl69-esl100-rsm0-rcm11-esm310-rsr0-rcr11-esr29,exr/ReadingArea_rsl0-rcl69-esl100-rsm0-rcm11-esm310-rsr0-rcr11-esr29.exr,ReadingArea_rsl0-rcl69-esl100-rsm0-rcm11-esm310-rsr0-rcr11-esr29.npz,,,,,0,76,76,149,,left,green,2.9,381.7645680904389,382.1630539894104,,,2,PM,1,lightness,readingArea,realistic,75,2023-03-13_14h30.10.942,tripletExp_regina_11082022,2022.2.4,119.67313398767403,
5,9,12,0,1.0,0.298245614035088,0,0.444444444444444,1.0,0,0.027777777777778,3.10526315789474,ReadingArea_rsl0-rcl100-esl29-rsm0-rcm44-esm100-rsr0-rcr2-esr310,exr/ReadingArea_rsl0-rcl100-esl29-rsm0-rcm44-esm100-rsr0-rcr2-esr310.exr,ReadingArea_rsl0-rcl100-esl29-rsm0-rcm44-esm100-rsr0-rcr2-esr310.npz,,,,,0,77,77,539,,left,green,1.06,383.863578081131,,,,2,PM,1,lightness,readingArea,realistic,75,2023-03-13_14h30.10.942,tripletExp_regina_11082022,2022.2.4,119.67313398767403,
3,7,9,0,0.444444444444444,0.298245614035088,0,0.111111111111111,1.0,0,0.444444444444444,1.0,ReadingArea_rsl0-rcl44-esl29-rsm0-rcm11-esm100-rsr0-rcr44-esr100,exr/ReadingArea_rsl0-rcl44-esl29-rsm0-rcm11-esm100-rsr0-rcr44-esr100.exr,ReadingArea_rsl0-rcl44-esl29-rsm0-rcm11-esm100-rsr0-rcr44-esr100.npz,,,,,0,78,78,382,,left,green,1.24,385.9400131702423,386.2967581748962,,,2,PM,1,lightness,readingArea,realistic,75,2023-03-13_14h30.10.942,tripletExp_regina_11082022,2022.2.4,119.67313398767403,
1,5,13,0,0.111111111111111,0.298245614035088,0,1.0,0.298245614035088,0,0.111111111111111,3.10526315789474,ReadingArea_rsl0-rcl11-esl29-rsm0-rcm100-esm29-rsr0-rcr11-esr310,exr/ReadingArea_rsl0-rcl11-esl29-rsm0-rcm100-esm29-rsr0-rcr11-esr310.exr,ReadingArea_rsl0-rcl11-esl29-rsm0-rcm100-esm29-rsr0-rcr11-esr310.npz,,,,,0,79,79,598,,right,red,0.91,387.9847280979157,388.3420422077179,,,2,PM,1,lightness,readingArea,realistic,75,2023-03-13_14h30.10.942,tripletExp_regina_11082022,2022.2.4,119.67313398767403,
0,8,12,0,0.027777777777778,0.298245614035088,0,0.25,1.0,0,0.027777777777778,3.10526315789474,ReadingArea_rsl0-rcl2-esl29-rsm0-rcm25-esm100-rsr0-rcr2-esr310,exr/ReadingArea_rsl0-rcl2-esl29-rsm0-rcm25-esm100-rsr0-rcr2-esr310.exr,ReadingArea_rsl0-rcl2-esl29-rsm0-rcm25-esm100-rsr0-rcr2-esr310.npz,,,,,0,80,80,314,,right,red,2.7,391.8088090419769,392.1706371307373,,,2,PM,1,lightness,readingArea,realistic,75,2023-03-13_14h30.10.942,tripletExp_regina_11082022,2022.2.4,119.67313398767403,
0,9,14,0,0.027777777777778,0.298245614035088,0,0.444444444444444,1.0,0,0.25,3.10526315789474,ReadingArea_rsl0-rcl2-esl29-rsm0-rcm44-esm100-rsr0-rcr25-esr310,exr/ReadingArea_rsl0-rcl2-esl29-rsm0-rcm44-esm100-rsr0-rcr25-esr310.exr,ReadingArea_rsl0-rcl2-esl29-rsm0-rcm44-esm100-rsr0-rcr25-esr310.npz,,,,,0,81,81,433,,right,red,1.51,393.87900614738464,394.2304701805115,,,2,PM,1,lightness,readingArea,realistic,75,2023-03-13_14h30.10.942,tripletExp_regina_11082022,2022.2.4,119.67313398767403,
1,13,2,0,0.111111111111111,0.298245614035088,0,0.111111111111111,3.10526315789474,0,0.25,0.298245614035088,ReadingArea_rsl0-rcl11-esl29-rsm0-rcm11-esm310-rsr0-rcr25-esr29,exr/ReadingArea_rsl0-rcl11-esl29-rsm0-rcm11-esm310-rsr0-rcr25-esr29.exr,ReadingArea_rsl0-rcl11-esl29-rsm0-rcm11-esm310-rsr0-rcr25-esr29.npz,,,,,0,82,82,118,,right,red,1.29,395.92947912216187,396.2686941623688,,,2,PM,1,lightness,readingArea,realistic,75,2023-03-13_14h30.10.942,tripletExp_regina_11082022,2022.2.4,119.67313398767403,
9,12,0,0,0.444444444444444,1.0,0,0.027777777777778,3.10526315789474,0,0.027777777777778,0.298245614035088,ReadingArea_rsl0-rcl44-esl100-rsm0-rcm2-esm310-rsr0-rcr2-esr29,exr/ReadingArea_rsl0-rcl44-esl100-rsm0-rcm2-esm310-rsr0-rcr2-esr29.exr,ReadingArea_rsl0-rcl44-esl100-rsm0-rcm2-esm310-rsr0-rcr2-esr29.npz,,,,,0,83,83,175,,right,red,1.14,397.9821140766144,,,,2,PM,1,lightness,readingArea,realistic,75,2023-03-13_14h30.10.942,tripletExp_regina_11082022,2022.2.4,119.67313398767403,
2,14,1,0,0.25,0.298245614035088,0,0.25,3.10526315789474,0,0.111111111111111,0.298245614035088,ReadingArea_rsl0-rcl25-esl29-rsm0-rcm25-esm310-rsr0-rcr11-esr29,exr/ReadingArea_rsl0-rcl25-esl29-rsm0-rcm25-esm310-rsr0-rcr11-esr29.exr,ReadingArea_rsl0-rcl25-esl29-rsm0-rcm25-esm310-rsr0-rcr11-esr29.npz,,,,,0,84,84,579,,left,green,1.5,400.0574350357056,,,,2,PM,1,lightness,readingArea,realistic,75,2023-03-13_14h30.10.942,tripletExp_regina_11082022,2022.2.4,119.67313398767403,
9,6,13,0,0.444444444444444,1.0,0,0.027777777777778,1.0,0,0.111111111111111,3.10526315789474,ReadingArea_rsl0-rcl44-esl100-rsm0-rcm2-esm100-rsr0-rcr11-esr310,exr/ReadingArea_rsl0-rcl44-esl100-rsm0-rcm2-esm100-rsr0-rcr11-esr310.exr,ReadingArea_rsl0-rcl44-esl100-rsm0-rcm2-esm100-rsr0-rcr11-esr310.npz,,,,,0,85,85,285,,right,red,2.82,403.8994991779328,,,,2,PM,1,lightness,readingArea,realistic,75,2023-03-13_14h30.10.942,tripletExp_regina_11082022,2022.2.4,119.67313398767403,
3,0,2,0,0.444444444444444,0.298245614035088,0,0.027777777777778,0.298245614035088,0,0.25,0.298245614035088,ReadingArea_rsl0-rcl44-esl29-rsm0-rcm2-esm29-rsr0-rcr25-esr29,exr/ReadingArea_rsl0-rcl44-esl29-rsm0-rcm2-esm29-rsr0-rcr25-esr29.exr,ReadingArea_rsl0-rcl44-esl29-rsm0-rcm2-esm29-rsr0-rcr25-esr29.npz,,,,,0,86,86,334,,right,red,2.99,407.7736530303955,408.13169503211975,,,2,PM,1,lightness,readingArea,realistic,75,2023-03-13_14h30.10.942,tripletExp_regina_11082022,2022.2.4,119.67313398767403,
4,1,3,0,0.694444444444444,0.298245614035088,0,0.111111111111111,0.298245614035088,0,0.444444444444444,0.298245614035088,ReadingArea_rsl0-rcl69-esl29-rsm0-rcm11-esm29-rsr0-rcr44-esr29,exr/ReadingArea_rsl0-rcl69-esl29-rsm0-rcm11-esm29-rsr0-rcr44-esr29.exr,ReadingArea_rsl0-rcl69-esl29-rsm0-rcm11-esm29-rsr0-rcr44-esr29.npz,,,,,0,87,87,70,,right,red,2.26,411.6103241443634,411.9704201221466,,,2,PM,1,lightness,readingArea,realistic,75,2023-03-13_14h30.10.942,tripletExp_regina_11082022,2022.2.4,119.67313398767403,
7,8,14,0,0.111111111111111,1.0,0,0.25,1.0,0,0.25,3.10526315789474,ReadingArea_rsl0-rcl11-esl100-rsm0-rcm25-esm100-rsr0-rcr25-esr310,exr/ReadingArea_rsl0-rcl11-esl100-rsm0-rcm25-esm100-rsr0-rcr25-esr310.exr,ReadingArea_rsl0-rcl11-esl100-rsm0-rcm25-esm100-rsr0-rcr25-esr310.npz,,,,,0,88,88,300,,left,green,1.04,413.6579110622406,414.0078580379486,,,2,PM,1,lightness,readingArea,realistic,75,2023-03-13_14h30.10.942,tripletExp_regina_11082022,2022.2.4,119.67313398767403,
4,14,1,0,0.694444444444444,0.298245614035088,0,0.25,3.10526315789474,0,0.111111111111111,0.298245614035088,ReadingArea_rsl0-rcl69-esl29-rsm0-rcm25-esm310-rsr0-rcr11-esr29,exr/ReadingArea_rsl0-rcl69-esl29-rsm0-rcm25-esm310-rsr0-rcr11-esr29.exr,ReadingArea_rsl0-rcl69-esl29-rsm0-rcm25-esm310-rsr0-rcr11-esr29.npz,,,,,0,89,89,477,,left,green,1.23,415.70501804351807,416.0597360134125,,,2,PM,1,lightness,readingArea,realistic,75,2023-03-13_14h30.10.942,tripletExp_regina_11082022,2022.2.4,119.67313398767403,
1,14,0,0,0.111111111111111,0.298245614035088,0,0.25,3.10526315789474,0,0.027777777777778,0.298245614035088,ReadingArea_rsl0-rcl11-esl29-rsm0-rcm25-esm310-rsr0-rcr2-esr29,exr/ReadingArea_rsl0-rcl11-esl29-rsm0-rcm25-esm310-rsr0-rcr2-esr29.exr,ReadingArea_rsl0-rcl11-esl29-rsm0-rcm25-esm310-rsr0-rcr2-esr29.npz,,,,,0,90,90,394,,left,green,1.26,417.7567191123962,418.1333470344544,,,2,PM,1,lightness,readingArea,realistic,75,2023-03-13_14h30.10.942,tripletExp_regina_11082022,2022.2.4,119.67313398767403,
13,4,0,0,0.111111111111111,3.10526315789474,0,0.694444444444444,0.298245614035088,0,0.027777777777778,0.298245614035088,ReadingArea_rsl0-rcl11-esl310-rsm0-rcm69-esm29-rsr0-rcr2-esr29,exr/ReadingArea_rsl0-rcl11-esl310-rsm0-rcm69-esm29-rsr0-rcr2-esr29.exr,ReadingArea_rsl0-rcl11-esl310-rsm0-rcm69-esm29-rsr0-rcr2-esr29.npz,,,,,0,91,91,269,,left,green,1.54,419.8413012027741,420.2129771709442,,,2,PM,1,lightness,readingArea,realistic,75,2023-03-13_14h30.10.942,tripletExp_regina_11082022,2022.2.4,119.67313398767403,
2,9,8,0,0.25,0.298245614035088,0,0.444444444444444,1.0,0,0.25,1.0,ReadingArea_rsl0-rcl25-esl29-rsm0-rcm44-esm100-rsr0-rcr25-esr100,exr/ReadingArea_rsl0-rcl25-esl29-rsm0-rcm44-esm100-rsr0-rcr25-esr100.exr,ReadingArea_rsl0-rcl25-esl29-rsm0-rcm44-esm100-rsr0-rcr25-esr100.npz,,,,,0,92,92,407,,right,red,0.67,421.92647314071655,422.2509000301361,,,2,PM,1,lightness,readingArea,realistic,75,2023-03-13_14h30.10.942,tripletExp_regina_11082022,2022.2.4,119.67313398767403,
2,12,13,0,0.25,0.298245614035088,0,0.027777777777778,3.10526315789474,0,0.111111111111111,3.10526315789474,ReadingArea_rsl0-rcl25-esl29-rsm0-rcm2-esm310-rsr0-rcr11-esr310,exr/ReadingArea_rsl0-rcl25-esl29-rsm0-rcm2-esm310-rsr0-rcr11-esr310.exr,ReadingArea_rsl0-rcl25-esl29-rsm0-rcm2-esm310-rsr0-rcr11-esr310.npz,,,,,0,93,93,232,,left,green,0.65,423.962984085083,424.32710218429565,,,2,PM,1,lightness,readingArea,realistic,75,2023-03-13_14h30.10.942,tripletExp_regina_11082022,2022.2.4,119.67313398767403,
12,2,9,0,0.027777777777778,3.10526315789474,0,0.25,0.298245614035088,0,0.444444444444444,1.0,ReadingArea_rsl0-rcl2-esl310-rsm0-rcm25-esm29-rsr0-rcr44-esr100,exr/ReadingArea_rsl0-rcl2-esl310-rsm0-rcm25-esm29-rsr0-rcr44-esr100.exr,ReadingArea_rsl0-rcl2-esl310-rsm0-rcm25-esm29-rsr0-rcr44-esr100.npz,,,,,0,94,94,495,,left,green,0.66,426.0255169868469,426.3801980018616,,,2,PM,1,lightness,readingArea,realistic,75,2023-03-13_14h30.10.942,tripletExp_regina_11082022,2022.2.4,119.67313398767403,
10,11,4,0,0.694444444444444,1.0,0,1.0,1.0,0,0.694444444444444,0.298245614035088,ReadingArea_rsl0-rcl69-esl100-rsm0-rcm100-esm100-rsr0-rcr69-esr29,exr/ReadingArea_rsl0-rcl69-esl100-rsm0-rcm100-esm100-rsr0-rcr69-esr29.exr,ReadingArea_rsl0-rcl69-esl100-rsm0-rcm100-esm100-rsr0-rcr69-esr29.npz,,,,,0,95,95,239,,left,green,0.72,428.1059591770172,428.4860851764679,,,2,PM,1,lightness,readingArea,realistic,75,2023-03-13_14h30.10.942,tripletExp_regina_11082022,2022.2.4,119.67313398767403,
1,5,14,0,0.111111111111111,0.298245614035088,0,1.0,0.298245614035088,0,0.25,3.10526315789474,ReadingArea_rsl0-rcl11-esl29-rsm0-rcm100-esm29-rsr0-rcr25-esr310,exr/ReadingArea_rsl0-rcl11-esl29-rsm0-rcm100-esm29-rsr0-rcr25-esr310.exr,ReadingArea_rsl0-rcl11-esl29-rsm0-rcm100-esm29-rsr0-rcr25-esr310.npz,,,,,0,96,96,191,,right,red,0.84,430.1745870113373,430.5312931537628,,,2,PM,1,lightness,readingArea,realistic,75,2023-03-13_14h30.10.942,tripletExp_regina_11082022,2022.2.4,119.67313398767403,
11,8,7,0,1.0,1.0,0,0.25,1.0,0,0.111111111111111,1.0,ReadingArea_rsl0-rcl100-esl100-rsm0-rcm25-esm100-rsr0-rcr11-esr100,exr/ReadingArea_rsl0-rcl100-esl100-rsm0-rcm25-esm100-rsr0-rcr11-esr100.exr,ReadingArea_rsl0-rcl100-esl100-rsm0-rcm25-esm100-rsr0-rcr11-esr100.npz,,,,,0,97,97,105,,left,green,0.91,432.2395620346069,432.6224000453949,,,2,PM,1,lightness,readingArea,realistic,75,2023-03-13_14h30.10.942,tripletExp_regina_11082022,2022.2.4,119.67313398767403,
2,13,3,0,0.25,0.298245614035088,0,0.111111111111111,3.10526315789474,0,0.444444444444444,0.298245614035088,ReadingArea_rsl0-rcl25-esl29-rsm0-rcm11-esm310-rsr0-rcr44-esr29,exr/ReadingArea_rsl0-rcl25-esl29-rsm0-rcm11-esm310-rsr0-rcr44-esr29.exr,ReadingArea_rsl0-rcl25-esl29-rsm0-rcm11-esm310-rsr0-rcr44-esr29.npz,,,,,0,98,98,473,,right,red,2.27,436.0996890068054,436.468964099884,,,2,PM,1,lightness,readingArea,realistic,75,2023-03-13_14h30.10.942,tripletExp_regina_11082022,2022.2.4,119.67313398767403,
10,3,0,0,0.694444444444444,1.0,0,0.444444444444444,0.298245614035088,0,0.027777777777778,0.298245614035088,ReadingArea_rsl0-rcl69-esl100-rsm0-rcm44-esm29-rsr0-rcr2-esr29,exr/ReadingArea_rsl0-rcl69-esl100-rsm0-rcm44-esm29-rsr0-rcr2-esr29.exr,ReadingArea_rsl0-rcl69-esl100-rsm0-rcm44-esm29-rsr0-rcr2-esr29.npz,,,,,0,99,99,203,,left,green,1.44,438.1561901569367,438.52772402763367,,,2,PM,1,lightness,readingArea,realistic,75,2023-03-13_14h30.10.942,tripletExp_regina_11082022,2022.2.4,119.67313398767403,
14,13,6,0,0.25,3.10526315789474,0,0.111111111111111,3.10526315789474,0,0.027777777777778,1.0,ReadingArea_rsl0-rcl25-esl310-rsm0-rcm11-esm310-rsr0-rcr2-esr100,exr/ReadingArea_rsl0-rcl25-esl310-rsm0-rcm11-esm310-rsr0-rcr2-esr100.exr,ReadingArea_rsl0-rcl25-esl310-rsm0-rcm11-esm310-rsr0-rcr2-esr100.npz,,,,,0,100,100,102,,left,green,1.14,440.2202382087708,440.58972907066345,,,2,PM,1,lightness,readingArea,realistic,75,2023-03-13_14h30.10.942,tripletExp_regina_11082022,2022.2.4,119.67313398767403,
8,3,9,0,0.25,1.0,0,0.444444444444444,0.298245614035088,0,0.444444444444444,1.0,ReadingArea_rsl0-rcl25-esl100-rsm0-rcm44-esm29-rsr0-rcr44-esr100,exr/ReadingArea_rsl0-rcl25-esl100-rsm0-rcm44-esm29-rsr0-rcr44-esr100.exr,ReadingArea_rsl0-rcl25-esl100-rsm0-rcm44-esm29-rsr0-rcr44-esr100.npz,,,,,0,101,101,15,,left,green,1.12,442.3058240413666,,,,2,PM,1,lightness,readingArea,realistic,75,2023-03-13_14h30.10.942,tripletExp_regina_11082022,2022.2.4,119.67313398767403,
5,1,4,0,1.0,0.298245614035088,0,0.111111111111111,0.298245614035088,0,0.694444444444444,0.298245614035088,ReadingArea_rsl0-rcl100-esl29-rsm0-rcm11-esm29-rsr0-rcr69-esr29,exr/ReadingArea_rsl0-rcl100-esl29-rsm0-rcm11-esm29-rsr0-rcr69-esr29.exr,ReadingArea_rsl0-rcl100-esl29-rsm0-rcm11-esm29-rsr0-rcr69-esr29.npz,,,,,0,102,102,287,,right,red,1.45,444.3665599822998,444.7285830974579,,,2,PM,1,lightness,readingArea,realistic,75,2023-03-13_14h30.10.942,tripletExp_regina_11082022,2022.2.4,119.67313398767403,
13,0,10,0,0.111111111111111,3.10526315789474,0,0.027777777777778,0.298245614035088,0,0.694444444444444,1.0,ReadingArea_rsl0-rcl11-esl310-rsm0-rcm2-esm29-rsr0-rcr69-esr100,exr/ReadingArea_rsl0-rcl11-esl310-rsm0-rcm2-esm29-rsr0-rcr69-esr100.exr,ReadingArea_rsl0-rcl11-esl310-rsm0-rcm2-esm29-rsr0-rcr69-esr100.npz,,,,,0,103,103,505,,left,green,2.29,448.2027871608734,448.54967617988586,,,2,PM,1,lightness,readingArea,realistic,75,2023-03-13_14h30.10.942,tripletExp_regina_11082022,2022.2.4,119.67313398767403,
10,11,5,0,0.694444444444444,1.0,0,1.0,1.0,0,1.0,0.298245614035088,ReadingArea_rsl0-rcl69-esl100-rsm0-rcm100-esm100-rsr0-rcr100-esr29,exr/ReadingArea_rsl0-rcl69-esl100-rsm0-rcm100-esm100-rsr0-rcr100-esr29.exr,ReadingArea_rsl0-rcl69-esl100-rsm0-rcm100-esm100-rsr0-rcr100-esr29.npz,,,,,0,104,104,514,,left,green,0.86,450.2543511390686,450.6134331226349,,,2,PM,1,lightness,readingArea,realistic,75,2023-03-13_14h30.10.942,tripletExp_regina_11082022,2022.2.4,119.67313398767403,
3,9,0,0,0.444444444444444,0.298245614035088,0,0.444444444444444,1.0,0,0.027777777777778,0.298245614035088,ReadingArea_rsl0-rcl44-esl29-rsm0-rcm44-esm100-rsr0-rcr2-esr29,exr/ReadingArea_rsl0-rcl44-esl29-rsm0-rcm44-esm100-rsr0-rcr2-esr29.exr,ReadingArea_rsl0-rcl44-esl29-rsm0-rcm44-esm100-rsr0-rcr2-esr29.npz,,,,,0,105,105,551,,left,green,1.34,452.3203110694885,452.68115305900574,,,2,PM,1,lightness,readingArea,realistic,75,2023-03-13_14h30.10.942,tripletExp_regina_11082022,2022.2.4,119.67313398767403,
5,10,0,0,1.0,0.298245614035088,0,0.694444444444444,1.0,0,0.027777777777778,0.298245614035088,ReadingArea_rsl0-rcl100-esl29-rsm0-rcm69-esm100-rsr0-rcr2-esr29,exr/ReadingArea_rsl0-rcl100-esl29-rsm0-rcm69-esm100-rsr0-rcr2-esr29.exr,ReadingArea_rsl0-rcl100-esl29-rsm0-rcm69-esm100-rsr0-rcr2-esr29.npz,,,,,0,106,106,293,,left,green,0.76,454.3837831020355,454.742388010025,,,2,PM,1,lightness,readingArea,realistic,75,2023-03-13_14h30.10.942,tripletExp_regina_11082022,2022.2.4,119.67313398767403,
6,4,2,0,0.027777777777778,1.0,0,0.694444444444444,0.298245614035088,0,0.25,0.298245614035088,ReadingArea_rsl0-rcl2-esl100-rsm0-rcm69-esm29-rsr0-rcr25-esr29,exr/ReadingArea_rsl0-rcl2-esl100-rsm0-rcm69-esm29-rsr0-rcr25-esr29.exr,ReadingArea_rsl0-rcl2-esl100-rsm0-rcm69-esm29-rsr0-rcr25-esr29.npz,,,,,0,107,107,134,,right,red,0.75,456.4466111660004,456.7994220256805,,,2,PM,1,lightness,readingArea,realistic,75,2023-03-13_14h30.10.942,tripletExp_regina_11082022,2022.2.4,119.67313398767403,
4,8,11,0,0.694444444444444,0.298245614035088,0,0.25,1.0,0,1.0,1.0,ReadingArea_rsl0-rcl69-esl29-rsm0-rcm25-esm100-rsr0-rcr100-esr100,exr/ReadingArea_rsl0-rcl69-esl29-rsm0-rcm25-esm100-rsr0-rcr100-esr100.exr,ReadingArea_rsl0-rcl69-esl29-rsm0-rcm25-esm100-rsr0-rcr100-esr100.npz,,,,,0,108,108,403,,left,green,0.7,458.5067801475525,458.8465051651001,,,2,PM,1,lightness,readingArea,realistic,75,2023-03-13_14h30.10.942,tripletExp_regina_11082022,2022.2.4,119.67313398767403,
1,14,5,0,0.111111111111111,0.298245614035088,0,0.25,3.10526315789474,0,1.0,0.298245614035088,ReadingArea_rsl0-rcl11-esl29-rsm0-rcm25-esm310-rsr0-rcr100-esr29,exr/ReadingArea_rsl0-rcl11-esl29-rsm0-rcm25-esm310-rsr0-rcr100-esr29.exr,ReadingArea_rsl0-rcl11-esl29-rsm0-rcm25-esm310-rsr0-rcr100-esr29.npz,,,,,0,109,109,509,,right,red,0.74,460.5645279884338,460.9318311214447,,,2,PM,1,lightness,readingArea,realistic,75,2023-03-13_14h30.10.942,tripletExp_regina_11082022,2022.2.4,119.67313398767403,
14,2,8,0,0.25,3.10526315789474,0,0.25,0.298245614035088,0,0.25,1.0,ReadingArea_rsl0-rcl25-esl310-rsm0-rcm25-esm29-rsr0-rcr25-esr100,exr/ReadingArea_rsl0-rcl25-esl310-rsm0-rcm25-esm29-rsr0-rcr25-esr100.exr,ReadingArea_rsl0-rcl25-esl310-rsm0-rcm25-esm29-rsr0-rcr25-esr100.npz,,,,,0,110,110,212,,right,red,0.89,462.637579202652,462.9962861537933,,,2,PM,1,lightness,readingArea,realistic,75,2023-03-13_14h30.10.942,tripletExp_regina_11082022,2022.2.4,119.67313398767403,
14,8,3,0,0.25,3.10526315789474,0,0.25,1.0,0,0.444444444444444,0.298245614035088,ReadingArea_rsl0-rcl25-esl310-rsm0-rcm25-esm100-rsr0-rcr44-esr29,exr/ReadingArea_rsl0-rcl25-esl310-rsm0-rcm25-esm100-rsr0-rcr44-esr29.exr,ReadingArea_rsl0-rcl25-esl310-rsm0-rcm25-esm100-rsr0-rcr44-esr29.npz,,,,,0,111,111,100,,right,red,0.67,464.6958150863648,465.05882120132446,,,2,PM,1,lightness,readingArea,realistic,75,2023-03-13_14h30.10.942,tripletExp_regina_11082022,2022.2.4,119.67313398767403,
0,4,9,0,0.027777777777778,0.298245614035088,0,0.694444444444444,0.298245614035088,0,0.444444444444444,1.0,ReadingArea_rsl0-rcl2-esl29-rsm0-rcm69-esm29-rsr0-rcr44-esr100,exr/ReadingArea_rsl0-rcl2-esl29-rsm0-rcm69-esm29-rsr0-rcr44-esr100.exr,ReadingArea_rsl0-rcl2-esl29-rsm0-rcm69-esm29-rsr0-rcr44-esr100.npz,,,,,0,112,112,21,,right,red,0.77,466.7639520168304,467.1203820705414,,,2,PM,1,lightness,readingArea,realistic,75,2023-03-13_14h30.10.942,tripletExp_regina_11082022,2022.2.4,119.67313398767403,
1,0,4,0,0.111111111111111,0.298245614035088,0,0.027777777777778,0.298245614035088,0,0.694444444444444,0.298245614035088,ReadingArea_rsl0-rcl11-esl29-rsm0-rcm2-esm29-rsr0-rcr69-esr29,exr/ReadingArea_rsl0-rcl11-esl29-rsm0-rcm2-esm29-rsr0-rcr69-esr29.exr,ReadingArea_rsl0-rcl11-esl29-rsm0-rcm2-esm29-rsr0-rcr69-esr29.npz,,,,,0,113,113,494,,left,green,0.84,468.8427920341492,469.1961359977722,,,2,PM,1,lightness,readingArea,realistic,75,2023-03-13_14h30.10.942,tripletExp_regina_11082022,2022.2.4,119.67313398767403,
6,11,14,0,0.027777777777778,1.0,0,1.0,1.0,0,0.25,3.10526315789474,ReadingArea_rsl0-rcl2-esl100-rsm0-rcm100-esm100-rsr0-rcr25-esr310,exr/ReadingArea_rsl0-rcl2-esl100-rsm0-rcm100-esm100-rsr0-rcr25-esr310.exr,ReadingArea_rsl0-rcl2-esl100-rsm0-rcm100-esm100-rsr0-rcr25-esr310.npz,,,,,0,114,114,262,,right,red,0.73,470.9081780910492,471.2677571773529,,,2,PM,1,lightness,readingArea,realistic,75,2023-03-13_14h30.10.942,tripletExp_regina_11082022,2022.2.4,119.67313398767403,
6,12,3,0,0.027777777777778,1.0,0,0.027777777777778,3.10526315789474,0,0.444444444444444,0.298245614035088,ReadingArea_rsl0-rcl2-esl100-rsm0-rcm2-esm310-rsr0-rcr44-esr29,exr/ReadingArea_rsl0-rcl2-esl100-rsm0-rcm2-esm310-rsr0-rcr44-esr29.exr,ReadingArea_rsl0-rcl2-esl100-rsm0-rcm2-esm310-rsr0-rcr44-esr29.npz,,,,,0,115,115,284,,right,red,1.08,472.9852960109711,,,,2,PM,1,lightness,readingArea,realistic,75,2023-03-13_14h30.10.942,tripletExp_regina_11082022,2022.2.4,119.67313398767403,
5,8,7,0,1.0,0.298245614035088,0,0.25,1.0,0,0.111111111111111,1.0,ReadingArea_rsl0-rcl100-esl29-rsm0-rcm25-esm100-rsr0-rcr11-esr100,exr/ReadingArea_rsl0-rcl100-esl29-rsm0-rcm25-esm100-rsr0-rcr11-esr100.exr,ReadingArea_rsl0-rcl100-esl29-rsm0-rcm25-esm100-rsr0-rcr11-esr100.npz,,,,,0,116,116,36,,left,green,1.0,475.0681431293488,475.4263591766357,,,2,PM,1,lightness,readingArea,realistic,75,2023-03-13_14h30.10.942,tripletExp_regina_11082022,2022.2.4,119.67313398767403,
10,13,6,0,0.694444444444444,1.0,0,0.111111111111111,3.10526315789474,0,0.027777777777778,1.0,ReadingArea_rsl0-rcl69-esl100-rsm0-rcm11-esm310-rsr0-rcr2-esr100,exr/ReadingArea_rsl0-rcl69-esl100-rsm0-rcm11-esm310-rsr0-rcr2-esr100.exr,ReadingArea_rsl0-rcl69-esl100-rsm0-rcm11-esm310-rsr0-rcr2-esr100.npz,,,,,0,117,117,351,,left,green,0.74,477.1260721683502,477.48352098464966,,,2,PM,1,lightness,readingArea,realistic,75,2023-03-13_14h30.10.942,tripletExp_regina_11082022,2022.2.4,119.67313398767403,
5,14,3,0,1.0,0.298245614035088,0,0.25,3.10526315789474,0,0.444444444444444,0.298245614035088,ReadingArea_rsl0-rcl100-esl29-rsm0-rcm25-esm310-rsr0-rcr44-esr29,exr/ReadingArea_rsl0-rcl100-esl29-rsm0-rcm25-esm310-rsr0-rcr44-esr29.exr,ReadingArea_rsl0-rcl100-esl29-rsm0-rcm25-esm310-rsr0-rcr44-esr29.npz,,,,,0,118,118,93,,left,green,0.59,479.18536710739136,479.5385022163391,,,2,PM,1,lightness,readingArea,realistic,75,2023-03-13_14h30.10.942,tripletExp_regina_11082022,2022.2.4,119.67313398767403,
3,7,0,0,0.444444444444444,0.298245614035088,0,0.111111111111111,1.0,0,0.027777777777778,0.298245614035088,ReadingArea_rsl0-rcl44-esl29-rsm0-rcm11-esm100-rsr0-rcr2-esr29,exr/ReadingArea_rsl0-rcl44-esl29-rsm0-rcm11-esm100-rsr0-rcr2-esr29.exr,ReadingArea_rsl0-rcl44-esl29-rsm0-rcm11-esm100-rsr0-rcr2-esr29.npz,,,,,0,119,119,327,,left,green,0.61,481.2384190559387,481.60307121276855,,,2,PM,1,lightness,readingArea,realistic,75,2023-03-13_14h30.10.942,tripletExp_regina_11082022,2022.2.4,119.67313398767403,
8,6,0,0,0.25,1.0,0,0.027777777777778,1.0,0,0.027777777777778,0.298245614035088,ReadingArea_rsl0-rcl25-esl100-rsm0-rcm2-esm100-rsr0-rcr2-esr29,exr/ReadingArea_rsl0-rcl25-esl100-rsm0-rcm2-esm100-rsr0-rcr2-esr29.exr,ReadingArea_rsl0-rcl25-esl100-rsm0-rcm2-esm100-rsr0-rcr2-esr29.npz,,,,,0,120,120,187,,right,red,0.95,483.2970590591431,483.6546862125397,,,2,PM,1,lightness,readingArea,realistic,75,2023-03-13_14h30.10.942,tripletExp_regina_11082022,2022.2.4,119.67313398767403,
9,4,11,0,0.444444444444444,1.0,0,0.694444444444444,0.298245614035088,0,1.0,1.0,ReadingArea_rsl0-rcl44-esl100-rsm0-rcm69-esm29-rsr0-rcr100-esr100,exr/ReadingArea_rsl0-rcl44-esl100-rsm0-rcm69-esm29-rsr0-rcr100-esr100.exr,ReadingArea_rsl0-rcl44-esl100-rsm0-rcm69-esm29-rsr0-rcr100-esr100.npz,,,,,0,121,121,133,,left,green,1.08,485.36819219589233,485.7305660247803,,,2,PM,1,lightness,readingArea,realistic,75,2023-03-13_14h30.10.942,tripletExp_regina_11082022,2022.2.4,119.67313398767403,
13,8,14,0,0.111111111111111,3.10526315789474,0,0.25,1.0,0,0.25,3.10526315789474,ReadingArea_rsl0-rcl11-esl310-rsm0-rcm25-esm100-rsr0-rcr25-esr310,exr/ReadingArea_rsl0-rcl11-esl310-rsm0-rcm25-esm100-rsr0-rcr25-esr310.exr,ReadingArea_rsl0-rcl11-esl310-rsm0-rcm25-esm100-rsr0-rcr25-esr310.npz,,,,,0,122,122,345,,left,green,1.29,487.44424319267273,487.80148005485535,,,2,PM,1,lightness,readingArea,realistic,75,2023-03-13_14h30.10.942,tripletExp_regina_11082022,2022.2.4,119.67313398767403,
14,11,4,0,0.25,3.10526315789474,0,1.0,1.0,0,0.694444444444444,0.298245614035088,ReadingArea_rsl0-rcl25-esl310-rsm0-rcm100-esm100-rsr0-rcr69-esr29,exr/ReadingArea_rsl0-rcl25-esl310-rsm0-rcm100-esm100-rsr0-rcr69-esr29.exr,ReadingArea_rsl0-rcl25-esl310-rsm0-rcm100-esm100-rsr0-rcr69-esr29.npz,,,,,0,123,123,370,,left,green,0.76,489.5078570842743,489.8714292049408,,,2,PM,1,lightness,readingArea,realistic,75,2023-03-13_14h30.10.942,tripletExp_regina_11082022,2022.2.4,119.67313398767403,
0,8,6,0,0.027777777777778,0.298245614035088,0,0.25,1.0,0,0.027777777777778,1.0,ReadingArea_rsl0-rcl2-esl29-rsm0-rcm25-esm100-rsr0-rcr2-esr100,exr/ReadingArea_rsl0-rcl2-esl29-rsm0-rcm25-esm100-rsr0-rcr2-esr100.exr,ReadingArea_rsl0-rcl2-esl29-rsm0-rcm25-esm100-rsr0-rcr2-esr100.npz,,,,,0,124,124,92,,right,red,1.59,491.59164214134216,491.980761051178,,,2,PM,1,lightness,readingArea,realistic,75,2023-03-13_14h30.10.942,tripletExp_regina_11082022,2022.2.4,119.67313398767403,
7,12,0,0,0.111111111111111,1.0,0,0.027777777777778,3.10526315789474,0,0.027777777777778,0.298245614035088,ReadingArea_rsl0-rcl11-esl100-rsm0-rcm2-esm310-rsr0-rcr2-esr29,exr/ReadingArea_rsl0-rcl11-esl100-rsm0-rcm2-esm310-rsr0-rcr2-esr29.exr,ReadingArea_rsl0-rcl11-esl100-rsm0-rcm2-esm310-rsr0-rcr2-esr29.npz,,,,,0,125,125,425,,left,green,0.84,493.6978931427002,494.0593121051788,,,2,PM,1,lightness,readingArea,realistic,75,2023-03-13_14h30.10.942,tripletExp_regina_11082022,2022.2.4,119.67313398767403,
3,1,6,0,0.444444444444444,0.298245614035088,0,0.111111111111111,0.298245614035088,0,0.027777777777778,1.0,ReadingArea_rsl0-rcl44-esl29-rsm0-rcm11-esm29-rsr0-rcr2-esr100,exr/ReadingArea_rsl0-rcl44-esl29-rsm0-rcm11-esm29-rsr0-rcr2-esr100.exr,ReadingArea_rsl0-rcl44-esl29-rsm0-rcm11-esm29-rsr0-rcr2-esr100.npz,,,,,0,126,126,464,,right,red,0.75,495.7800841331482,496.1199870109558,,,2,PM,1,lightness,readingArea,realistic,75,2023-03-13_14h30.10.942,tripletExp_regina_11082022,2022.2.4,119.67313398767403,
4,9,13,0,0.694444444444444,0.298245614035088,0,0.444444444444444,1.0,0,0.111111111111111,3.10526315789474,ReadingArea_rsl0-rcl69-esl29-rsm0-rcm44-esm100-rsr0-rcr11-esr310,exr/ReadingArea_rsl0-rcl69-esl29-rsm0-rcm44-esm100-rsr0-rcr11-esr310.exr,ReadingArea_rsl0-rcl69-esl29-rsm0-rcm44-esm100-rsr0-rcr11-esr310.npz,,,,,0,127,127,488,,left,green,1.09,497.82668805122375,498.1846990585327,,,2,PM,1,lightness,readingArea,realistic,75,2023-03-13_14h30.10.942,tripletExp_regina_11082022,2022.2.4,119.67313398767403,
14,5,11,0,0.25,3.10526315789474,0,1.0,0.298245614035088,0,1.0,1.0,ReadingArea_rsl0-rcl25-esl310-rsm0-rcm100-esm29-rsr0-rcr100-esr100,exr/ReadingArea_rsl0-rcl25-esl310-rsm0-rcm100-esm29-rsr0-rcr100-esr100.exr,ReadingArea_rsl0-rcl25-esl310-rsm0-rcm100-esm29-rsr0-rcr100-esr100.npz,,,,,0,128,128,161,,left,green,2.62,501.6859471797943,502.0503990650177,,,2,PM,1,lightness,readingArea,realistic,75,2023-03-13_14h30.10.942,tripletExp_regina_11082022,2022.2.4,119.67313398767403,
5,10,12,0,1.0,0.298245614035088,0,0.694444444444444,1.0,0,0.027777777777778,3.10526315789474,ReadingArea_rsl0-rcl100-esl29-rsm0-rcm69-esm100-rsr0-rcr2-esr310,exr/ReadingArea_rsl0-rcl100-esl29-rsm0-rcm69-esm100-rsr0-rcr2-esr310.exr,ReadingArea_rsl0-rcl100-esl29-rsm0-rcm69-esm100-rsr0-rcr2-esr310.npz,,,,,0,129,129,587,,left,green,1.17,503.7604501247406,504.15894317626953,,,2,PM,1,lightness,readingArea,realistic,75,2023-03-13_14h30.10.942,tripletExp_regina_11082022,2022.2.4,119.67313398767403,
9,3,0,0,0.444444444444444,1.0,0,0.444444444444444,0.298245614035088,0,0.027777777777778,0.298245614035088,ReadingArea_rsl0-rcl44-esl100-rsm0-rcm44-esm29-rsr0-rcr2-esr29,exr/ReadingArea_rsl0-rcl44-esl100-rsm0-rcm44-esm29-rsr0-rcr2-esr29.exr,ReadingArea_rsl0-rcl44-esl100-rsm0-rcm44-esm29-rsr0-rcr2-esr29.npz,,,,,0,130,130,120,,left,green,0.89,505.8503391742706,506.23624300956726,,,2,PM,1,lightness,readingArea,realistic,75,2023-03-13_14h30.10.942,tripletExp_regina_11082022,2022.2.4,119.67313398767403,
6,13,5,0,0.027777777777778,1.0,0,0.111111111111111,3.10526315789474,0,1.0,0.298245614035088,ReadingArea_rsl0-rcl2-esl100-rsm0-rcm11-esm310-rsr0-rcr100-esr29,exr/ReadingArea_rsl0-rcl2-esl100-rsm0-rcm11-esm310-rsr0-rcr100-esr29.exr,ReadingArea_rsl0-rcl2-esl100-rsm0-rcm11-esm310-rsr0-rcr100-esr29.npz,,,,,0,131,131,53,,right,red,0.77,507.9560611248016,508.3154001235962,,,2,PM,1,lightness,readingArea,realistic,75,2023-03-13_14h30.10.942,tripletExp_regina_11082022,2022.2.4,119.67313398767403,
6,7,3,0,0.027777777777778,1.0,0,0.111111111111111,1.0,0,0.444444444444444,0.298245614035088,ReadingArea_rsl0-rcl2-esl100-rsm0-rcm11-esm100-rsr0-rcr44-esr29,exr/ReadingArea_rsl0-rcl2-esl100-rsm0-rcm11-esm100-rsr0-rcr44-esr29.exr,ReadingArea_rsl0-rcl2-esl100-rsm0-rcm11-esm100-rsr0-rcr44-esr29.npz,,,,,0,132,132,47,,right,red,0.77,510.0188171863556,510.4069011211395,,,2,PM,1,lightness,readingArea,realistic,75,2023-03-13_14h30.10.942,tripletExp_regina_11082022,2022.2.4,119.67313398767403,
14,2,1,0,0.25,3.10526315789474,0,0.25,0.298245614035088,0,0.111111111111111,0.298245614035088,ReadingArea_rsl0-rcl25-esl310-rsm0-rcm25-esm29-rsr0-rcr11-esr29,exr/ReadingArea_rsl0-rcl25-esl310-rsm0-rcm25-esm29-rsr0-rcr11-esr29.exr,ReadingArea_rsl0-rcl25-esl310-rsm0-rcm25-esm29-rsr0-rcr11-esr29.npz,,,,,0,133,133,321,,right,red,1.01,512.1159610748291,512.4473111629486,,,2,PM,1,lightness,readingArea,realistic,75,2023-03-13_14h30.10.942,tripletExp_regina_11082022,2022.2.4,119.67313398767403,
2,1,13,0,0.25,0.298245614035088,0,0.111111111111111,0.298245614035088,0,0.111111111111111,3.10526315789474,ReadingArea_rsl0-rcl25-esl29-rsm0-rcm11-esm29-rsr0-rcr11-esr310,exr/ReadingArea_rsl0-rcl25-esl29-rsm0-rcm11-esm29-rsr0-rcr11-esr310.exr,ReadingArea_rsl0-rcl25-esl29-rsm0-rcm11-esm29-rsr0-rcr11-esr310.npz,,,,,0,134,134,290,,left,green,0.71,514.1349241733551,514.4948961734772,,,2,PM,1,lightness,readingArea,realistic,75,2023-03-13_14h30.10.942,tripletExp_regina_11082022,2022.2.4,119.67313398767403,
7,9,3,0,0.111111111111111,1.0,0,0.444444444444444,1.0,0,0.444444444444444,0.298245614035088,ReadingArea_rsl0-rcl11-esl100-rsm0-rcm44-esm100-rsr0-rcr44-esr29,exr/ReadingArea_rsl0-rcl11-esl100-rsm0-rcm44-esm100-rsr0-rcr44-esr29.exr,ReadingArea_rsl0-rcl11-esl100-rsm0-rcm44-esm100-rsr0-rcr44-esr29.npz,,,,,0,135,135,311,,right,red,0.93,516.1967890262604,516.5585861206055,,,2,PM,1,lightness,readingArea,realistic,75,2023-03-13_14h30.10.942,tripletExp_regina_11082022,2022.2.4,119.67313398767403,
11,0,12,0,1.0,1.0,0,0.027777777777778,0.298245614035088,0,0.027777777777778,3.10526315789474,ReadingArea_rsl0-rcl100-esl100-rsm0-rcm2-esm29-rsr0-rcr2-esr310,exr/ReadingArea_rsl0-rcl100-esl100-rsm0-rcm2-esm29-rsr0-rcr2-esr310.exr,ReadingArea_rsl0-rcl100-esl100-rsm0-rcm2-esm29-rsr0-rcr2-esr310.npz,,,,,0,136,136,166,,right,red,0.79,518.2583420276642,518.6125090122223,,,2,PM,1,lightness,readingArea,realistic,75,2023-03-13_14h30.10.942,tripletExp_regina_11082022,2022.2.4,119.67313398767403,
0,9,10,0,0.027777777777778,0.298245614035088,0,0.444444444444444,1.0,0,0.694444444444444,1.0,ReadingArea_rsl0-rcl2-esl29-rsm0-rcm44-esm100-rsr0-rcr69-esr100,exr/ReadingArea_rsl0-rcl2-esl29-rsm0-rcm44-esm100-rsr0-rcr69-esr100.exr,ReadingArea_rsl0-rcl2-esl29-rsm0-rcm44-esm100-rsr0-rcr69-esr100.npz,,,,,0,137,137,434,,right,red,0.63,520.3095300197601,,,,2,PM,1,lightness,readingArea,realistic,75,2023-03-13_14h30.10.942,tripletExp_regina_11082022,2022.2.4,119.67313398767403,
14,8,1,0,0.25,3.10526315789474,0,0.25,1.0,0,0.111111111111111,0.298245614035088,ReadingArea_rsl0-rcl25-esl310-rsm0-rcm25-esm100-rsr0-rcr11-esr29,exr/ReadingArea_rsl0-rcl25-esl310-rsm0-rcm25-esm100-rsr0-rcr11-esr29.exr,ReadingArea_rsl0-rcl25-esl310-rsm0-rcm25-esm100-rsr0-rcr11-esr29.npz,,,,,0,138,138,141,,right,red,1.55,522.3857970237732,522.7541680335999,,,2,PM,1,lightness,readingArea,realistic,75,2023-03-13_14h30.10.942,tripletExp_regina_11082022,2022.2.4,119.67313398767403,
14,3,6,0,0.25,3.10526315789474,0,0.444444444444444,0.298245614035088,0,0.027777777777778,1.0,ReadingArea_rsl0-rcl25-esl310-rsm0-rcm44-esm29-rsr0-rcr2-esr100,exr/ReadingArea_rsl0-rcl25-esl310-rsm0-rcm44-esm29-rsr0-rcr2-esr100.exr,ReadingArea_rsl0-rcl25-esl310-rsm0-rcm44-esm29-rsr0-rcr2-esr100.npz,,,,,0,139,139,244,,right,red,0.92,524.4498569965363,524.8136610984802,,,2,PM,1,lightness,readingArea,realistic,75,2023-03-13_14h30.10.942,tripletExp_regina_11082022,2022.2.4,119.67313398767403,
2,3,4,0,0.25,0.298245614035088,0,0.444444444444444,0.298245614035088,0,0.694444444444444,0.298245614035088,ReadingArea_rsl0-rcl25-esl29-rsm0-rcm44-esm29-rsr0-rcr69-esr29,exr/ReadingArea_rsl0-rcl25-esl29-rsm0-rcm44-esm29-rsr0-rcr69-esr29.exr,ReadingArea_rsl0-rcl25-esl29-rsm0-rcm44-esm29-rsr0-rcr69-esr29.npz,,,,,0,140,140,61,,left,green,0.93,526.5305252075195,526.8955371379852,,,2,PM,1,lightness,readingArea,realistic,75,2023-03-13_14h30.10.942,tripletExp_regina_11082022,2022.2.4,119.67313398767403,
14,0,3,0,0.25,3.10526315789474,0,0.027777777777778,0.298245614035088,0,0.444444444444444,0.298245614035088,ReadingArea_rsl0-rcl25-esl310-rsm0-rcm2-esm29-rsr0-rcr44-esr29,exr/ReadingArea_rsl0-rcl25-esl310-rsm0-rcm2-esm29-rsr0-rcr44-esr29.exr,ReadingArea_rsl0-rcl25-esl310-rsm0-rcm2-esm29-rsr0-rcr44-esr29.npz,,,,,0,141,141,75,,right,red,1.25,528.6023800373077,,,,2,PM,1,lightness,readingArea,realistic,75,2023-03-13_14h30.10.942,tripletExp_regina_11082022,2022.2.4,119.67313398767403,
1,8,12,0,0.111111111111111,0.298245614035088,0,0.25,1.0,0,0.027777777777778,3.10526315789474,ReadingArea_rsl0-rcl11-esl29-rsm0-rcm25-esm100-rsr0-rcr2-esr310,exr/ReadingArea_rsl0-rcl11-esl29-rsm0-rcm25-esm100-rsr0-rcr2-esr310.exr,ReadingArea_rsl0-rcl11-esl29-rsm0-rcm25-esm100-rsr0-rcr2-esr310.npz,,,,,0,142,142,156,,right,red,1.49,530.6767020225525,531.030678987503,,,2,PM,1,lightness,readingArea,realistic,75,2023-03-13_14h30.10.942,tripletExp_regina_11082022,2022.2.4,119.67313398767403,
2,6,10,0,0.25,0.298245614035088,0,0.027777777777778,1.0,0,0.694444444444444,1.0,ReadingArea_rsl0-rcl25-esl29-rsm0-rcm2-esm100-rsr0-rcr69-esr100,exr/ReadingArea_rsl0-rcl25-esl29-rsm0-rcm2-esm100-rsr0-rcr69-esr100.exr,ReadingArea_rsl0-rcl25-esl29-rsm0-rcm2-esm100-rsr0-rcr69-esr100.npz,,,,,0,143,143,42,,left,green,1.23,532.7351281642914,533.067754983902,,,2,PM,1,lightness,readingArea,realistic,75,2023-03-13_14h30.10.942,tripletExp_regina_11082022,2022.2.4,119.67313398767403,
13,1,4,0,0.111111111111111,3.10526315789474,0,0.111111111111111,0.298245614035088,0,0.694444444444444,0.298245614035088,ReadingArea_rsl0-rcl11-esl310-rsm0-rcm11-esm29-rsr0-rcr69-esr29,exr/ReadingArea_rsl0-rcl11-esl310-rsm0-rcm11-esm29-rsr0-rcr69-esr29.exr,ReadingArea_rsl0-rcl11-esl310-rsm0-rcm11-esm29-rsr0-rcr69-esr29.npz,,,,,0,144,144,396,,right,red,2.64,536.5456922054291,,,,2,PM,1,lightness,readingArea,realistic,75,2023-03-13_14h30.10.942,tripletExp_regina_11082022,2022.2.4,119.67313398767403,
3,12,14,0,0.444444444444444,0.298245614035088,0,0.027777777777778,3.10526315789474,0,0.25,3.10526315789474,ReadingArea_rsl0-rcl44-esl29-rsm0-rcm2-esm310-rsr0-rcr25-esr310,exr/ReadingArea_rsl0-rcl44-esl29-rsm0-rcm2-esm310-rsr0-rcr25-esr310.exr,ReadingArea_rsl0-rcl44-esl29-rsm0-rcm2-esm310-rsr0-rcr25-esr310.npz,,,,,0,145,145,16,,left,green,0.71,538.6033191680908,538.956817150116,,,2,PM,1,lightness,readingArea,realistic,75,2023-03-13_14h30.10.942,tripletExp_regina_11082022,2022.2.4,119.67313398767403,
1,12,10,0,0.111111111111111,0.298245614035088,0,0.027777777777778,3.10526315789474,0,0.694444444444444,1.0,ReadingArea_rsl0-rcl11-esl29-rsm0-rcm2-esm310-rsr0-rcr69-esr100,exr/ReadingArea_rsl0-rcl11-esl29-rsm0-rcm2-esm310-rsr0-rcr69-esr100.exr,ReadingArea_rsl0-rcl11-esl29-rsm0-rcm2-esm310-rsr0-rcr69-esr100.npz,,,,,0,146,146,567,,left,green,0.57,540.6541180610657,541.0064301490784,,,2,PM,1,lightness,readingArea,realistic,75,2023-03-13_14h30.10.942,tripletExp_regina_11082022,2022.2.4,119.67313398767403,
1,12,11,0,0.111111111111111,0.298245614035088,0,0.027777777777778,3.10526315789474,0,1.0,1.0,ReadingArea_rsl0-rcl11-esl29-rsm0-rcm2-esm310-rsr0-rcr100-esr100,exr/ReadingArea_rsl0-rcl11-esl29-rsm0-rcm2-esm310-rsr0-rcr100-esr100.exr,ReadingArea_rsl0-rcl11-esl29-rsm0-rcm2-esm310-rsr0-rcr100-esr100.npz,,,,,0,147,147,178,,left,green,0.59,542.7043180465698,543.0636200904846,,,2,PM,1,lightness,readingArea,realistic,75,2023-03-13_14h30.10.942,tripletExp_regina_11082022,2022.2.4,119.67313398767403,
7,12,1,0,0.111111111111111,1.0,0,0.027777777777778,3.10526315789474,0,0.111111111111111,0.298245614035088,ReadingArea_rsl0-rcl11-esl100-rsm0-rcm2-esm310-rsr0-rcr11-esr29,exr/ReadingArea_rsl0-rcl11-esl100-rsm0-rcm2-esm310-rsr0-rcr11-esr29.exr,ReadingArea_rsl0-rcl11-esl100-rsm0-rcm2-esm310-rsr0-rcr11-esr29.npz,,,,,0,148,148,20,,left,green,0.71,544.7691450119019,545.1434481143951,,,2,PM,1,lightness,readingArea,realistic,75,2023-03-13_14h30.10.942,tripletExp_regina_11082022,2022.2.4,119.67313398767403,
0,11,9,0,0.027777777777778,0.298245614035088,0,1.0,1.0,0,0.444444444444444,1.0,ReadingArea_rsl0-rcl2-esl29-rsm0-rcm100-esm100-rsr0-rcr44-esr100,exr/ReadingArea_rsl0-rcl2-esl29-rsm0-rcm100-esm100-rsr0-rcr44-esr100.exr,ReadingArea_rsl0-rcl2-esl29-rsm0-rcm100-esm100-rsr0-rcr44-esr100.npz,,,,,0,149,149,32,,right,red,0.79,546.8481240272522,547.054211139679,,,2,PM,1,lightness,readingArea,realistic,75,2023-03-13_14h30.10.942,tripletExp_regina_11082022,2022.2.4,119.67313398767403,
14,9,12,0,0.25,3.10526315789474,0,0.444444444444444,1.0,0,0.027777777777778,3.10526315789474,ReadingArea_rsl0-rcl25-esl310-rsm0-rcm44-esm100-rsr0-rcr2-esr310,exr/ReadingArea_rsl0-rcl25-esl310-rsm0-rcm44-esm100-rsr0-rcr2-esr310.exr,ReadingArea_rsl0-rcl25-esl310-rsm0-rcm44-esm100-rsr0-rcr2-esr310.npz,,,,,0,150,150,378,,left,green,0.73,557.3141281604767,557.6831700801849,,,3,PM,1,lightness,readingArea,realistic,75,2023-03-13_14h30.10.942,tripletExp_regina_11082022,2022.2.4,119.67313398767403,
13,9,6,0,0.111111111111111,3.10526315789474,0,0.444444444444444,1.0,0,0.027777777777778,1.0,ReadingArea_rsl0-rcl11-esl310-rsm0-rcm44-esm100-rsr0-rcr2-esr100,exr/ReadingArea_rsl0-rcl11-esl310-rsm0-rcm44-esm100-rsr0-rcr2-esr100.exr,ReadingArea_rsl0-rcl11-esl310-rsm0-rcm44-esm100-rsr0-rcr2-esr100.npz,,,,,0,151,151,19,,left,green,0.62,559.3977420330048,559.7578980922699,,,3,PM,1,lightness,readingArea,realistic,75,2023-03-13_14h30.10.942,tripletExp_regina_11082022,2022.2.4,119.67313398767403,
9,7,2,0,0.444444444444444,1.0,0,0.111111111111111,1.0,0,0.25,0.298245614035088,ReadingArea_rsl0-rcl44-esl100-rsm0-rcm11-esm100-rsr0-rcr25-esr29,exr/ReadingArea_rsl0-rcl44-esl100-rsm0-rcm11-esm100-rsr0-rcr25-esr29.exr,ReadingArea_rsl0-rcl44-esl100-rsm0-rcm11-esm100-rsr0-rcr25-esr29.npz,,,,,0,152,152,428,,right,red,0.74,561.4722971916199,561.8349161148071,,,3,PM,1,lightness,readingArea,realistic,75,2023-03-13_14h30.10.942,tripletExp_regina_11082022,2022.2.4,119.67313398767403,
7,5,11,0,0.111111111111111,1.0,0,1.0,0.298245614035088,0,1.0,1.0,ReadingArea_rsl0-rcl11-esl100-rsm0-rcm100-esm29-rsr0-rcr100-esr100,exr/ReadingArea_rsl0-rcl11-esl100-rsm0-rcm100-esm29-rsr0-rcr100-esr100.exr,ReadingArea_rsl0-rcl11-esl100-rsm0-rcm100-esm29-rsr0-rcr100-esr100.npz,,,,,0,153,153,10,,left,green,1.33,563.54833817482,563.9126441478729,,,3,PM,1,lightness,readingArea,realistic,75,2023-03-13_14h30.10.942,tripletExp_regina_11082022,2022.2.4,119.67313398767403,
13,8,5,0,0.111111111111111,3.10526315789474,0,0.25,1.0,0,1.0,0.298245614035088,ReadingArea_rsl0-rcl11-esl310-rsm0-rcm25-esm100-rsr0-rcr100-esr29,exr/ReadingArea_rsl0-rcl11-esl310-rsm0-rcm25-esm100-rsr0-rcr100-esr29.exr,ReadingArea_rsl0-rcl11-esl310-rsm0-rcm25-esm100-rsr0-rcr100-esr29.npz,,,,,0,154,154,209,,right,red,1.52,565.6242570877075,566.004369020462,,,3,PM,1,lightness,readingArea,realistic,75,2023-03-13_14h30.10.942,tripletExp_regina_11082022,2022.2.4,119.67313398767403,
11,0,6,0,1.0,1.0,0,0.027777777777778,0.298245614035088,0,0.027777777777778,1.0,ReadingArea_rsl0-rcl100-esl100-rsm0-rcm2-esm29-rsr0-rcr2-esr100,exr/ReadingArea_rsl0-rcl100-esl100-rsm0-rcm2-esm29-rsr0-rcr2-esr100.exr,ReadingArea_rsl0-rcl100-esl100-rsm0-rcm2-esm29-rsr0-rcr2-esr100.npz,,,,,0,155,155,586,,right,red,0.68,567.7107560634613,568.0745751857758,,,3,PM,1,lightness,readingArea,realistic,75,2023-03-13_14h30.10.942,tripletExp_regina_11082022,2022.2.4,119.67313398767403,
11,12,1,0,1.0,1.0,0,0.027777777777778,3.10526315789474,0,0.111111111111111,0.298245614035088,ReadingArea_rsl0-rcl100-esl100-rsm0-rcm2-esm310-rsr0-rcr11-esr29,exr/ReadingArea_rsl0-rcl100-esl100-rsm0-rcm2-esm310-rsr0-rcr11-esr29.exr,ReadingArea_rsl0-rcl100-esl100-rsm0-rcm2-esm310-rsr0-rcr11-esr29.npz,,,,,0,156,156,140,,right,red,0.77,569.7672991752625,,,,3,PM,1,lightness,readingArea,realistic,75,2023-03-13_14h30.10.942,tripletExp_regina_11082022,2022.2.4,119.67313398767403,
2,13,0,0,0.25,0.298245614035088,0,0.111111111111111,3.10526315789474,0,0.027777777777778,0.298245614035088,ReadingArea_rsl0-rcl25-esl29-rsm0-rcm11-esm310-rsr0-rcr2-esr29,exr/ReadingArea_rsl0-rcl25-esl29-rsm0-rcm11-esm310-rsr0-rcr2-esr29.exr,ReadingArea_rsl0-rcl25-esl29-rsm0-rcm11-esm310-rsr0-rcr2-esr29.npz,,,,,0,157,157,454,,left,green,1.17,571.8359022140503,572.1744301319122,,,3,PM,1,lightness,readingArea,realistic,75,2023-03-13_14h30.10.942,tripletExp_regina_11082022,2022.2.4,119.67313398767403,
6,1,14,0,0.027777777777778,1.0,0,0.111111111111111,0.298245614035088,0,0.25,3.10526315789474,ReadingArea_rsl0-rcl2-esl100-rsm0-rcm11-esm29-rsr0-rcr25-esr310,exr/ReadingArea_rsl0-rcl2-esl100-rsm0-rcm11-esm29-rsr0-rcr25-esr310.exr,ReadingArea_rsl0-rcl2-esl100-rsm0-rcm11-esm29-rsr0-rcr25-esr310.npz,,,,,0,158,158,381,,left,green,0.67,573.8610031604767,574.2306799888611,,,3,PM,1,lightness,readingArea,realistic,75,2023-03-13_14h30.10.942,tripletExp_regina_11082022,2022.2.4,119.67313398767403,
14,3,2,0,0.25,3.10526315789474,0,0.444444444444444,0.298245614035088,0,0.25,0.298245614035088,ReadingArea_rsl0-rcl25-esl310-rsm0-rcm44-esm29-rsr0-rcr25-esr29,exr/ReadingArea_rsl0-rcl25-esl310-rsm0-rcm44-esm29-rsr0-rcr25-esr29.exr,ReadingArea_rsl0-rcl25-esl310-rsm0-rcm44-esm29-rsr0-rcr25-esr29.npz,,,,,0,159,159,52,,right,red,0.67,575.9256341457367,576.2668042182922,,,3,PM,1,lightness,readingArea,realistic,75,2023-03-13_14h30.10.942,tripletExp_regina_11082022,2022.2.4,119.67313398767403,
5,4,1,0,1.0,0.298245614035088,0,0.694444444444444,0.298245614035088,0,0.111111111111111,0.298245614035088,ReadingArea_rsl0-rcl100-esl29-rsm0-rcm69-esm29-rsr0-rcr11-esr29,exr/ReadingArea_rsl0-rcl100-esl29-rsm0-rcm69-esm29-rsr0-rcr11-esr29.exr,ReadingArea_rsl0-rcl100-esl29-rsm0-rcm69-esm29-rsr0-rcr11-esr29.npz,,,,,0,160,160,560,,left,green,0.72,577.9866330623627,578.3623130321503,,,3,PM,1,lightness,readingArea,realistic,75,2023-03-13_14h30.10.942,tripletExp_regina_11082022,2022.2.4,119.67313398767403,
7,2,6,0,0.111111111111111,1.0,0,0.25,0.298245614035088,0,0.027777777777778,1.0,ReadingArea_rsl0-rcl11-esl100-rsm0-rcm25-esm29-rsr0-rcr2-esr100,exr/ReadingArea_rsl0-rcl11-esl100-rsm0-rcm25-esm29-rsr0-rcr2-esr100.exr,ReadingArea_rsl0-rcl11-esl100-rsm0-rcm25-esm29-rsr0-rcr2-esr100.npz,,,,,0,161,161,506,,left,green,0.66,580.0851011276245,580.4446601867676,,,3,PM,1,lightness,readingArea,realistic,75,2023-03-13_14h30.10.942,tripletExp_regina_11082022,2022.2.4,119.67313398767403,
10,8,11,0,0.694444444444444,1.0,0,0.25,1.0,0,1.0,1.0,ReadingArea_rsl0-rcl69-esl100-rsm0-rcm25-esm100-rsr0-rcr100-esr100,exr/ReadingArea_rsl0-rcl69-esl100-rsm0-rcm25-esm100-rsr0-rcr100-esr100.exr,ReadingArea_rsl0-rcl69-esl100-rsm0-rcm25-esm100-rsr0-rcr100-esr100.npz,,,,,0,162,162,578,,left,green,1.27,582.1483201980591,582.5136120319366,,,3,PM,1,lightness,readingArea,realistic,75,2023-03-13_14h30.10.942,tripletExp_regina_11082022,2022.2.4,119.67313398767403,
0,5,6,0,0.027777777777778,0.298245614035088,0,1.0,0.298245614035088,0,0.027777777777778,1.0,ReadingArea_rsl0-rcl2-esl29-rsm0-rcm100-esm29-rsr0-rcr2-esr100,exr/ReadingArea_rsl0-rcl2-esl29-rsm0-rcm100-esm29-rsr0-rcr2-esr100.exr,ReadingArea_rsl0-rcl2-esl29-rsm0-rcm100-esm29-rsr0-rcr2-esr100.npz,,,,,0,163,163,374,,right,red,0.99,584.2140421867371,584.5853571891785,,,3,PM,1,lightness,readingArea,realistic,75,2023-03-13_14h30.10.942,tripletExp_regina_11082022,2022.2.4,119.67313398767403,
11,10,0,0,1.0,1.0,0,0.694444444444444,1.0,0,0.027777777777778,0.298245614035088,ReadingArea_rsl0-rcl100-esl100-rsm0-rcm69-esm100-rsr0-rcr2-esr29,exr/ReadingArea_rsl0-rcl100-esl100-rsm0-rcm69-esm100-rsr0-rcr2-esr29.exr,ReadingArea_rsl0-rcl100-esl100-rsm0-rcm69-esm100-rsr0-rcr2-esr29.npz,,,,,0,164,164,549,,left,green,1.06,586.3007102012634,586.6645200252533,,,3,PM,1,lightness,readingArea,realistic,75,2023-03-13_14h30.10.942,tripletExp_regina_11082022,2022.2.4,119.67313398767403,
2,8,4,0,0.25,0.298245614035088,0,0.25,1.0,0,0.694444444444444,0.298245614035088,ReadingArea_rsl0-rcl25-esl29-rsm0-rcm25-esm100-rsr0-rcr69-esr29,exr/ReadingArea_rsl0-rcl25-esl29-rsm0-rcm25-esm100-rsr0-rcr69-esr29.exr,ReadingArea_rsl0-rcl25-esl29-rsm0-rcm25-esm100-rsr0-rcr69-esr29.npz,,,,,0,165,165,507,,right,red,2.32,590.1343250274658,590.4933149814606,,,3,PM,1,lightness,readingArea,realistic,75,2023-03-13_14h30.10.942,tripletExp_regina_11082022,2022.2.4,119.67313398767403,
1,11,14,0,0.111111111111111,0.298245614035088,0,1.0,1.0,0,0.25,3.10526315789474,ReadingArea_rsl0-rcl11-esl29-rsm0-rcm100-esm100-rsr0-rcr25-esr310,exr/ReadingArea_rsl0-rcl11-esl29-rsm0-rcm100-esm100-rsr0-rcr25-esr310.exr,ReadingArea_rsl0-rcl11-esl29-rsm0-rcm100-esm100-rsr0-rcr25-esr310.npz,,,,,0,166,166,399,,right,red,0.68,592.1794941425323,,,,3,PM,1,lightness,readingArea,realistic,75,2023-03-13_14h30.10.942,tripletExp_regina_11082022,2022.2.4,119.67313398767403,
11,13,8,0,1.0,1.0,0,0.111111111111111,3.10526315789474,0,0.25,1.0,ReadingArea_rsl0-rcl100-esl100-rsm0-rcm11-esm310-rsr0-rcr25-esr100,exr/ReadingArea_rsl0-rcl100-esl100-rsm0-rcm11-esm310-rsr0-rcr25-esr100.exr,ReadingArea_rsl0-rcl100-esl100-rsm0-rcm11-esm310-rsr0-rcr25-esr100.npz,,,,,0,167,167,198,,right,red,1.34,594.2708461284637,,,,3,PM,1,lightness,readingArea,realistic,75,2023-03-13_14h30.10.942,tripletExp_regina_11082022,2022.2.4,119.67313398767403,
10,4,8,0,0.694444444444444,1.0,0,0.694444444444444,0.298245614035088,0,0.25,1.0,ReadingArea_rsl0-rcl69-esl100-rsm0-rcm69-esm29-rsr0-rcr25-esr100,exr/ReadingArea_rsl0-rcl69-esl100-rsm0-rcm69-esm29-rsr0-rcr25-esr100.exr,ReadingArea_rsl0-rcl69-esl100-rsm0-rcm69-esm29-rsr0-rcr25-esr100.npz,,,,,0,168,168,562,,right,red,0.9,596.3346440792084,596.6962230205536,,,3,PM,1,lightness,readingArea,realistic,75,2023-03-13_14h30.10.942,tripletExp_regina_11082022,2022.2.4,119.67313398767403,
3,13,12,0,0.444444444444444,0.298245614035088,0,0.111111111111111,3.10526315789474,0,0.027777777777778,3.10526315789474,ReadingArea_rsl0-rcl44-esl29-rsm0-rcm11-esm310-rsr0-rcr2-esr310,exr/ReadingArea_rsl0-rcl44-esl29-rsm0-rcm11-esm310-rsr0-rcr2-esr310.exr,ReadingArea_rsl0-rcl44-esl29-rsm0-rcm11-esm310-rsr0-rcr2-esr310.npz,,,,,0,169,169,34,,left,green,1.48,598.4037511348724,598.7619960308075,,,3,PM,1,lightness,readingArea,realistic,75,2023-03-13_14h30.10.942,tripletExp_regina_11082022,2022.2.4,119.67313398767403,
9,7,3,0,0.444444444444444,1.0,0,0.111111111111111,1.0,0,0.444444444444444,0.298245614035088,ReadingArea_rsl0-rcl44-esl100-rsm0-rcm11-esm100-rsr0-rcr44-esr29,exr/ReadingArea_rsl0-rcl44-esl100-rsm0-rcm11-esm100-rsr0-rcr44-esr29.exr,ReadingArea_rsl0-rcl44-esl100-rsm0-rcm11-esm100-rsr0-rcr44-esr29.npz,,,,,0,170,170,235,,right,red,1.01,600.4754641056061,600.8621211051941,,,3,PM,1,lightness,readingArea,realistic,75,2023-03-13_14h30.10.942,tripletExp_regina_11082022,2022.2.4,119.67313398767403,
8,6,11,0,0.25,1.0,0,0.027777777777778,1.0,0,1.0,1.0,ReadingArea_rsl0-rcl25-esl100-rsm0-rcm2-esm100-rsr0-rcr100-esr100,exr/ReadingArea_rsl0-rcl25-esl100-rsm0-rcm2-esm100-rsr0-rcr100-esr100.exr,ReadingArea_rsl0-rcl25-esl100-rsm0-rcm2-esm100-rsr0-rcr100-esr100.npz,,,,,0,171,171,236,,left,green,1.42,602.5729131698608,,,,3,PM,1,lightness,readingArea,realistic,75,2023-03-13_14h30.10.942,tripletExp_regina_11082022,2022.2.4,119.67313398767403,
7,4,6,0,0.111111111111111,1.0,0,0.694444444444444,0.298245614035088,0,0.027777777777778,1.0,ReadingArea_rsl0-rcl11-esl100-rsm0-rcm69-esm29-rsr0-rcr2-esr100,exr/ReadingArea_rsl0-rcl11-esl100-rsm0-rcm69-esm29-rsr0-rcr2-esr100.exr,ReadingArea_rsl0-rcl11-esl100-rsm0-rcm69-esm29-rsr0-rcr2-esr100.npz,,,,,0,172,172,528,,left,green,0.89,604.6419320106506,605.0265400409698,,,3,PM,1,lightness,readingArea,realistic,75,2023-03-13_14h30.10.942,tripletExp_regina_11082022,2022.2.4,119.67313398767403,
0,14,8,0,0.027777777777778,0.298245614035088,0,0.25,3.10526315789474,0,0.25,1.0,ReadingArea_rsl0-rcl2-esl29-rsm0-rcm25-esm310-rsr0-rcr25-esr100,exr/ReadingArea_rsl0-rcl2-esl29-rsm0-rcm25-esm310-rsr0-rcr25-esr100.exr,ReadingArea_rsl0-rcl2-esl29-rsm0-rcm25-esm310-rsr0-rcr25-esr100.npz,,,,,0,173,173,545,,right,red,0.78,606.7287931442261,607.0949141979218,,,3,PM,1,lightness,readingArea,realistic,75,2023-03-13_14h30.10.942,tripletExp_regina_11082022,2022.2.4,119.67313398767403,
0,13,1,0,0.027777777777778,0.298245614035088,0,0.111111111111111,3.10526315789474,0,0.111111111111111,0.298245614035088,ReadingArea_rsl0-rcl2-esl29-rsm0-rcm11-esm310-rsr0-rcr11-esr29,exr/ReadingArea_rsl0-rcl2-esl29-rsm0-rcm11-esm310-rsr0-rcr11-esr29.exr,ReadingArea_rsl0-rcl2-esl29-rsm0-rcm11-esm310-rsr0-rcr11-esr29.npz,,,,,0,174,174,458,,right,red,1.1,608.7915329933167,609.1325151920319,,,3,PM,1,lightness,readingArea,realistic,75,2023-03-13_14h30.10.942,tripletExp_regina_11082022,2022.2.4,119.67313398767403,
13,3,14,0,0.111111111111111,3.10526315789474,0,0.444444444444444,0.298245614035088,0,0.25,3.10526315789474,ReadingArea_rsl0-rcl11-esl310-rsm0-rcm44-esm29-rsr0-rcr25-esr310,exr/ReadingArea_rsl0-rcl11-esl310-rsm0-rcm44-esm29-rsr0-rcr25-esr310.exr,ReadingArea_rsl0-rcl11-esl310-rsm0-rcm44-esm29-rsr0-rcr25-esr310.npz,,,,,0,175,175,38,,left,green,0.76,610.8309171199799,611.1966052055359,,,3,PM,1,lightness,readingArea,realistic,75,2023-03-13_14h30.10.942,tripletExp_regina_11082022,2022.2.4,119.67313398767403,
7,14,10,0,0.111111111111111,1.0,0,0.25,3.10526315789474,0,0.694444444444444,1.0,ReadingArea_rsl0-rcl11-esl100-rsm0-rcm25-esm310-rsr0-rcr69-esr100,exr/ReadingArea_rsl0-rcl11-esl100-rsm0-rcm25-esm310-rsr0-rcr69-esr100.exr,ReadingArea_rsl0-rcl11-esl100-rsm0-rcm25-esm310-rsr0-rcr69-esr100.npz,,,,,0,176,176,472,,right,red,1.22,612.9016680717468,613.2639770507812,,,3,PM,1,lightness,readingArea,realistic,75,2023-03-13_14h30.10.942,tripletExp_regina_11082022,2022.2.4,119.67313398767403,
2,12,6,0,0.25,0.298245614035088,0,0.027777777777778,3.10526315789474,0,0.027777777777778,1.0,ReadingArea_rsl0-rcl25-esl29-rsm0-rcm2-esm310-rsr0-rcr2-esr100,exr/ReadingArea_rsl0-rcl25-esl29-rsm0-rcm2-esm310-rsr0-rcr2-esr100.exr,ReadingArea_rsl0-rcl25-esl29-rsm0-rcm2-esm310-rsr0-rcr2-esr100.npz,,,,,0,177,177,400,,left,green,0.64,614.9855740070343,615.3739991188049,,,3,PM,1,lightness,readingArea,realistic,75,2023-03-13_14h30.10.942,tripletExp_regina_11082022,2022.2.4,119.67313398767403,
6,1,9,0,0.027777777777778,1.0,0,0.111111111111111,0.298245614035088,0,0.444444444444444,1.0,ReadingArea_rsl0-rcl2-esl100-rsm0-rcm11-esm29-rsr0-rcr44-esr100,exr/ReadingArea_rsl0-rcl2-esl100-rsm0-rcm11-esm29-rsr0-rcr44-esr100.exr,ReadingArea_rsl0-rcl2-esl100-rsm0-rcm11-esm29-rsr0-rcr44-esr100.npz,,,,,0,178,178,74,,left,green,0.65,617.0754020214081,617.4185450077057,,,3,PM,1,lightness,readingArea,realistic,75,2023-03-13_14h30.10.942,tripletExp_regina_11082022,2022.2.4,119.67313398767403,
6,10,11,0,0.027777777777778,1.0,0,0.694444444444444,1.0,0,1.0,1.0,ReadingArea_rsl0-rcl2-esl100-rsm0-rcm69-esm100-rsr0-rcr100-esr100,exr/ReadingArea_rsl0-rcl2-esl100-rsm0-rcm69-esm100-rsr0-rcr100-esr100.exr,ReadingArea_rsl0-rcl2-esl100-rsm0-rcm69-esm100-rsr0-rcr100-esr100.npz,,,,,0,179,179,116,,right,red,0.79,619.1322920322418,619.4892520904541,,,3,PM,1,lightness,readingArea,realistic,75,2023-03-13_14h30.10.942,tripletExp_regina_11082022,2022.2.4,119.67313398767403,
6,5,0,0,0.027777777777778,1.0,0,1.0,0.298245614035088,0,0.027777777777778,0.298245614035088,ReadingArea_rsl0-rcl2-esl100-rsm0-rcm100-esm29-rsr0-rcr2-esr29,exr/ReadingArea_rsl0-rcl2-esl100-rsm0-rcm100-esm29-rsr0-rcr2-esr29.exr,ReadingArea_rsl0-rcl2-esl100-rsm0-rcm100-esm29-rsr0-rcr2-esr29.npz,,,,,0,180,180,558,,left,green,0.98,621.2039520740509,621.5707681179047,,,3,PM,1,lightness,readingArea,realistic,75,2023-03-13_14h30.10.942,tripletExp_regina_11082022,2022.2.4,119.67313398767403,
3,14,5,0,0.444444444444444,0.298245614035088,0,0.25,3.10526315789474,0,1.0,0.298245614035088,ReadingArea_rsl0-rcl44-esl29-rsm0-rcm25-esm310-rsr0-rcr100-esr29,exr/ReadingArea_rsl0-rcl44-esl29-rsm0-rcm25-esm310-rsr0-rcr100-esr29.exr,ReadingArea_rsl0-rcl44-esl29-rsm0-rcm25-esm310-rsr0-rcr100-esr29.npz,,,,,0,181,181,131,,right,red,2.43,625.0681760311127,,,,3,PM,1,lightness,readingArea,realistic,75,2023-03-13_14h30.10.942,tripletExp_regina_11082022,2022.2.4,119.67313398767403,
10,14,13,0,0.694444444444444,1.0,0,0.25,3.10526315789474,0,0.111111111111111,3.10526315789474,ReadingArea_rsl0-rcl69-esl100-rsm0-rcm25-esm310-rsr0-rcr11-esr310,exr/ReadingArea_rsl0-rcl69-esl100-rsm0-rcm25-esm310-rsr0-rcr11-esr310.exr,ReadingArea_rsl0-rcl69-esl100-rsm0-rcm25-esm310-rsr0-rcr11-esr310.npz,,,,,0,182,182,168,,left,green,0.73,627.1372590065002,627.4790852069855,,,3,PM,1,lightness,readingArea,realistic,75,2023-03-13_14h30.10.942,tripletExp_regina_11082022,2022.2.4,119.67313398767403,
1,12,0,0,0.111111111111111,0.298245614035088,0,0.027777777777778,3.10526315789474,0,0.027777777777778,0.298245614035088,ReadingArea_rsl0-rcl11-esl29-rsm0-rcm2-esm310-rsr0-rcr2-esr29,exr/ReadingArea_rsl0-rcl11-esl29-rsm0-rcm2-esm310-rsr0-rcr2-esr29.exr,ReadingArea_rsl0-rcl11-esl29-rsm0-rcm2-esm310-rsr0-rcr2-esr29.npz,,,,,0,183,183,113,,left,green,1.06,629.1768901348114,,,,3,PM,1,lightness,readingArea,realistic,75,2023-03-13_14h30.10.942,tripletExp_regina_11082022,2022.2.4,119.67313398767403,
4,12,7,0,0.694444444444444,0.298245614035088,0,0.027777777777778,3.10526315789474,0,0.111111111111111,1.0,ReadingArea_rsl0-rcl69-esl29-rsm0-rcm2-esm310-rsr0-rcr11-esr100,exr/ReadingArea_rsl0-rcl69-esl29-rsm0-rcm2-esm310-rsr0-rcr11-esr100.exr,ReadingArea_rsl0-rcl69-esl29-rsm0-rcm2-esm310-rsr0-rcr11-esr100.npz,,,,,0,184,184,112,,right,red,2.27,633.0304870605469,633.3905260562897,,,3,PM,1,lightness,readingArea,realistic,75,2023-03-13_14h30.10.942,tripletExp_regina_11082022,2022.2.4,119.67313398767403,
11,7,13,0,1.0,1.0,0,0.111111111111111,1.0,0,0.111111111111111,3.10526315789474,ReadingArea_rsl0-rcl100-esl100-rsm0-rcm11-esm100-rsr0-rcr11-esr310,exr/ReadingArea_rsl0-rcl100-esl100-rsm0-rcm11-esm100-rsr0-rcr11-esr310.exr,ReadingArea_rsl0-rcl100-esl100-rsm0-rcm11-esm100-rsr0-rcr11-esr310.npz,,,,,0,185,185,431,,right,red,1.09,635.1040651798248,635.4438951015472,,,3,PM,1,lightness,readingArea,realistic,75,2023-03-13_14h30.10.942,tripletExp_regina_11082022,2022.2.4,119.67313398767403,
10,11,12,0,0.694444444444444,1.0,0,1.0,1.0,0,0.027777777777778,3.10526315789474,ReadingArea_rsl0-rcl69-esl100-rsm0-rcm100-esm100-rsr0-rcr2-esr310,exr/ReadingArea_rsl0-rcl69-esl100-rsm0-rcm100-esm100-rsr0-rcr2-esr310.exr,ReadingArea_rsl0-rcl69-esl100-rsm0-rcm100-esm100-rsr0-rcr2-esr310.npz,,,,,0,186,186,533,,left,green,0.64,637.1599380970001,637.4957962036133,,,3,PM,1,lightness,readingArea,realistic,75,2023-03-13_14h30.10.942,tripletExp_regina_11082022,2022.2.4,119.67313398767403,
6,12,8,0,0.027777777777778,1.0,0,0.027777777777778,3.10526315789474,0,0.25,1.0,ReadingArea_rsl0-rcl2-esl100-rsm0-rcm2-esm310-rsr0-rcr25-esr100,exr/ReadingArea_rsl0-rcl2-esl100-rsm0-rcm2-esm310-rsr0-rcr25-esr100.exr,ReadingArea_rsl0-rcl2-esl100-rsm0-rcm2-esm310-rsr0-rcr25-esr100.npz,,,,,0,187,187,186,,left,green,0.87,639.193953037262,639.5591831207275,,,3,PM,1,lightness,readingArea,realistic,75,2023-03-13_14h30.10.942,tripletExp_regina_11082022,2022.2.4,119.67313398767403,
12,0,2,0,0.027777777777778,3.10526315789474,0,0.027777777777778,0.298245614035088,0,0.25,0.298245614035088,ReadingArea_rsl0-rcl2-esl310-rsm0-rcm2-esm29-rsr0-rcr25-esr29,exr/ReadingArea_rsl0-rcl2-esl310-rsm0-rcm2-esm29-rsr0-rcr25-esr29.exr,ReadingArea_rsl0-rcl2-esl310-rsm0-rcm2-esm29-rsr0-rcr25-esr29.npz,,,,,0,188,188,77,,right,red,4.1,644.7990491390228,645.2612240314484,,,3,PM,1,lightness,readingArea,realistic,75,2023-03-13_14h30.10.942,tripletExp_regina_11082022,2022.2.4,119.67313398767403,
11,8,2,0,1.0,1.0,0,0.25,1.0,0,0.25,0.298245614035088,ReadingArea_rsl0-rcl100-esl100-rsm0-rcm25-esm100-rsr0-rcr25-esr29,exr/ReadingArea_rsl0-rcl100-esl100-rsm0-rcm25-esm100-rsr0-rcr25-esr29.exr,ReadingArea_rsl0-rcl100-esl100-rsm0-rcm25-esm100-rsr0-rcr25-esr29.npz,,,,,0,189,189,406,,right,red,0.81,646.9693470001221,647.3339231014252,,,3,PM,1,lightness,readingArea,realistic,75,2023-03-13_14h30.10.942,tripletExp_regina_11082022,2022.2.4,119.67313398767403,
13,7,11,0,0.111111111111111,3.10526315789474,0,0.111111111111111,1.0,0,1.0,1.0,ReadingArea_rsl0-rcl11-esl310-rsm0-rcm11-esm100-rsr0-rcr100-esr100,exr/ReadingArea_rsl0-rcl11-esl310-rsm0-rcm11-esm100-rsr0-rcr100-esr100.exr,ReadingArea_rsl0-rcl11-esl310-rsm0-rcm11-esm100-rsr0-rcr100-esr100.npz,,,,,0,190,190,121,,left,green,2.0,650.813618183136,,,,3,PM,1,lightness,readingArea,realistic,75,2023-03-13_14h30.10.942,tripletExp_regina_11082022,2022.2.4,119.67313398767403,
9,12,6,0,0.444444444444444,1.0,0,0.027777777777778,3.10526315789474,0,0.027777777777778,1.0,ReadingArea_rsl0-rcl44-esl100-rsm0-rcm2-esm310-rsr0-rcr2-esr100,exr/ReadingArea_rsl0-rcl44-esl100-rsm0-rcm2-esm310-rsr0-rcr2-esr100.exr,ReadingArea_rsl0-rcl44-esl100-rsm0-rcm2-esm310-rsr0-rcr2-esr100.npz,,,,,0,191,191,5,,right,red,1.11,652.9138450622559,,,,3,PM,1,lightness,readingArea,realistic,75,2023-03-13_14h30.10.942,tripletExp_regina_11082022,2022.2.4,119.67313398767403,
2,14,7,0,0.25,0.298245614035088,0,0.25,3.10526315789474,0,0.111111111111111,1.0,ReadingArea_rsl0-rcl25-esl29-rsm0-rcm25-esm310-rsr0-rcr11-esr100,exr/ReadingArea_rsl0-rcl25-esl29-rsm0-rcm25-esm310-rsr0-rcr11-esr100.exr,ReadingArea_rsl0-rcl25-esl29-rsm0-rcm25-esm310-rsr0-rcr11-esr100.npz,,,,,0,192,192,310,,right,red,2.39,656.7384719848633,657.0987691879272,,,3,PM,1,lightness,readingArea,realistic,75,2023-03-13_14h30.10.942,tripletExp_regina_11082022,2022.2.4,119.67313398767403,
5,14,11,0,1.0,0.298245614035088,0,0.25,3.10526315789474,0,1.0,1.0,ReadingArea_rsl0-rcl100-esl29-rsm0-rcm25-esm310-rsr0-rcr100-esr100,exr/ReadingArea_rsl0-rcl100-esl29-rsm0-rcm25-esm310-rsr0-rcr100-esr100.exr,ReadingArea_rsl0-rcl100-esl29-rsm0-rcm25-esm310-rsr0-rcr100-esr100.npz,,,,,0,193,193,98,,left,green,1.14,658.8002932071686,659.1657040119171,,,3,PM,1,lightness,readingArea,realistic,75,2023-03-13_14h30.10.942,tripletExp_regina_11082022,2022.2.4,119.67313398767403,
5,2,8,0,1.0,0.298245614035088,0,0.25,0.298245614035088,0,0.25,1.0,ReadingArea_rsl0-rcl100-esl29-rsm0-rcm25-esm29-rsr0-rcr25-esr100,exr/ReadingArea_rsl0-rcl100-esl29-rsm0-rcm25-esm29-rsr0-rcr25-esr100.exr,ReadingArea_rsl0-rcl100-esl29-rsm0-rcm25-esm29-rsr0-rcr25-esr100.npz,,,,,0,194,194,538,,right,red,1.35,660.8714261054993,661.2404119968414,,,3,PM,1,lightness,readingArea,realistic,75,2023-03-13_14h30.10.942,tripletExp_regina_11082022,2022.2.4,119.67313398767403,
9,14,7,0,0.444444444444444,1.0,0,0.25,3.10526315789474,0,0.111111111111111,1.0,ReadingArea_rsl0-rcl44-esl100-rsm0-rcm25-esm310-rsr0-rcr11-esr100,exr/ReadingArea_rsl0-rcl44-esl100-rsm0-rcm25-esm310-rsr0-rcr11-esr100.exr,ReadingArea_rsl0-rcl44-esl100-rsm0-rcm25-esm310-rsr0-rcr11-esr100.npz,,,,,0,195,195,44,,left,green,0.7,662.9468030929565,663.3112940788269,,,3,PM,1,lightness,readingArea,realistic,75,2023-03-13_14h30.10.942,tripletExp_regina_11082022,2022.2.4,119.67313398767403,
3,8,1,0,0.444444444444444,0.298245614035088,0,0.25,1.0,0,0.111111111111111,0.298245614035088,ReadingArea_rsl0-rcl44-esl29-rsm0-rcm25-esm100-rsr0-rcr11-esr29,exr/ReadingArea_rsl0-rcl44-esl29-rsm0-rcm25-esm100-rsr0-rcr11-esr29.exr,ReadingArea_rsl0-rcl44-esl29-rsm0-rcm25-esm100-rsr0-rcr11-esr29.npz,,,,,0,196,196,230,,left,green,0.82,665.0201721191406,665.3859241008759,,,3,PM,1,lightness,readingArea,realistic,75,2023-03-13_14h30.10.942,tripletExp_regina_11082022,2022.2.4,119.67313398767403,
5,0,6,0,1.0,0.298245614035088,0,0.027777777777778,0.298245614035088,0,0.027777777777778,1.0,ReadingArea_rsl0-rcl100-esl29-rsm0-rcm2-esm29-rsr0-rcr2-esr100,exr/ReadingArea_rsl0-rcl100-esl29-rsm0-rcm2-esm29-rsr0-rcr2-esr100.exr,ReadingArea_rsl0-rcl100-esl29-rsm0-rcm2-esm29-rsr0-rcr2-esr100.npz,,,,,0,197,197,1,,right,red,0.86,667.0920550823212,667.4528551101685,,,3,PM,1,lightness,readingArea,realistic,75,2023-03-13_14h30.10.942,tripletExp_regina_11082022,2022.2.4,119.67313398767403,
7,14,5,0,0.111111111111111,1.0,0,0.25,3.10526315789474,0,1.0,0.298245614035088,ReadingArea_rsl0-rcl11-esl100-rsm0-rcm25-esm310-rsr0-rcr100-esr29,exr/ReadingArea_rsl0-rcl11-esl100-rsm0-rcm25-esm310-rsr0-rcr100-esr29.exr,ReadingArea_rsl0-rcl11-esl100-rsm0-rcm25-esm310-rsr0-rcr100-esr29.npz,,,,,0,198,198,372,,right,red,0.82,669.1612131595612,669.528950214386,,,3,PM,1,lightness,readingArea,realistic,75,2023-03-13_14h30.10.942,tripletExp_regina_11082022,2022.2.4,119.67313398767403,
2,4,10,0,0.25,0.298245614035088,0,0.694444444444444,0.298245614035088,0,0.694444444444444,1.0,ReadingArea_rsl0-rcl25-esl29-rsm0-rcm69-esm29-rsr0-rcr69-esr100,exr/ReadingArea_rsl0-rcl25-esl29-rsm0-rcm69-esm29-rsr0-rcr69-esr100.exr,ReadingArea_rsl0-rcl25-esl29-rsm0-rcm69-esm29-rsr0-rcr69-esr100.npz,,,,,0,199,199,174,,left,green,0.71,671.2409040927887,671.6039090156555,,,3,PM,1,lightness,readingArea,realistic,75,2023-03-13_14h30.10.942,tripletExp_regina_11082022,2022.2.4,119.67313398767403,
4,10,9,0,0.694444444444444,0.298245614035088,0,0.694444444444444,1.0,0,0.444444444444444,1.0,ReadingArea_rsl0-rcl69-esl29-rsm0-rcm69-esm100-rsr0-rcr44-esr100,exr/ReadingArea_rsl0-rcl69-esl29-rsm0-rcm69-esm100-rsr0-rcr44-esr100.exr,ReadingArea_rsl0-rcl69-esl29-rsm0-rcm69-esm100-rsr0-rcr44-esr100.npz,,,,,0,200,200,516,,right,red,0.9,673.3119440078735,673.6546161174774,,,3,PM,1,lightness,readingArea,realistic,75,2023-03-13_14h30.10.942,tripletExp_regina_11082022,2022.2.4,119.67313398767403,
8,1,6,0,0.25,1.0,0,0.111111111111111,0.298245614035088,0,0.027777777777778,1.0,ReadingArea_rsl0-rcl25-esl100-rsm0-rcm11-esm29-rsr0-rcr2-esr100,exr/ReadingArea_rsl0-rcl25-esl100-rsm0-rcm11-esm29-rsr0-rcr2-esr100.exr,ReadingArea_rsl0-rcl25-esl100-rsm0-rcm11-esm29-rsr0-rcr2-esr100.npz,,,,,0,201,201,62,,right,red,0.78,675.365629196167,675.7342360019684,,,3,PM,1,lightness,readingArea,realistic,75,2023-03-13_14h30.10.942,tripletExp_regina_11082022,2022.2.4,119.67313398767403,
13,1,3,0,0.111111111111111,3.10526315789474,0,0.111111111111111,0.298245614035088,0,0.444444444444444,0.298245614035088,ReadingArea_rsl0-rcl11-esl310-rsm0-rcm11-esm29-rsr0-rcr44-esr29,exr/ReadingArea_rsl0-rcl11-esl310-rsm0-rcm11-esm29-rsr0-rcr44-esr29.exr,ReadingArea_rsl0-rcl11-esl310-rsm0-rcm11-esm29-rsr0-rcr44-esr29.npz,,,,,0,202,202,588,,right,red,1.49,677.4492239952087,677.8354351520538,,,3,PM,1,lightness,readingArea,realistic,75,2023-03-13_14h30.10.942,tripletExp_regina_11082022,2022.2.4,119.67313398767403,
