index_left,index_middle,index_right,reflectance_surround_left,reflectance_center_left,emission_spot_left,reflectance_surround_middle,reflectance_center_middle,emission_spot_middle,reflectance_surround_right,reflectance_center_right,emission_spot_right,ImageName,ImageExr,ImageNpy,trials_2.thisRepN,trials_2.thisTrialN,trials_2.thisN,trials_2.thisIndex,trials.thisRepN,trials.thisTrialN,trials.thisN,trials.thisIndex,sound_1.started,BB_Trial.resp,BB_Trial.color,BB_Trial.rt,text.started,text.stopped,block,participant,session,L/B,scene,condition,nTrialsPerBlock,date,expName,psychopyVersion,frameRate,
13,8,5,0,0.111111111111111,3.10526315789474,0,0.25,1.0,0,1.0,0.298245614035088,ReadingArea_rsl0-rcl11-esl310-rsm0-rcm25-esm100-rsr0-rcr100-esr29,exr/ReadingArea_rsl0-rcl11-esl310-rsm0-rcm25-esm100-rsr0-rcr100-esr29.exr,ReadingArea_rsl0-rcl11-esl310-rsm0-rcm25-esm100-rsr0-rcr100-esr29.npz,,,,,0,0,0,209,137.07736024856567,left,green,0.82,141.14054417610168,138.11244201660156,1,1,9,brightness,readingArea,realistic,75,2023-03-31_14h33.20.567,tripletExp_regina_11082022,2022.2.4,119.85540667586807,
11,13,8,0,1.0,1.0,0,0.111111111111111,3.10526315789474,0,0.25,1.0,ReadingArea_rsl0-rcl100-esl100-rsm0-rcm11-esm310-rsr0-rcr25-esr100,exr/ReadingArea_rsl0-rcl100-esl100-rsm0-rcm11-esm310-rsr0-rcr25-esr100.exr,ReadingArea_rsl0-rcl100-esl100-rsm0-rcm11-esm310-rsr0-rcr25-esr100.npz,,,,,0,1,1,198,,right,red,0.64,143.25831413269043,143.92062902450562,1,1,9,brightness,readingArea,realistic,75,2023-03-31_14h33.20.567,tripletExp_regina_11082022,2022.2.4,119.85540667586807,
5,7,14,0,1.0,0.298245614035088,0,0.111111111111111,1.0,0,0.25,3.10526315789474,ReadingArea_rsl0-rcl100-esl29-rsm0-rcm11-esm100-rsr0-rcr25-esr310,exr/ReadingArea_rsl0-rcl100-esl29-rsm0-rcm11-esm100-rsr0-rcr25-esr310.exr,ReadingArea_rsl0-rcl100-esl29-rsm0-rcm11-esm100-rsr0-rcr25-esr310.npz,,,,,0,2,2,210,,left,green,2.37,147.36327719688416,147.81580114364624,1,1,9,brightness,readingArea,realistic,75,2023-03-31_14h33.20.567,tripletExp_regina_11082022,2022.2.4,119.85540667586807,
3,7,0,0,0.444444444444444,0.298245614035088,0,0.111111111111111,1.0,0,0.027777777777778,0.298245614035088,ReadingArea_rsl0-rcl44-esl29-rsm0-rcm11-esm100-rsr0-rcr2-esr29,exr/ReadingArea_rsl0-rcl44-esl29-rsm0-rcm11-esm100-rsr0-rcr2-esr29.exr,ReadingArea_rsl0-rcl44-esl29-rsm0-rcm11-esm100-rsr0-rcr2-esr29.npz,,,,,0,3,3,327,,left,green,0.67,149.51170206069946,149.92806911468506,1,1,9,brightness,readingArea,realistic,75,2023-03-31_14h33.20.567,tripletExp_regina_11082022,2022.2.4,119.85540667586807,
11,7,8,0,1.0,1.0,0,0.111111111111111,1.0,0,0.25,1.0,ReadingArea_rsl0-rcl100-esl100-rsm0-rcm11-esm100-rsr0-rcr25-esr100,exr/ReadingArea_rsl0-rcl100-esl100-rsm0-rcm11-esm100-rsr0-rcr25-esr100.exr,ReadingArea_rsl0-rcl100-esl100-rsm0-rcm11-esm100-rsr0-rcr25-esr100.npz,,,,,0,4,4,37,,right,red,0.63,151.62567114830017,152.0378201007843,1,1,9,brightness,readingArea,realistic,75,2023-03-31_14h33.20.567,tripletExp_regina_11082022,2022.2.4,119.85540667586807,
11,1,4,0,1.0,1.0,0,0.111111111111111,0.298245614035088,0,0.694444444444444,0.298245614035088,ReadingArea_rsl0-rcl100-esl100-rsm0-rcm11-esm29-rsr0-rcr69-esr29,exr/ReadingArea_rsl0-rcl100-esl100-rsm0-rcm11-esm29-rsr0-rcr69-esr29.exr,ReadingArea_rsl0-rcl100-esl100-rsm0-rcm11-esm29-rsr0-rcr69-esr29.npz,,,,,0,5,5,110,,right,red,0.69,153.74141311645508,154.15544414520264,1,1,9,brightness,readingArea,realistic,75,2023-03-31_14h33.20.567,tripletExp_regina_11082022,2022.2.4,119.85540667586807,
10,11,0,0,0.694444444444444,1.0,0,1.0,1.0,0,0.027777777777778,0.298245614035088,ReadingArea_rsl0-rcl69-esl100-rsm0-rcm100-esm100-rsr0-rcr2-esr29,exr/ReadingArea_rsl0-rcl69-esl100-rsm0-rcm100-esm100-rsr0-rcr2-esr29.exr,ReadingArea_rsl0-rcl69-esl100-rsm0-rcm100-esm100-rsr0-rcr2-esr29.npz,,,,,0,6,6,58,,left,green,0.56,155.8497931957245,156.28983116149902,1,1,9,brightness,readingArea,realistic,75,2023-03-31_14h33.20.567,tripletExp_regina_11082022,2022.2.4,119.85540667586807,
9,2,12,0,0.444444444444444,1.0,0,0.25,0.298245614035088,0,0.027777777777778,3.10526315789474,ReadingArea_rsl0-rcl44-esl100-rsm0-rcm25-esm29-rsr0-rcr2-esr310,exr/ReadingArea_rsl0-rcl44-esl100-rsm0-rcm25-esm29-rsr0-rcr2-esr310.exr,ReadingArea_rsl0-rcl44-esl100-rsm0-rcm25-esm29-rsr0-rcr2-esr310.npz,,,,,0,7,7,391,,right,red,0.6,158.00212621688843,158.41659903526306,1,1,9,brightness,readingArea,realistic,75,2023-03-31_14h33.20.567,tripletExp_regina_11082022,2022.2.4,119.85540667586807,
14,12,10,0,0.25,3.10526315789474,0,0.027777777777778,3.10526315789474,0,0.694444444444444,1.0,ReadingArea_rsl0-rcl25-esl310-rsm0-rcm2-esm310-rsr0-rcr69-esr100,exr/ReadingArea_rsl0-rcl25-esl310-rsm0-rcm2-esm310-rsr0-rcr69-esr100.exr,ReadingArea_rsl0-rcl25-esl310-rsm0-rcm2-esm310-rsr0-rcr69-esr100.npz,,,,,0,8,8,331,,right,red,2.97,161.87335205078125,162.28455305099487,1,1,9,brightness,readingArea,realistic,75,2023-03-31_14h33.20.567,tripletExp_regina_11082022,2022.2.4,119.85540667586807,
6,5,11,0,0.027777777777778,1.0,0,1.0,0.298245614035088,0,1.0,1.0,ReadingArea_rsl0-rcl2-esl100-rsm0-rcm100-esm29-rsr0-rcr100-esr100,exr/ReadingArea_rsl0-rcl2-esl100-rsm0-rcm100-esm29-rsr0-rcr100-esr100.exr,ReadingArea_rsl0-rcl2-esl100-rsm0-rcm100-esm29-rsr0-rcr100-esr100.npz,,,,,0,9,9,289,,right,red,0.59,163.9815411567688,164.39219403266907,1,1,9,brightness,readingArea,realistic,75,2023-03-31_14h33.20.567,tripletExp_regina_11082022,2022.2.4,119.85540667586807,
8,14,3,0,0.25,1.0,0,0.25,3.10526315789474,0,0.444444444444444,0.298245614035088,ReadingArea_rsl0-rcl25-esl100-rsm0-rcm25-esm310-rsr0-rcr44-esr29,exr/ReadingArea_rsl0-rcl25-esl100-rsm0-rcm25-esm310-rsr0-rcr44-esr29.exr,ReadingArea_rsl0-rcl25-esl100-rsm0-rcm25-esm310-rsr0-rcr44-esr29.npz,,,,,0,10,10,503,,left,green,2.49,167.89063215255737,168.357577085495,1,1,9,brightness,readingArea,realistic,75,2023-03-31_14h33.20.567,tripletExp_regina_11082022,2022.2.4,119.85540667586807,
7,4,2,0,0.111111111111111,1.0,0,0.694444444444444,0.298245614035088,0,0.25,0.298245614035088,ReadingArea_rsl0-rcl11-esl100-rsm0-rcm69-esm29-rsr0-rcr25-esr29,exr/ReadingArea_rsl0-rcl11-esl100-rsm0-rcm69-esm29-rsr0-rcr25-esr29.exr,ReadingArea_rsl0-rcl11-esl100-rsm0-rcm69-esm29-rsr0-rcr25-esr29.npz,,,,,0,11,11,146,,left,green,1.99,171.83293914794922,172.24463605880737,1,1,9,brightness,readingArea,realistic,75,2023-03-31_14h33.20.567,tripletExp_regina_11082022,2022.2.4,119.85540667586807,
0,5,12,0,0.027777777777778,0.298245614035088,0,1.0,0.298245614035088,0,0.027777777777778,3.10526315789474,ReadingArea_rsl0-rcl2-esl29-rsm0-rcm100-esm29-rsr0-rcr2-esr310,exr/ReadingArea_rsl0-rcl2-esl29-rsm0-rcm100-esm29-rsr0-rcr2-esr310.exr,ReadingArea_rsl0-rcl2-esl29-rsm0-rcm100-esm29-rsr0-rcr2-esr310.npz,,,,,0,12,12,366,,right,red,0.94,173.93353700637817,174.3454601764679,1,1,9,brightness,readingArea,realistic,75,2023-03-31_14h33.20.567,tripletExp_regina_11082022,2022.2.4,119.85540667586807,
10,7,2,0,0.694444444444444,1.0,0,0.111111111111111,1.0,0,0.25,0.298245614035088,ReadingArea_rsl0-rcl69-esl100-rsm0-rcm11-esm100-rsr0-rcr25-esr29,exr/ReadingArea_rsl0-rcl69-esl100-rsm0-rcm11-esm100-rsr0-rcr25-esr29.exr,ReadingArea_rsl0-rcl69-esl100-rsm0-rcm11-esm100-rsr0-rcr25-esr29.npz,,,,,0,13,13,523,,right,red,0.65,176.06791400909424,176.47947001457214,1,1,9,brightness,readingArea,realistic,75,2023-03-31_14h33.20.567,tripletExp_regina_11082022,2022.2.4,119.85540667586807,
12,3,10,0,0.027777777777778,3.10526315789474,0,0.444444444444444,0.298245614035088,0,0.694444444444444,1.0,ReadingArea_rsl0-rcl2-esl310-rsm0-rcm44-esm29-rsr0-rcr69-esr100,exr/ReadingArea_rsl0-rcl2-esl310-rsm0-rcm44-esm29-rsr0-rcr69-esr100.exr,ReadingArea_rsl0-rcl2-esl310-rsm0-rcm44-esm29-rsr0-rcr69-esr100.npz,,,,,0,14,14,437,,left,green,0.73,178.1973521709442,178.71205615997314,1,1,9,brightness,readingArea,realistic,75,2023-03-31_14h33.20.567,tripletExp_regina_11082022,2022.2.4,119.85540667586807,
0,2,1,0,0.027777777777778,0.298245614035088,0,0.25,0.298245614035088,0,0.111111111111111,0.298245614035088,ReadingArea_rsl0-rcl2-esl29-rsm0-rcm25-esm29-rsr0-rcr11-esr29,exr/ReadingArea_rsl0-rcl2-esl29-rsm0-rcm25-esm29-rsr0-rcr11-esr29.exr,ReadingArea_rsl0-rcl2-esl29-rsm0-rcm25-esm29-rsr0-rcr11-esr29.npz,,,,,0,15,15,527,,right,red,0.74,180.40021109580994,180.8096342086792,1,1,9,brightness,readingArea,realistic,75,2023-03-31_14h33.20.567,tripletExp_regina_11082022,2022.2.4,119.85540667586807,
8,6,5,0,0.25,1.0,0,0.027777777777778,1.0,0,1.0,0.298245614035088,ReadingArea_rsl0-rcl25-esl100-rsm0-rcm2-esm100-rsr0-rcr100-esr29,exr/ReadingArea_rsl0-rcl25-esl100-rsm0-rcm2-esm100-rsr0-rcr100-esr29.exr,ReadingArea_rsl0-rcl25-esl100-rsm0-rcm2-esm100-rsr0-rcr100-esr29.npz,,,,,0,16,16,241,,left,green,0.84,182.50027918815613,182.90904307365417,1,1,9,brightness,readingArea,realistic,75,2023-03-31_14h33.20.567,tripletExp_regina_11082022,2022.2.4,119.85540667586807,
8,13,3,0,0.25,1.0,0,0.111111111111111,3.10526315789474,0,0.444444444444444,0.298245614035088,ReadingArea_rsl0-rcl25-esl100-rsm0-rcm11-esm310-rsr0-rcr44-esr29,exr/ReadingArea_rsl0-rcl25-esl100-rsm0-rcm11-esm310-rsr0-rcr44-esr29.exr,ReadingArea_rsl0-rcl25-esl100-rsm0-rcm11-esm310-rsr0-rcr44-esr29.npz,,,,,0,17,17,553,,right,red,1.09,184.60229301452637,185.01178622245789,1,1,9,brightness,readingArea,realistic,75,2023-03-31_14h33.20.567,tripletExp_regina_11082022,2022.2.4,119.85540667586807,
14,6,12,0,0.25,3.10526315789474,0,0.027777777777778,1.0,0,0.027777777777778,3.10526315789474,ReadingArea_rsl0-rcl25-esl310-rsm0-rcm2-esm100-rsr0-rcr2-esr310,exr/ReadingArea_rsl0-rcl25-esl310-rsm0-rcm2-esm100-rsr0-rcr2-esr310.exr,ReadingArea_rsl0-rcl25-esl310-rsm0-rcm2-esm100-rsr0-rcr2-esr310.npz,,,,,0,18,18,242,,right,red,0.56,186.73738622665405,187.15584421157837,1,1,9,brightness,readingArea,realistic,75,2023-03-31_14h33.20.567,tripletExp_regina_11082022,2022.2.4,119.85540667586807,
9,11,10,0,0.444444444444444,1.0,0,1.0,1.0,0,0.694444444444444,1.0,ReadingArea_rsl0-rcl44-esl100-rsm0-rcm100-esm100-rsr0-rcr69-esr100,exr/ReadingArea_rsl0-rcl44-esl100-rsm0-rcm100-esm100-rsr0-rcr69-esr100.exr,ReadingArea_rsl0-rcl44-esl100-rsm0-rcm100-esm100-rsr0-rcr69-esr100.npz,,,,,0,19,19,591,,right,red,0.76,188.86485600471497,189.28021121025085,1,1,9,brightness,readingArea,realistic,75,2023-03-31_14h33.20.567,tripletExp_regina_11082022,2022.2.4,119.85540667586807,
13,0,4,0,0.111111111111111,3.10526315789474,0,0.027777777777778,0.298245614035088,0,0.694444444444444,0.298245614035088,ReadingArea_rsl0-rcl11-esl310-rsm0-rcm2-esm29-rsr0-rcr69-esr29,exr/ReadingArea_rsl0-rcl11-esl310-rsm0-rcm2-esm29-rsr0-rcr69-esr29.exr,ReadingArea_rsl0-rcl11-esl310-rsm0-rcm2-esm29-rsr0-rcr69-esr29.npz,,,,,0,20,20,270,,left,green,1.11,190.97898602485657,,1,1,9,brightness,readingArea,realistic,75,2023-03-31_14h33.20.567,tripletExp_regina_11082022,2022.2.4,119.85540667586807,
14,7,0,0,0.25,3.10526315789474,0,0.111111111111111,1.0,0,0.027777777777778,0.298245614035088,ReadingArea_rsl0-rcl25-esl310-rsm0-rcm11-esm100-rsr0-rcr2-esr29,exr/ReadingArea_rsl0-rcl25-esl310-rsm0-rcm11-esm100-rsr0-rcr2-esr29.exr,ReadingArea_rsl0-rcl25-esl310-rsm0-rcm11-esm100-rsr0-rcr2-esr29.npz,,,,,0,21,21,412,,right,red,0.78,193.102961063385,193.51548409461975,1,1,9,brightness,readingArea,realistic,75,2023-03-31_14h33.20.567,tripletExp_regina_11082022,2022.2.4,119.85540667586807,
10,8,1,0,0.694444444444444,1.0,0,0.25,1.0,0,0.111111111111111,0.298245614035088,ReadingArea_rsl0-rcl69-esl100-rsm0-rcm25-esm100-rsr0-rcr11-esr29,exr/ReadingArea_rsl0-rcl69-esl100-rsm0-rcm25-esm100-rsr0-rcr11-esr29.exr,ReadingArea_rsl0-rcl69-esl100-rsm0-rcm25-esm100-rsr0-rcr11-esr29.npz,,,,,0,22,22,247,,right,red,0.99,195.24038815498352,195.65400218963623,1,1,9,brightness,readingArea,realistic,75,2023-03-31_14h33.20.567,tripletExp_regina_11082022,2022.2.4,119.85540667586807,
14,0,6,0,0.25,3.10526315789474,0,0.027777777777778,0.298245614035088,0,0.027777777777778,1.0,ReadingArea_rsl0-rcl25-esl310-rsm0-rcm2-esm29-rsr0-rcr2-esr100,exr/ReadingArea_rsl0-rcl25-esl310-rsm0-rcm2-esm29-rsr0-rcr2-esr100.exr,ReadingArea_rsl0-rcl25-esl310-rsm0-rcm2-esm29-rsr0-rcr2-esr100.npz,,,,,0,23,23,496,,right,red,0.62,197.35313606262207,197.76610922813416,1,1,9,brightness,readingArea,realistic,75,2023-03-31_14h33.20.567,tripletExp_regina_11082022,2022.2.4,119.85540667586807,
5,9,12,0,1.0,0.298245614035088,0,0.444444444444444,1.0,0,0.027777777777778,3.10526315789474,ReadingArea_rsl0-rcl100-esl29-rsm0-rcm44-esm100-rsr0-rcr2-esr310,exr/ReadingArea_rsl0-rcl100-esl29-rsm0-rcm44-esm100-rsr0-rcr2-esr310.exr,ReadingArea_rsl0-rcl100-esl29-rsm0-rcm44-esm100-rsr0-rcr2-esr310.npz,,,,,0,24,24,539,,left,green,0.73,199.4832181930542,199.89788818359375,1,1,9,brightness,readingArea,realistic,75,2023-03-31_14h33.20.567,tripletExp_regina_11082022,2022.2.4,119.85540667586807,
13,6,12,0,0.111111111111111,3.10526315789474,0,0.027777777777778,1.0,0,0.027777777777778,3.10526315789474,ReadingArea_rsl0-rcl11-esl310-rsm0-rcm2-esm100-rsr0-rcr2-esr310,exr/ReadingArea_rsl0-rcl11-esl310-rsm0-rcm2-esm100-rsr0-rcr2-esr310.exr,ReadingArea_rsl0-rcl11-esl310-rsm0-rcm2-esm100-rsr0-rcr2-esr310.npz,,,,,0,25,25,147,,right,red,0.58,201.59458208084106,202.00830721855164,1,1,9,brightness,readingArea,realistic,75,2023-03-31_14h33.20.567,tripletExp_regina_11082022,2022.2.4,119.85540667586807,
11,5,1,0,1.0,1.0,0,1.0,0.298245614035088,0,0.111111111111111,0.298245614035088,ReadingArea_rsl0-rcl100-esl100-rsm0-rcm100-esm29-rsr0-rcr11-esr29,exr/ReadingArea_rsl0-rcl100-esl100-rsm0-rcm100-esm29-rsr0-rcr11-esr29.exr,ReadingArea_rsl0-rcl100-esl100-rsm0-rcm100-esm29-rsr0-rcr11-esr29.npz,,,,,0,26,26,48,,left,green,2.07,205.49755811691284,205.9119610786438,1,1,9,brightness,readingArea,realistic,75,2023-03-31_14h33.20.567,tripletExp_regina_11082022,2022.2.4,119.85540667586807,
0,4,9,0,0.027777777777778,0.298245614035088,0,0.694444444444444,0.298245614035088,0,0.444444444444444,1.0,ReadingArea_rsl0-rcl2-esl29-rsm0-rcm69-esm29-rsr0-rcr44-esr100,exr/ReadingArea_rsl0-rcl2-esl29-rsm0-rcm69-esm29-rsr0-rcr44-esr100.exr,ReadingArea_rsl0-rcl2-esl29-rsm0-rcm69-esm29-rsr0-rcr44-esr100.npz,,,,,0,27,27,21,,right,red,0.59,207.63337206840515,208.0526261329651,1,1,9,brightness,readingArea,realistic,75,2023-03-31_14h33.20.567,tripletExp_regina_11082022,2022.2.4,119.85540667586807,
14,2,1,0,0.25,3.10526315789474,0,0.25,0.298245614035088,0,0.111111111111111,0.298245614035088,ReadingArea_rsl0-rcl25-esl310-rsm0-rcm25-esm29-rsr0-rcr11-esr29,exr/ReadingArea_rsl0-rcl25-esl310-rsm0-rcm25-esm29-rsr0-rcr11-esr29.exr,ReadingArea_rsl0-rcl25-esl310-rsm0-rcm25-esm29-rsr0-rcr11-esr29.npz,,,,,0,28,28,321,,right,red,0.68,209.76859617233276,210.1822850704193,1,1,9,brightness,readingArea,realistic,75,2023-03-31_14h33.20.567,tripletExp_regina_11082022,2022.2.4,119.85540667586807,
11,4,2,0,1.0,1.0,0,0.694444444444444,0.298245614035088,0,0.25,0.298245614035088,ReadingArea_rsl0-rcl100-esl100-rsm0-rcm69-esm29-rsr0-rcr25-esr29,exr/ReadingArea_rsl0-rcl100-esl100-rsm0-rcm69-esm29-rsr0-rcr25-esr29.exr,ReadingArea_rsl0-rcl100-esl100-rsm0-rcm69-esm29-rsr0-rcr25-esr29.npz,,,,,0,29,29,280,,right,red,1.36,211.90194606781006,212.31434607505798,1,1,9,brightness,readingArea,realistic,75,2023-03-31_14h33.20.567,tripletExp_regina_11082022,2022.2.4,119.85540667586807,
7,12,2,0,0.111111111111111,1.0,0,0.027777777777778,3.10526315789474,0,0.25,0.298245614035088,ReadingArea_rsl0-rcl11-esl100-rsm0-rcm2-esm310-rsr0-rcr25-esr29,exr/ReadingArea_rsl0-rcl11-esl100-rsm0-rcm2-esm310-rsr0-rcr25-esr29.exr,ReadingArea_rsl0-rcl11-esl100-rsm0-rcm2-esm310-rsr0-rcr25-esr29.npz,,,,,0,30,30,72,,left,green,0.94,214.0265769958496,214.4792070388794,1,1,9,brightness,readingArea,realistic,75,2023-03-31_14h33.20.567,tripletExp_regina_11082022,2022.2.4,119.85540667586807,
2,8,11,0,0.25,0.298245614035088,0,0.25,1.0,0,1.0,1.0,ReadingArea_rsl0-rcl25-esl29-rsm0-rcm25-esm100-rsr0-rcr100-esr100,exr/ReadingArea_rsl0-rcl25-esl29-rsm0-rcm25-esm100-rsr0-rcr100-esr100.exr,ReadingArea_rsl0-rcl25-esl29-rsm0-rcm25-esm100-rsr0-rcr100-esr100.npz,,,,,0,31,31,225,,left,green,0.63,216.18101406097412,216.59305000305176,1,1,9,brightness,readingArea,realistic,75,2023-03-31_14h33.20.567,tripletExp_regina_11082022,2022.2.4,119.85540667586807,
3,12,4,0,0.444444444444444,0.298245614035088,0,0.027777777777778,3.10526315789474,0,0.694444444444444,0.298245614035088,ReadingArea_rsl0-rcl44-esl29-rsm0-rcm2-esm310-rsr0-rcr69-esr29,exr/ReadingArea_rsl0-rcl44-esl29-rsm0-rcm2-esm310-rsr0-rcr69-esr29.exr,ReadingArea_rsl0-rcl44-esl29-rsm0-rcm2-esm310-rsr0-rcr69-esr29.npz,,,,,0,32,32,426,,left,green,0.93,218.314110994339,218.72923302650452,1,1,9,brightness,readingArea,realistic,75,2023-03-31_14h33.20.567,tripletExp_regina_11082022,2022.2.4,119.85540667586807,
3,13,12,0,0.444444444444444,0.298245614035088,0,0.111111111111111,3.10526315789474,0,0.027777777777778,3.10526315789474,ReadingArea_rsl0-rcl44-esl29-rsm0-rcm11-esm310-rsr0-rcr2-esr310,exr/ReadingArea_rsl0-rcl44-esl29-rsm0-rcm11-esm310-rsr0-rcr2-esr310.exr,ReadingArea_rsl0-rcl44-esl29-rsm0-rcm11-esm310-rsr0-rcr2-esr310.npz,,,,,0,33,33,34,,left,green,0.95,220.45518612861633,220.89771103858948,1,1,9,brightness,readingArea,realistic,75,2023-03-31_14h33.20.567,tripletExp_regina_11082022,2022.2.4,119.85540667586807,
4,12,7,0,0.694444444444444,0.298245614035088,0,0.027777777777778,3.10526315789474,0,0.111111111111111,1.0,ReadingArea_rsl0-rcl69-esl29-rsm0-rcm2-esm310-rsr0-rcr11-esr100,exr/ReadingArea_rsl0-rcl69-esl29-rsm0-rcm2-esm310-rsr0-rcr11-esr100.exr,ReadingArea_rsl0-rcl69-esl29-rsm0-rcm2-esm310-rsr0-rcr11-esr100.npz,,,,,0,34,34,112,,right,red,0.83,222.61254620552063,223.02974104881287,1,1,9,brightness,readingArea,realistic,75,2023-03-31_14h33.20.567,tripletExp_regina_11082022,2022.2.4,119.85540667586807,
12,5,4,0,0.027777777777778,3.10526315789474,0,1.0,0.298245614035088,0,0.694444444444444,0.298245614035088,ReadingArea_rsl0-rcl2-esl310-rsm0-rcm100-esm29-rsr0-rcr69-esr29,exr/ReadingArea_rsl0-rcl2-esl310-rsm0-rcm100-esm29-rsr0-rcr69-esr29.exr,ReadingArea_rsl0-rcl2-esl310-rsm0-rcm100-esm29-rsr0-rcr69-esr29.npz,,,,,0,35,35,566,,right,red,0.66,224.71777606010437,,1,1,9,brightness,readingArea,realistic,75,2023-03-31_14h33.20.567,tripletExp_regina_11082022,2022.2.4,119.85540667586807,
6,4,13,0,0.027777777777778,1.0,0,0.694444444444444,0.298245614035088,0,0.111111111111111,3.10526315789474,ReadingArea_rsl0-rcl2-esl100-rsm0-rcm69-esm29-rsr0-rcr11-esr310,exr/ReadingArea_rsl0-rcl2-esl100-rsm0-rcm69-esm29-rsr0-rcr11-esr310.exr,ReadingArea_rsl0-rcl2-esl100-rsm0-rcm69-esm29-rsr0-rcr11-esr310.npz,,,,,0,36,36,202,,right,red,0.85,226.8462371826172,227.26355719566345,1,1,9,brightness,readingArea,realistic,75,2023-03-31_14h33.20.567,tripletExp_regina_11082022,2022.2.4,119.85540667586807,
4,10,9,0,0.694444444444444,0.298245614035088,0,0.694444444444444,1.0,0,0.444444444444444,1.0,ReadingArea_rsl0-rcl69-esl29-rsm0-rcm69-esm100-rsr0-rcr44-esr100,exr/ReadingArea_rsl0-rcl69-esl29-rsm0-rcm69-esm100-rsr0-rcr44-esr100.exr,ReadingArea_rsl0-rcl69-esl29-rsm0-rcm69-esm100-rsr0-rcr44-esr100.npz,,,,,0,37,37,516,,right,red,0.79,228.97876906394958,229.39679217338562,1,1,9,brightness,readingArea,realistic,75,2023-03-31_14h33.20.567,tripletExp_regina_11082022,2022.2.4,119.85540667586807,
1,11,12,0,0.111111111111111,0.298245614035088,0,1.0,1.0,0,0.027777777777778,3.10526315789474,ReadingArea_rsl0-rcl11-esl29-rsm0-rcm100-esm100-rsr0-rcr2-esr310,exr/ReadingArea_rsl0-rcl11-esl29-rsm0-rcm100-esm100-rsr0-rcr2-esr310.exr,ReadingArea_rsl0-rcl11-esl29-rsm0-rcm100-esm100-rsr0-rcr2-esr310.npz,,,,,0,38,38,288,,right,red,2.66,232.89058017730713,233.32233905792236,1,1,9,brightness,readingArea,realistic,75,2023-03-31_14h33.20.567,tripletExp_regina_11082022,2022.2.4,119.85540667586807,
3,9,13,0,0.444444444444444,0.298245614035088,0,0.444444444444444,1.0,0,0.111111111111111,3.10526315789474,ReadingArea_rsl0-rcl44-esl29-rsm0-rcm44-esm100-rsr0-rcr11-esr310,exr/ReadingArea_rsl0-rcl44-esl29-rsm0-rcm44-esm100-rsr0-rcr11-esr310.exr,ReadingArea_rsl0-rcl44-esl29-rsm0-rcm44-esm100-rsr0-rcr11-esr310.npz,,,,,0,39,39,341,,right,red,0.92,235.0249080657959,235.43797516822815,1,1,9,brightness,readingArea,realistic,75,2023-03-31_14h33.20.567,tripletExp_regina_11082022,2022.2.4,119.85540667586807,
1,10,7,0,0.111111111111111,0.298245614035088,0,0.694444444444444,1.0,0,0.111111111111111,1.0,ReadingArea_rsl0-rcl11-esl29-rsm0-rcm69-esm100-rsr0-rcr11-esr100,exr/ReadingArea_rsl0-rcl11-esl29-rsm0-rcm69-esm100-rsr0-rcr11-esr100.exr,ReadingArea_rsl0-rcl11-esl29-rsm0-rcm69-esm100-rsr0-rcr11-esr100.npz,,,,,0,40,40,94,,right,red,1.02,237.15514016151428,237.59344220161438,1,1,9,brightness,readingArea,realistic,75,2023-03-31_14h33.20.567,tripletExp_regina_11082022,2022.2.4,119.85540667586807,
14,6,7,0,0.25,3.10526315789474,0,0.027777777777778,1.0,0,0.111111111111111,1.0,ReadingArea_rsl0-rcl25-esl310-rsm0-rcm2-esm100-rsr0-rcr11-esr100,exr/ReadingArea_rsl0-rcl25-esl310-rsm0-rcm2-esm100-rsr0-rcr11-esr100.exr,ReadingArea_rsl0-rcl25-esl310-rsm0-rcm2-esm100-rsr0-rcr11-esr100.npz,,,,,0,41,41,306,,right,red,0.59,239.30548214912415,239.72297620773315,1,1,9,brightness,readingArea,realistic,75,2023-03-31_14h33.20.567,tripletExp_regina_11082022,2022.2.4,119.85540667586807,
12,8,6,0,0.027777777777778,3.10526315789474,0,0.25,1.0,0,0.027777777777778,1.0,ReadingArea_rsl0-rcl2-esl310-rsm0-rcm25-esm100-rsr0-rcr2-esr100,exr/ReadingArea_rsl0-rcl2-esl310-rsm0-rcm25-esm100-rsr0-rcr2-esr100.exr,ReadingArea_rsl0-rcl2-esl310-rsm0-rcm25-esm100-rsr0-rcr2-esr100.npz,,,,,0,42,42,281,,left,green,1.09,241.44270706176758,241.8579339981079,1,1,9,brightness,readingArea,realistic,75,2023-03-31_14h33.20.567,tripletExp_regina_11082022,2022.2.4,119.85540667586807,
1,10,11,0,0.111111111111111,0.298245614035088,0,0.694444444444444,1.0,0,1.0,1.0,ReadingArea_rsl0-rcl11-esl29-rsm0-rcm69-esm100-rsr0-rcr100-esr100,exr/ReadingArea_rsl0-rcl11-esl29-rsm0-rcm69-esm100-rsr0-rcr100-esr100.exr,ReadingArea_rsl0-rcl11-esl29-rsm0-rcm69-esm100-rsr0-rcr100-esr100.npz,,,,,0,43,43,483,,right,red,0.54,243.5502691268921,243.96544313430786,1,1,9,brightness,readingArea,realistic,75,2023-03-31_14h33.20.567,tripletExp_regina_11082022,2022.2.4,119.85540667586807,
9,6,14,0,0.444444444444444,1.0,0,0.027777777777778,1.0,0,0.25,3.10526315789474,ReadingArea_rsl0-rcl44-esl100-rsm0-rcm2-esm100-rsr0-rcr25-esr310,exr/ReadingArea_rsl0-rcl44-esl100-rsm0-rcm2-esm100-rsr0-rcr25-esr310.exr,ReadingArea_rsl0-rcl44-esl100-rsm0-rcm2-esm100-rsr0-rcr25-esr310.npz,,,,,0,44,44,213,,right,red,0.57,245.67190718650818,246.0901961326599,1,1,9,brightness,readingArea,realistic,75,2023-03-31_14h33.20.567,tripletExp_regina_11082022,2022.2.4,119.85540667586807,
8,13,2,0,0.25,1.0,0,0.111111111111111,3.10526315789474,0,0.25,0.298245614035088,ReadingArea_rsl0-rcl25-esl100-rsm0-rcm11-esm310-rsr0-rcr25-esr29,exr/ReadingArea_rsl0-rcl25-esl100-rsm0-rcm11-esm310-rsr0-rcr25-esr29.exr,ReadingArea_rsl0-rcl25-esl100-rsm0-rcm11-esm310-rsr0-rcr25-esr29.npz,,,,,0,45,45,376,,right,red,0.74,247.78574919700623,248.20256304740906,1,1,9,brightness,readingArea,realistic,75,2023-03-31_14h33.20.567,tripletExp_regina_11082022,2022.2.4,119.85540667586807,
7,3,5,0,0.111111111111111,1.0,0,0.444444444444444,0.298245614035088,0,1.0,0.298245614035088,ReadingArea_rsl0-rcl11-esl100-rsm0-rcm44-esm29-rsr0-rcr100-esr29,exr/ReadingArea_rsl0-rcl11-esl100-rsm0-rcm44-esm29-rsr0-rcr100-esr29.exr,ReadingArea_rsl0-rcl11-esl100-rsm0-rcm44-esm29-rsr0-rcr100-esr29.npz,,,,,0,46,46,589,,left,green,0.79,249.9099931716919,250.3242630958557,1,1,9,brightness,readingArea,realistic,75,2023-03-31_14h33.20.567,tripletExp_regina_11082022,2022.2.4,119.85540667586807,
14,2,6,0,0.25,3.10526315789474,0,0.25,0.298245614035088,0,0.027777777777778,1.0,ReadingArea_rsl0-rcl25-esl310-rsm0-rcm25-esm29-rsr0-rcr2-esr100,exr/ReadingArea_rsl0-rcl25-esl310-rsm0-rcm25-esm29-rsr0-rcr2-esr100.exr,ReadingArea_rsl0-rcl25-esl310-rsm0-rcm25-esm29-rsr0-rcr2-esr100.npz,,,,,0,47,47,350,,right,red,0.55,252.04957818984985,252.47118401527405,1,1,9,brightness,readingArea,realistic,75,2023-03-31_14h33.20.567,tripletExp_regina_11082022,2022.2.4,119.85540667586807,
9,12,6,0,0.444444444444444,1.0,0,0.027777777777778,3.10526315789474,0,0.027777777777778,1.0,ReadingArea_rsl0-rcl44-esl100-rsm0-rcm2-esm310-rsr0-rcr2-esr100,exr/ReadingArea_rsl0-rcl44-esl100-rsm0-rcm2-esm310-rsr0-rcr2-esr100.exr,ReadingArea_rsl0-rcl44-esl100-rsm0-rcm2-esm310-rsr0-rcr2-esr100.npz,,,,,0,48,48,5,,right,red,0.58,254.16228699684143,254.57787919044495,1,1,9,brightness,readingArea,realistic,75,2023-03-31_14h33.20.567,tripletExp_regina_11082022,2022.2.4,119.85540667586807,
3,7,9,0,0.444444444444444,0.298245614035088,0,0.111111111111111,1.0,0,0.444444444444444,1.0,ReadingArea_rsl0-rcl44-esl29-rsm0-rcm11-esm100-rsr0-rcr44-esr100,exr/ReadingArea_rsl0-rcl44-esl29-rsm0-rcm11-esm100-rsr0-rcr44-esr100.exr,ReadingArea_rsl0-rcl44-esl29-rsm0-rcm11-esm100-rsr0-rcr44-esr100.npz,,,,,0,49,49,382,,left,green,0.79,256.2950072288513,256.7518391609192,1,1,9,brightness,readingArea,realistic,75,2023-03-31_14h33.20.567,tripletExp_regina_11082022,2022.2.4,119.85540667586807,
3,12,6,0,0.444444444444444,0.298245614035088,0,0.027777777777778,3.10526315789474,0,0.027777777777778,1.0,ReadingArea_rsl0-rcl44-esl29-rsm0-rcm2-esm310-rsr0-rcr2-esr100,exr/ReadingArea_rsl0-rcl44-esl29-rsm0-rcm2-esm310-rsr0-rcr2-esr100.exr,ReadingArea_rsl0-rcl44-esl29-rsm0-rcm2-esm310-rsr0-rcr2-esr100.npz,,,,,0,50,50,353,,right,red,0.62,258.4650831222534,,1,1,9,brightness,readingArea,realistic,75,2023-03-31_14h33.20.567,tripletExp_regina_11082022,2022.2.4,119.85540667586807,
8,13,9,0,0.25,1.0,0,0.111111111111111,3.10526315789474,0,0.444444444444444,1.0,ReadingArea_rsl0-rcl25-esl100-rsm0-rcm11-esm310-rsr0-rcr44-esr100,exr/ReadingArea_rsl0-rcl25-esl100-rsm0-rcm11-esm310-rsr0-rcr44-esr100.exr,ReadingArea_rsl0-rcl25-esl100-rsm0-rcm11-esm310-rsr0-rcr44-esr100.npz,,,,,0,51,51,487,,left,green,0.9,260.6219630241394,261.0534191131592,1,1,9,brightness,readingArea,realistic,75,2023-03-31_14h33.20.567,tripletExp_regina_11082022,2022.2.4,119.85540667586807,
11,8,7,0,1.0,1.0,0,0.25,1.0,0,0.111111111111111,1.0,ReadingArea_rsl0-rcl100-esl100-rsm0-rcm25-esm100-rsr0-rcr11-esr100,exr/ReadingArea_rsl0-rcl100-esl100-rsm0-rcm25-esm100-rsr0-rcr11-esr100.exr,ReadingArea_rsl0-rcl100-esl100-rsm0-rcm25-esm100-rsr0-rcr11-esr100.npz,,,,,0,52,52,105,,right,red,0.64,262.7814621925354,263.1948890686035,1,1,9,brightness,readingArea,realistic,75,2023-03-31_14h33.20.567,tripletExp_regina_11082022,2022.2.4,119.85540667586807,
0,1,7,0,0.027777777777778,0.298245614035088,0,0.111111111111111,0.298245614035088,0,0.111111111111111,1.0,ReadingArea_rsl0-rcl2-esl29-rsm0-rcm11-esm29-rsr0-rcr11-esr100,exr/ReadingArea_rsl0-rcl2-esl29-rsm0-rcm11-esm29-rsr0-rcr11-esr100.exr,ReadingArea_rsl0-rcl2-esl29-rsm0-rcm11-esm29-rsr0-rcr11-esr100.npz,,,,,0,53,53,243,,right,red,0.53,264.91427302360535,265.33154010772705,1,1,9,brightness,readingArea,realistic,75,2023-03-31_14h33.20.567,tripletExp_regina_11082022,2022.2.4,119.85540667586807,
9,12,0,0,0.444444444444444,1.0,0,0.027777777777778,3.10526315789474,0,0.027777777777778,0.298245614035088,ReadingArea_rsl0-rcl44-esl100-rsm0-rcm2-esm310-rsr0-rcr2-esr29,exr/ReadingArea_rsl0-rcl44-esl100-rsm0-rcm2-esm310-rsr0-rcr2-esr29.exr,ReadingArea_rsl0-rcl44-esl100-rsm0-rcm2-esm310-rsr0-rcr2-esr29.npz,,,,,0,54,54,175,,right,red,0.57,267.0399351119995,267.45289516448975,1,1,9,brightness,readingArea,realistic,75,2023-03-31_14h33.20.567,tripletExp_regina_11082022,2022.2.4,119.85540667586807,
4,5,8,0,0.694444444444444,0.298245614035088,0,1.0,0.298245614035088,0,0.25,1.0,ReadingArea_rsl0-rcl69-esl29-rsm0-rcm100-esm29-rsr0-rcr25-esr100,exr/ReadingArea_rsl0-rcl69-esl29-rsm0-rcm100-esm29-rsr0-rcr25-esr100.exr,ReadingArea_rsl0-rcl69-esl29-rsm0-rcm100-esm29-rsr0-rcr25-esr100.npz,,,,,0,55,55,54,,left,green,1.12,269.16885018348694,269.5888121128082,1,1,9,brightness,readingArea,realistic,75,2023-03-31_14h33.20.567,tripletExp_regina_11082022,2022.2.4,119.85540667586807,
7,14,5,0,0.111111111111111,1.0,0,0.25,3.10526315789474,0,1.0,0.298245614035088,ReadingArea_rsl0-rcl11-esl100-rsm0-rcm25-esm310-rsr0-rcr100-esr29,exr/ReadingArea_rsl0-rcl11-esl100-rsm0-rcm25-esm310-rsr0-rcr100-esr29.exr,ReadingArea_rsl0-rcl11-esl100-rsm0-rcm25-esm310-rsr0-rcr100-esr29.npz,,,,,0,56,56,372,,right,red,0.58,271.31082916259766,271.7348210811615,1,1,9,brightness,readingArea,realistic,75,2023-03-31_14h33.20.567,tripletExp_regina_11082022,2022.2.4,119.85540667586807,
11,5,4,0,1.0,1.0,0,1.0,0.298245614035088,0,0.694444444444444,0.298245614035088,ReadingArea_rsl0-rcl100-esl100-rsm0-rcm100-esm29-rsr0-rcr69-esr29,exr/ReadingArea_rsl0-rcl100-esl100-rsm0-rcm100-esm29-rsr0-rcr69-esr29.exr,ReadingArea_rsl0-rcl100-esl100-rsm0-rcm100-esm29-rsr0-rcr69-esr29.npz,,,,,0,57,57,564,,right,red,1.91,275.2216360569,275.64109110832214,1,1,9,brightness,readingArea,realistic,75,2023-03-31_14h33.20.567,tripletExp_regina_11082022,2022.2.4,119.85540667586807,
7,12,3,0,0.111111111111111,1.0,0,0.027777777777778,3.10526315789474,0,0.444444444444444,0.298245614035088,ReadingArea_rsl0-rcl11-esl100-rsm0-rcm2-esm310-rsr0-rcr44-esr29,exr/ReadingArea_rsl0-rcl11-esl100-rsm0-rcm2-esm310-rsr0-rcr44-esr29.exr,ReadingArea_rsl0-rcl11-esl100-rsm0-rcm2-esm310-rsr0-rcr44-esr29.npz,,,,,0,58,58,584,,left,green,0.62,277.36588501930237,277.81730818748474,1,1,9,brightness,readingArea,realistic,75,2023-03-31_14h33.20.567,tripletExp_regina_11082022,2022.2.4,119.85540667586807,
6,1,9,0,0.027777777777778,1.0,0,0.111111111111111,0.298245614035088,0,0.444444444444444,1.0,ReadingArea_rsl0-rcl2-esl100-rsm0-rcm11-esm29-rsr0-rcr44-esr100,exr/ReadingArea_rsl0-rcl2-esl100-rsm0-rcm11-esm29-rsr0-rcr44-esr100.exr,ReadingArea_rsl0-rcl2-esl100-rsm0-rcm11-esm29-rsr0-rcr44-esr100.npz,,,,,0,59,59,74,,left,green,0.56,279.54223799705505,279.95630407333374,1,1,9,brightness,readingArea,realistic,75,2023-03-31_14h33.20.567,tripletExp_regina_11082022,2022.2.4,119.85540667586807,
5,13,7,0,1.0,0.298245614035088,0,0.111111111111111,3.10526315789474,0,0.111111111111111,1.0,ReadingArea_rsl0-rcl100-esl29-rsm0-rcm11-esm310-rsr0-rcr11-esr100,exr/ReadingArea_rsl0-rcl100-esl29-rsm0-rcm11-esm310-rsr0-rcr11-esr100.exr,ReadingArea_rsl0-rcl100-esl29-rsm0-rcm11-esm310-rsr0-rcr11-esr100.npz,,,,,0,60,60,189,,right,red,2.03,283.4326581954956,283.84796810150146,1,1,9,brightness,readingArea,realistic,75,2023-03-31_14h33.20.567,tripletExp_regina_11082022,2022.2.4,119.85540667586807,
5,14,11,0,1.0,0.298245614035088,0,0.25,3.10526315789474,0,1.0,1.0,ReadingArea_rsl0-rcl100-esl29-rsm0-rcm25-esm310-rsr0-rcr100-esr100,exr/ReadingArea_rsl0-rcl100-esl29-rsm0-rcm25-esm310-rsr0-rcr100-esr100.exr,ReadingArea_rsl0-rcl100-esl29-rsm0-rcm25-esm310-rsr0-rcr100-esr100.npz,,,,,0,61,61,98,,left,green,1.38,285.56925201416016,,1,1,9,brightness,readingArea,realistic,75,2023-03-31_14h33.20.567,tripletExp_regina_11082022,2022.2.4,119.85540667586807,
4,12,2,0,0.694444444444444,0.298245614035088,0,0.027777777777778,3.10526315789474,0,0.25,0.298245614035088,ReadingArea_rsl0-rcl69-esl29-rsm0-rcm2-esm310-rsr0-rcr25-esr29,exr/ReadingArea_rsl0-rcl69-esl29-rsm0-rcm2-esm310-rsr0-rcr25-esr29.exr,ReadingArea_rsl0-rcl69-esl29-rsm0-rcm2-esm310-rsr0-rcr25-esr29.npz,,,,,0,62,62,543,,right,red,0.73,287.71278405189514,288.13285517692566,1,1,9,brightness,readingArea,realistic,75,2023-03-31_14h33.20.567,tripletExp_regina_11082022,2022.2.4,119.85540667586807,
2,8,7,0,0.25,0.298245614035088,0,0.25,1.0,0,0.111111111111111,1.0,ReadingArea_rsl0-rcl25-esl29-rsm0-rcm25-esm100-rsr0-rcr11-esr100,exr/ReadingArea_rsl0-rcl25-esl29-rsm0-rcm25-esm100-rsr0-rcr11-esr100.exr,ReadingArea_rsl0-rcl25-esl29-rsm0-rcm25-esm100-rsr0-rcr11-esr100.npz,,,,,0,63,63,393,,left,green,0.91,289.85787200927734,290.31650018692017,1,1,9,brightness,readingArea,realistic,75,2023-03-31_14h33.20.567,tripletExp_regina_11082022,2022.2.4,119.85540667586807,
6,4,10,0,0.027777777777778,1.0,0,0.694444444444444,0.298245614035088,0,0.694444444444444,1.0,ReadingArea_rsl0-rcl2-esl100-rsm0-rcm69-esm29-rsr0-rcr69-esr100,exr/ReadingArea_rsl0-rcl2-esl100-rsm0-rcm69-esm29-rsr0-rcr69-esr100.exr,ReadingArea_rsl0-rcl2-esl100-rsm0-rcm69-esm29-rsr0-rcr69-esr100.npz,,,,,0,64,64,554,,right,red,3.85,295.5817379951477,296.00361800193787,1,1,9,brightness,readingArea,realistic,75,2023-03-31_14h33.20.567,tripletExp_regina_11082022,2022.2.4,119.85540667586807,
3,6,10,0,0.444444444444444,0.298245614035088,0,0.027777777777778,1.0,0,0.694444444444444,1.0,ReadingArea_rsl0-rcl44-esl29-rsm0-rcm2-esm100-rsr0-rcr69-esr100,exr/ReadingArea_rsl0-rcl44-esl29-rsm0-rcm2-esm100-rsr0-rcr69-esr100.exr,ReadingArea_rsl0-rcl44-esl29-rsm0-rcm2-esm100-rsr0-rcr69-esr100.npz,,,,,0,65,65,138,,left,green,0.94,297.70101404190063,298.1239402294159,1,1,9,brightness,readingArea,realistic,75,2023-03-31_14h33.20.567,tripletExp_regina_11082022,2022.2.4,119.85540667586807,
14,6,13,0,0.25,3.10526315789474,0,0.027777777777778,1.0,0,0.111111111111111,3.10526315789474,ReadingArea_rsl0-rcl25-esl310-rsm0-rcm2-esm100-rsr0-rcr11-esr310,exr/ReadingArea_rsl0-rcl25-esl310-rsm0-rcm2-esm100-rsr0-rcr11-esr310.exr,ReadingArea_rsl0-rcl25-esl310-rsm0-rcm2-esm100-rsr0-rcr11-esr310.npz,,,,,0,66,66,91,,right,red,0.58,299.8447160720825,300.26311206817627,1,1,9,brightness,readingArea,realistic,75,2023-03-31_14h33.20.567,tripletExp_regina_11082022,2022.2.4,119.85540667586807,
10,3,14,0,0.694444444444444,1.0,0,0.444444444444444,0.298245614035088,0,0.25,3.10526315789474,ReadingArea_rsl0-rcl69-esl100-rsm0-rcm44-esm29-rsr0-rcr25-esr310,exr/ReadingArea_rsl0-rcl69-esl100-rsm0-rcm44-esm29-rsr0-rcr25-esr310.exr,ReadingArea_rsl0-rcl69-esl100-rsm0-rcm44-esm29-rsr0-rcr25-esr310.npz,,,,,0,67,67,597,,right,red,0.61,301.97922015190125,302.3964350223541,1,1,9,brightness,readingArea,realistic,75,2023-03-31_14h33.20.567,tripletExp_regina_11082022,2022.2.4,119.85540667586807,
13,6,8,0,0.111111111111111,3.10526315789474,0,0.027777777777778,1.0,0,0.25,1.0,ReadingArea_rsl0-rcl11-esl310-rsm0-rcm2-esm100-rsr0-rcr25-esr100,exr/ReadingArea_rsl0-rcl11-esl310-rsm0-rcm2-esm100-rsr0-rcr25-esr100.exr,ReadingArea_rsl0-rcl11-esl310-rsm0-rcm2-esm100-rsr0-rcr25-esr100.npz,,,,,0,68,68,340,,right,red,0.65,304.09014415740967,304.5094211101532,1,1,9,brightness,readingArea,realistic,75,2023-03-31_14h33.20.567,tripletExp_regina_11082022,2022.2.4,119.85540667586807,
8,12,4,0,0.25,1.0,0,0.027777777777778,3.10526315789474,0,0.694444444444444,0.298245614035088,ReadingArea_rsl0-rcl25-esl100-rsm0-rcm2-esm310-rsr0-rcr69-esr29,exr/ReadingArea_rsl0-rcl25-esl100-rsm0-rcm2-esm310-rsr0-rcr69-esr29.exr,ReadingArea_rsl0-rcl25-esl100-rsm0-rcm2-esm310-rsr0-rcr69-esr29.npz,,,,,0,69,69,30,,left,green,0.99,306.2371940612793,306.697270154953,1,1,9,brightness,readingArea,realistic,75,2023-03-31_14h33.20.567,tripletExp_regina_11082022,2022.2.4,119.85540667586807,
7,8,6,0,0.111111111111111,1.0,0,0.25,1.0,0,0.027777777777778,1.0,ReadingArea_rsl0-rcl11-esl100-rsm0-rcm25-esm100-rsr0-rcr2-esr100,exr/ReadingArea_rsl0-rcl11-esl100-rsm0-rcm25-esm100-rsr0-rcr2-esr100.exr,ReadingArea_rsl0-rcl11-esl100-rsm0-rcm25-esm100-rsr0-rcr2-esr100.npz,,,,,0,70,70,387,,left,green,0.94,308.4241042137146,308.8882942199707,1,1,9,brightness,readingArea,realistic,75,2023-03-31_14h33.20.567,tripletExp_regina_11082022,2022.2.4,119.85540667586807,
3,6,11,0,0.444444444444444,0.298245614035088,0,0.027777777777778,1.0,0,1.0,1.0,ReadingArea_rsl0-rcl44-esl29-rsm0-rcm2-esm100-rsr0-rcr100-esr100,exr/ReadingArea_rsl0-rcl44-esl29-rsm0-rcm2-esm100-rsr0-rcr100-esr100.exr,ReadingArea_rsl0-rcl44-esl29-rsm0-rcm2-esm100-rsr0-rcr100-esr100.npz,,,,,0,71,71,155,,left,green,0.73,310.6068592071533,311.02913904190063,1,1,9,brightness,readingArea,realistic,75,2023-03-31_14h33.20.567,tripletExp_regina_11082022,2022.2.4,119.85540667586807,
1,13,11,0,0.111111111111111,0.298245614035088,0,0.111111111111111,3.10526315789474,0,1.0,1.0,ReadingArea_rsl0-rcl11-esl29-rsm0-rcm11-esm310-rsr0-rcr100-esr100,exr/ReadingArea_rsl0-rcl11-esl29-rsm0-rcm11-esm310-rsr0-rcr100-esr100.exr,ReadingArea_rsl0-rcl11-esl29-rsm0-rcm11-esm310-rsr0-rcr100-esr100.npz,,,,,0,72,72,333,,left,green,0.61,312.7189791202545,313.2760810852051,1,1,9,brightness,readingArea,realistic,75,2023-03-31_14h33.20.567,tripletExp_regina_11082022,2022.2.4,119.85540667586807,
3,0,2,0,0.444444444444444,0.298245614035088,0,0.027777777777778,0.298245614035088,0,0.25,0.298245614035088,ReadingArea_rsl0-rcl44-esl29-rsm0-rcm2-esm29-rsr0-rcr25-esr29,exr/ReadingArea_rsl0-rcl44-esl29-rsm0-rcm2-esm29-rsr0-rcr25-esr29.exr,ReadingArea_rsl0-rcl44-esl29-rsm0-rcm2-esm29-rsr0-rcr25-esr29.npz,,,,,0,73,73,334,,right,red,0.75,314.96653604507446,315.3865900039673,1,1,9,brightness,readingArea,realistic,75,2023-03-31_14h33.20.567,tripletExp_regina_11082022,2022.2.4,119.85540667586807,
2,9,12,0,0.25,0.298245614035088,0,0.444444444444444,1.0,0,0.027777777777778,3.10526315789474,ReadingArea_rsl0-rcl25-esl29-rsm0-rcm44-esm100-rsr0-rcr2-esr310,exr/ReadingArea_rsl0-rcl25-esl29-rsm0-rcm44-esm100-rsr0-rcr2-esr310.exr,ReadingArea_rsl0-rcl25-esl29-rsm0-rcm44-esm100-rsr0-rcr2-esr310.npz,,,,,0,74,74,354,,left,green,2.17,318.89444518089294,319.09798216819763,1,1,9,brightness,readingArea,realistic,75,2023-03-31_14h33.20.567,tripletExp_regina_11082022,2022.2.4,119.85540667586807,
12,5,10,0,0.027777777777778,3.10526315789474,0,1.0,0.298245614035088,0,0.694444444444444,1.0,ReadingArea_rsl0-rcl2-esl310-rsm0-rcm100-esm29-rsr0-rcr69-esr100,exr/ReadingArea_rsl0-rcl2-esl310-rsm0-rcm100-esm29-rsr0-rcr69-esr100.exr,ReadingArea_rsl0-rcl2-esl310-rsm0-rcm100-esm29-rsr0-rcr69-esr100.npz,,,,,0,75,75,493,,right,red,0.75,321.8199071884155,322.24245619773865,2,1,9,brightness,readingArea,realistic,75,2023-03-31_14h33.20.567,tripletExp_regina_11082022,2022.2.4,119.85540667586807,
4,14,12,0,0.694444444444444,0.298245614035088,0,0.25,3.10526315789474,0,0.027777777777778,3.10526315789474,ReadingArea_rsl0-rcl69-esl29-rsm0-rcm25-esm310-rsr0-rcr2-esr310,exr/ReadingArea_rsl0-rcl69-esl29-rsm0-rcm25-esm310-rsr0-rcr2-esr310.exr,ReadingArea_rsl0-rcl69-esl29-rsm0-rcm25-esm310-rsr0-rcr2-esr310.npz,,,,,0,76,76,392,,left,green,0.63,323.9537971019745,324.37374806404114,2,1,9,brightness,readingArea,realistic,75,2023-03-31_14h33.20.567,tripletExp_regina_11082022,2022.2.4,119.85540667586807,
3,6,5,0,0.444444444444444,0.298245614035088,0,0.027777777777778,1.0,0,1.0,0.298245614035088,ReadingArea_rsl0-rcl44-esl29-rsm0-rcm2-esm100-rsr0-rcr100-esr29,exr/ReadingArea_rsl0-rcl44-esl29-rsm0-rcm2-esm100-rsr0-rcr100-esr29.exr,ReadingArea_rsl0-rcl44-esl29-rsm0-rcm2-esm100-rsr0-rcr100-esr29.npz,,,,,0,77,77,274,,left,green,0.72,326.09839510917664,326.51528811454773,2,1,9,brightness,readingArea,realistic,75,2023-03-31_14h33.20.567,tripletExp_regina_11082022,2022.2.4,119.85540667586807,
8,1,6,0,0.25,1.0,0,0.111111111111111,0.298245614035088,0,0.027777777777778,1.0,ReadingArea_rsl0-rcl25-esl100-rsm0-rcm11-esm29-rsr0-rcr2-esr100,exr/ReadingArea_rsl0-rcl25-esl100-rsm0-rcm11-esm29-rsr0-rcr2-esr100.exr,ReadingArea_rsl0-rcl25-esl100-rsm0-rcm11-esm29-rsr0-rcr2-esr100.npz,,,,,0,78,78,62,,right,red,0.72,328.2072551250458,328.6360230445862,2,1,9,brightness,readingArea,realistic,75,2023-03-31_14h33.20.567,tripletExp_regina_11082022,2022.2.4,119.85540667586807,
4,8,11,0,0.694444444444444,0.298245614035088,0,0.25,1.0,0,1.0,1.0,ReadingArea_rsl0-rcl69-esl29-rsm0-rcm25-esm100-rsr0-rcr100-esr100,exr/ReadingArea_rsl0-rcl69-esl29-rsm0-rcm25-esm100-rsr0-rcr100-esr100.exr,ReadingArea_rsl0-rcl69-esl29-rsm0-rcm25-esm100-rsr0-rcr100-esr100.npz,,,,,0,79,79,403,,left,green,0.98,330.35552310943604,330.7771461009979,2,1,9,brightness,readingArea,realistic,75,2023-03-31_14h33.20.567,tripletExp_regina_11082022,2022.2.4,119.85540667586807,
8,10,9,0,0.25,1.0,0,0.694444444444444,1.0,0,0.444444444444444,1.0,ReadingArea_rsl0-rcl25-esl100-rsm0-rcm69-esm100-rsr0-rcr44-esr100,exr/ReadingArea_rsl0-rcl25-esl100-rsm0-rcm69-esm100-rsr0-rcr44-esr100.exr,ReadingArea_rsl0-rcl25-esl100-rsm0-rcm69-esm100-rsr0-rcr44-esr100.npz,,,,,0,80,80,342,,right,red,2.88,334.2294261455536,334.6528160572052,2,1,9,brightness,readingArea,realistic,75,2023-03-31_14h33.20.567,tripletExp_regina_11082022,2022.2.4,119.85540667586807,
13,10,3,0,0.111111111111111,3.10526315789474,0,0.694444444444444,1.0,0,0.444444444444444,0.298245614035088,ReadingArea_rsl0-rcl11-esl310-rsm0-rcm69-esm100-rsr0-rcr44-esr29,exr/ReadingArea_rsl0-rcl11-esl310-rsm0-rcm69-esm100-rsr0-rcr44-esr29.exr,ReadingArea_rsl0-rcl11-esl310-rsm0-rcm69-esm100-rsr0-rcr44-esr29.npz,,,,,0,81,81,224,,left,green,1.28,336.3583700656891,336.87690019607544,2,1,9,brightness,readingArea,realistic,75,2023-03-31_14h33.20.567,tripletExp_regina_11082022,2022.2.4,119.85540667586807,
1,9,11,0,0.111111111111111,0.298245614035088,0,0.444444444444444,1.0,0,1.0,1.0,ReadingArea_rsl0-rcl11-esl29-rsm0-rcm44-esm100-rsr0-rcr100-esr100,exr/ReadingArea_rsl0-rcl11-esl29-rsm0-rcm44-esm100-rsr0-rcr100-esr100.exr,ReadingArea_rsl0-rcl11-esl29-rsm0-rcm44-esm100-rsr0-rcr100-esr100.npz,,,,,0,82,82,215,,right,red,0.8,338.59263706207275,339.006774187088,2,1,9,brightness,readingArea,realistic,75,2023-03-31_14h33.20.567,tripletExp_regina_11082022,2022.2.4,119.85540667586807,
0,9,14,0,0.027777777777778,0.298245614035088,0,0.444444444444444,1.0,0,0.25,3.10526315789474,ReadingArea_rsl0-rcl2-esl29-rsm0-rcm44-esm100-rsr0-rcr25-esr310,exr/ReadingArea_rsl0-rcl2-esl29-rsm0-rcm44-esm100-rsr0-rcr25-esr310.exr,ReadingArea_rsl0-rcl2-esl29-rsm0-rcm44-esm100-rsr0-rcr25-esr310.npz,,,,,0,83,83,433,,right,red,0.79,340.71901416778564,341.17341804504395,2,1,9,brightness,readingArea,realistic,75,2023-03-31_14h33.20.567,tripletExp_regina_11082022,2022.2.4,119.85540667586807,
5,4,1,0,1.0,0.298245614035088,0,0.694444444444444,0.298245614035088,0,0.111111111111111,0.298245614035088,ReadingArea_rsl0-rcl100-esl29-rsm0-rcm69-esm29-rsr0-rcr11-esr29,exr/ReadingArea_rsl0-rcl100-esl29-rsm0-rcm69-esm29-rsr0-rcr11-esr29.exr,ReadingArea_rsl0-rcl100-esl29-rsm0-rcm69-esm29-rsr0-rcr11-esr29.npz,,,,,0,84,84,560,,left,green,0.86,342.8667531013489,343.2844111919403,2,1,9,brightness,readingArea,realistic,75,2023-03-31_14h33.20.567,tripletExp_regina_11082022,2022.2.4,119.85540667586807,
14,0,9,0,0.25,3.10526315789474,0,0.027777777777778,0.298245614035088,0,0.444444444444444,1.0,ReadingArea_rsl0-rcl25-esl310-rsm0-rcm2-esm29-rsr0-rcr44-esr100,exr/ReadingArea_rsl0-rcl25-esl310-rsm0-rcm2-esm29-rsr0-rcr44-esr100.exr,ReadingArea_rsl0-rcl25-esl310-rsm0-rcm2-esm29-rsr0-rcr44-esr100.npz,,,,,0,85,85,90,,right,red,0.91,345.00541710853577,345.43182921409607,2,1,9,brightness,readingArea,realistic,75,2023-03-31_14h33.20.567,tripletExp_regina_11082022,2022.2.4,119.85540667586807,
8,3,9,0,0.25,1.0,0,0.444444444444444,0.298245614035088,0,0.444444444444444,1.0,ReadingArea_rsl0-rcl25-esl100-rsm0-rcm44-esm29-rsr0-rcr44-esr100,exr/ReadingArea_rsl0-rcl25-esl100-rsm0-rcm44-esm29-rsr0-rcr44-esr100.exr,ReadingArea_rsl0-rcl25-esl100-rsm0-rcm44-esm29-rsr0-rcr44-esr100.npz,,,,,0,86,86,15,,left,green,0.78,347.120521068573,,2,1,9,brightness,readingArea,realistic,75,2023-03-31_14h33.20.567,tripletExp_regina_11082022,2022.2.4,119.85540667586807,
0,5,1,0,0.027777777777778,0.298245614035088,0,1.0,0.298245614035088,0,0.111111111111111,0.298245614035088,ReadingArea_rsl0-rcl2-esl29-rsm0-rcm100-esm29-rsr0-rcr11-esr29,exr/ReadingArea_rsl0-rcl2-esl29-rsm0-rcm100-esm29-rsr0-rcr11-esr29.exr,ReadingArea_rsl0-rcl2-esl29-rsm0-rcm100-esm29-rsr0-rcr11-esr29.npz,,,,,0,87,87,367,,right,red,2.14,350.9906270503998,351.4153940677643,2,1,9,brightness,readingArea,realistic,75,2023-03-31_14h33.20.567,tripletExp_regina_11082022,2022.2.4,119.85540667586807,
2,13,3,0,0.25,0.298245614035088,0,0.111111111111111,3.10526315789474,0,0.444444444444444,0.298245614035088,ReadingArea_rsl0-rcl25-esl29-rsm0-rcm11-esm310-rsr0-rcr44-esr29,exr/ReadingArea_rsl0-rcl25-esl29-rsm0-rcm11-esm310-rsr0-rcr44-esr29.exr,ReadingArea_rsl0-rcl25-esl29-rsm0-rcm11-esm310-rsr0-rcr44-esr29.npz,,,,,0,88,88,473,,left,green,1.22,353.1097152233124,353.53070402145386,2,1,9,brightness,readingArea,realistic,75,2023-03-31_14h33.20.567,tripletExp_regina_11082022,2022.2.4,119.85540667586807,
6,11,3,0,0.027777777777778,1.0,0,1.0,1.0,0,0.444444444444444,0.298245614035088,ReadingArea_rsl0-rcl2-esl100-rsm0-rcm100-esm100-rsr0-rcr44-esr29,exr/ReadingArea_rsl0-rcl2-esl100-rsm0-rcm100-esm100-rsr0-rcr44-esr29.exr,ReadingArea_rsl0-rcl2-esl100-rsm0-rcm100-esm100-rsr0-rcr44-esr29.npz,,,,,0,89,89,11,,right,red,0.79,355.2196650505066,355.6414330005646,2,1,9,brightness,readingArea,realistic,75,2023-03-31_14h33.20.567,tripletExp_regina_11082022,2022.2.4,119.85540667586807,
0,4,12,0,0.027777777777778,0.298245614035088,0,0.694444444444444,0.298245614035088,0,0.027777777777778,3.10526315789474,ReadingArea_rsl0-rcl2-esl29-rsm0-rcm69-esm29-rsr0-rcr2-esr310,exr/ReadingArea_rsl0-rcl2-esl29-rsm0-rcm69-esm29-rsr0-rcr2-esr310.exr,ReadingArea_rsl0-rcl2-esl29-rsm0-rcm69-esm29-rsr0-rcr2-esr310.npz,,,,,0,90,90,150,,right,red,1.04,357.34647703170776,357.7640290260315,2,1,9,brightness,readingArea,realistic,75,2023-03-31_14h33.20.567,tripletExp_regina_11082022,2022.2.4,119.85540667586807,
12,10,9,0,0.027777777777778,3.10526315789474,0,0.694444444444444,1.0,0,0.444444444444444,1.0,ReadingArea_rsl0-rcl2-esl310-rsm0-rcm69-esm100-rsr0-rcr44-esr100,exr/ReadingArea_rsl0-rcl2-esl310-rsm0-rcm69-esm100-rsr0-rcr44-esr100.exr,ReadingArea_rsl0-rcl2-esl310-rsm0-rcm69-esm100-rsr0-rcr44-esr100.npz,,,,,0,91,91,126,,right,red,0.68,359.46030712127686,359.9195511341095,2,1,9,brightness,readingArea,realistic,75,2023-03-31_14h33.20.567,tripletExp_regina_11082022,2022.2.4,119.85540667586807,
9,0,14,0,0.444444444444444,1.0,0,0.027777777777778,0.298245614035088,0,0.25,3.10526315789474,ReadingArea_rsl0-rcl44-esl100-rsm0-rcm2-esm29-rsr0-rcr25-esr310,exr/ReadingArea_rsl0-rcl44-esl100-rsm0-rcm2-esm29-rsr0-rcr25-esr310.exr,ReadingArea_rsl0-rcl44-esl100-rsm0-rcm2-esm29-rsr0-rcr25-esr310.npz,,,,,0,92,92,550,,left,green,1.17,361.6362781524658,362.0819320678711,2,1,9,brightness,readingArea,realistic,75,2023-03-31_14h33.20.567,tripletExp_regina_11082022,2022.2.4,119.85540667586807,
1,13,14,0,0.111111111111111,0.298245614035088,0,0.111111111111111,3.10526315789474,0,0.25,3.10526315789474,ReadingArea_rsl0-rcl11-esl29-rsm0-rcm11-esm310-rsr0-rcr25-esr310,exr/ReadingArea_rsl0-rcl11-esl29-rsm0-rcm11-esm310-rsr0-rcr25-esr310.exr,ReadingArea_rsl0-rcl11-esl29-rsm0-rcm11-esm310-rsr0-rcr25-esr310.npz,,,,,0,93,93,183,,left,green,0.71,363.7826840877533,364.2124171257019,2,1,9,brightness,readingArea,realistic,75,2023-03-31_14h33.20.567,tripletExp_regina_11082022,2022.2.4,119.85540667586807,
6,13,8,0,0.027777777777778,1.0,0,0.111111111111111,3.10526315789474,0,0.25,1.0,ReadingArea_rsl0-rcl2-esl100-rsm0-rcm11-esm310-rsr0-rcr25-esr100,exr/ReadingArea_rsl0-rcl2-esl100-rsm0-rcm11-esm310-rsr0-rcr25-esr100.exr,ReadingArea_rsl0-rcl2-esl100-rsm0-rcm11-esm310-rsr0-rcr25-esr100.npz,,,,,0,94,94,535,,right,red,0.68,365.90538907051086,366.3245801925659,2,1,9,brightness,readingArea,realistic,75,2023-03-31_14h33.20.567,tripletExp_regina_11082022,2022.2.4,119.85540667586807,
2,7,11,0,0.25,0.298245614035088,0,0.111111111111111,1.0,0,1.0,1.0,ReadingArea_rsl0-rcl25-esl29-rsm0-rcm11-esm100-rsr0-rcr100-esr100,exr/ReadingArea_rsl0-rcl25-esl29-rsm0-rcm11-esm100-rsr0-rcr100-esr100.exr,ReadingArea_rsl0-rcl25-esl29-rsm0-rcm11-esm100-rsr0-rcr100-esr100.npz,,,,,0,95,95,194,,left,green,0.51,368.04425406455994,368.467511177063,2,1,9,brightness,readingArea,realistic,75,2023-03-31_14h33.20.567,tripletExp_regina_11082022,2022.2.4,119.85540667586807,
13,8,0,0,0.111111111111111,3.10526315789474,0,0.25,1.0,0,0.027777777777778,0.298245614035088,ReadingArea_rsl0-rcl11-esl310-rsm0-rcm25-esm100-rsr0-rcr2-esr29,exr/ReadingArea_rsl0-rcl11-esl310-rsm0-rcm25-esm100-rsr0-rcr2-esr29.exr,ReadingArea_rsl0-rcl11-esl310-rsm0-rcm25-esm100-rsr0-rcr2-esr29.npz,,,,,0,96,96,429,,left,green,0.51,370.1697540283203,370.59715509414673,2,1,9,brightness,readingArea,realistic,75,2023-03-31_14h33.20.567,tripletExp_regina_11082022,2022.2.4,119.85540667586807,
5,8,2,0,1.0,0.298245614035088,0,0.25,1.0,0,0.25,0.298245614035088,ReadingArea_rsl0-rcl100-esl29-rsm0-rcm25-esm100-rsr0-rcr25-esr29,exr/ReadingArea_rsl0-rcl100-esl29-rsm0-rcm25-esm100-rsr0-rcr25-esr29.exr,ReadingArea_rsl0-rcl100-esl29-rsm0-rcm25-esm100-rsr0-rcr25-esr29.npz,,,,,0,97,97,65,,left,green,0.48,372.2879581451416,372.7103531360626,2,1,9,brightness,readingArea,realistic,75,2023-03-31_14h33.20.567,tripletExp_regina_11082022,2022.2.4,119.85540667586807,
2,4,14,0,0.25,0.298245614035088,0,0.694444444444444,0.298245614035088,0,0.25,3.10526315789474,ReadingArea_rsl0-rcl25-esl29-rsm0-rcm69-esm29-rsr0-rcr25-esr310,exr/ReadingArea_rsl0-rcl25-esl29-rsm0-rcm69-esm29-rsr0-rcr25-esr310.exr,ReadingArea_rsl0-rcl25-esl29-rsm0-rcm69-esm29-rsr0-rcr25-esr310.npz,,,,,0,98,98,356,,left,green,0.97,374.401682138443,374.8257520198822,2,1,9,brightness,readingArea,realistic,75,2023-03-31_14h33.20.567,tripletExp_regina_11082022,2022.2.4,119.85540667586807,
2,1,14,0,0.25,0.298245614035088,0,0.111111111111111,0.298245614035088,0,0.25,3.10526315789474,ReadingArea_rsl0-rcl25-esl29-rsm0-rcm11-esm29-rsr0-rcr25-esr310,exr/ReadingArea_rsl0-rcl25-esl29-rsm0-rcm11-esm29-rsr0-rcr25-esr310.exr,ReadingArea_rsl0-rcl25-esl29-rsm0-rcm11-esm29-rsr0-rcr25-esr310.npz,,,,,0,99,99,59,,left,green,0.52,376.5196681022644,376.9445700645447,2,1,9,brightness,readingArea,realistic,75,2023-03-31_14h33.20.567,tripletExp_regina_11082022,2022.2.4,119.85540667586807,
5,2,0,0,1.0,0.298245614035088,0,0.25,0.298245614035088,0,0.027777777777778,0.298245614035088,ReadingArea_rsl0-rcl100-esl29-rsm0-rcm25-esm29-rsr0-rcr2-esr29,exr/ReadingArea_rsl0-rcl100-esl29-rsm0-rcm25-esm29-rsr0-rcr2-esr29.exr,ReadingArea_rsl0-rcl100-esl29-rsm0-rcm25-esm29-rsr0-rcr2-esr29.npz,,,,,0,100,100,476,,right,red,0.78,378.6331820487976,379.0526440143585,2,1,9,brightness,readingArea,realistic,75,2023-03-31_14h33.20.567,tripletExp_regina_11082022,2022.2.4,119.85540667586807,
7,8,12,0,0.111111111111111,1.0,0,0.25,1.0,0,0.027777777777778,3.10526315789474,ReadingArea_rsl0-rcl11-esl100-rsm0-rcm25-esm100-rsr0-rcr2-esr310,exr/ReadingArea_rsl0-rcl11-esl100-rsm0-rcm25-esm100-rsr0-rcr2-esr310.exr,ReadingArea_rsl0-rcl11-esl100-rsm0-rcm25-esm100-rsr0-rcr2-esr310.npz,,,,,0,101,101,271,,left,green,1.11,380.7652962207794,381.1849400997162,2,1,9,brightness,readingArea,realistic,75,2023-03-31_14h33.20.567,tripletExp_regina_11082022,2022.2.4,119.85540667586807,
10,7,3,0,0.694444444444444,1.0,0,0.111111111111111,1.0,0,0.444444444444444,0.298245614035088,ReadingArea_rsl0-rcl69-esl100-rsm0-rcm11-esm100-rsr0-rcr44-esr29,exr/ReadingArea_rsl0-rcl69-esl100-rsm0-rcm11-esm100-rsr0-rcr44-esr29.exr,ReadingArea_rsl0-rcl69-esl100-rsm0-rcm11-esm100-rsr0-rcr44-esr29.npz,,,,,0,102,102,582,,right,red,0.62,382.88499212265015,,2,1,9,brightness,readingArea,realistic,75,2023-03-31_14h33.20.567,tripletExp_regina_11082022,2022.2.4,119.85540667586807,
6,10,8,0,0.027777777777778,1.0,0,0.694444444444444,1.0,0,0.25,1.0,ReadingArea_rsl0-rcl2-esl100-rsm0-rcm69-esm100-rsr0-rcr25-esr100,exr/ReadingArea_rsl0-rcl2-esl100-rsm0-rcm69-esm100-rsr0-rcr25-esr100.exr,ReadingArea_rsl0-rcl2-esl100-rsm0-rcm69-esm100-rsr0-rcr25-esr100.npz,,,,,0,103,103,167,,right,red,0.7,385.0223882198334,385.4438190460205,2,1,9,brightness,readingArea,realistic,75,2023-03-31_14h33.20.567,tripletExp_regina_11082022,2022.2.4,119.85540667586807,
5,1,4,0,1.0,0.298245614035088,0,0.111111111111111,0.298245614035088,0,0.694444444444444,0.298245614035088,ReadingArea_rsl0-rcl100-esl29-rsm0-rcm11-esm29-rsr0-rcr69-esr29,exr/ReadingArea_rsl0-rcl100-esl29-rsm0-rcm11-esm29-rsr0-rcr69-esr29.exr,ReadingArea_rsl0-rcl100-esl29-rsm0-rcm11-esm29-rsr0-rcr69-esr29.npz,,,,,0,104,104,287,,right,red,0.86,387.1421401500702,387.5601351261139,2,1,9,brightness,readingArea,realistic,75,2023-03-31_14h33.20.567,tripletExp_regina_11082022,2022.2.4,119.85540667586807,
14,0,3,0,0.25,3.10526315789474,0,0.027777777777778,0.298245614035088,0,0.444444444444444,0.298245614035088,ReadingArea_rsl0-rcl25-esl310-rsm0-rcm2-esm29-rsr0-rcr44-esr29,exr/ReadingArea_rsl0-rcl25-esl310-rsm0-rcm2-esm29-rsr0-rcr44-esr29.exr,ReadingArea_rsl0-rcl25-esl310-rsm0-rcm2-esm29-rsr0-rcr44-esr29.npz,,,,,0,105,105,75,,right,red,0.66,389.2512471675873,389.66888213157654,2,1,9,brightness,readingArea,realistic,75,2023-03-31_14h33.20.567,tripletExp_regina_11082022,2022.2.4,119.85540667586807,
14,9,0,0,0.25,3.10526315789474,0,0.444444444444444,1.0,0,0.027777777777778,0.298245614035088,ReadingArea_rsl0-rcl25-esl310-rsm0-rcm44-esm100-rsr0-rcr2-esr29,exr/ReadingArea_rsl0-rcl25-esl310-rsm0-rcm44-esm100-rsr0-rcr2-esr29.exr,ReadingArea_rsl0-rcl25-esl310-rsm0-rcm44-esm100-rsr0-rcr2-esr29.npz,,,,,0,106,106,313,,left,green,0.6,391.35868406295776,391.81680512428284,2,1,9,brightness,readingArea,realistic,75,2023-03-31_14h33.20.567,tripletExp_regina_11082022,2022.2.4,119.85540667586807,
6,1,14,0,0.027777777777778,1.0,0,0.111111111111111,0.298245614035088,0,0.25,3.10526315789474,ReadingArea_rsl0-rcl2-esl100-rsm0-rcm11-esm29-rsr0-rcr25-esr310,exr/ReadingArea_rsl0-rcl2-esl100-rsm0-rcm11-esm29-rsr0-rcr25-esr310.exr,ReadingArea_rsl0-rcl2-esl100-rsm0-rcm11-esm29-rsr0-rcr25-esr310.npz,,,,,0,107,107,381,,left,green,0.66,393.5237171649933,393.9433181285858,2,1,9,brightness,readingArea,realistic,75,2023-03-31_14h33.20.567,tripletExp_regina_11082022,2022.2.4,119.85540667586807,
11,10,0,0,1.0,1.0,0,0.694444444444444,1.0,0,0.027777777777778,0.298245614035088,ReadingArea_rsl0-rcl100-esl100-rsm0-rcm69-esm100-rsr0-rcr2-esr29,exr/ReadingArea_rsl0-rcl100-esl100-rsm0-rcm69-esm100-rsr0-rcr2-esr29.exr,ReadingArea_rsl0-rcl100-esl100-rsm0-rcm69-esm100-rsr0-rcr2-esr29.npz,,,,,0,108,108,549,,left,green,0.59,395.64069414138794,396.1286430358887,2,1,9,brightness,readingArea,realistic,75,2023-03-31_14h33.20.567,tripletExp_regina_11082022,2022.2.4,119.85540667586807,
13,3,14,0,0.111111111111111,3.10526315789474,0,0.444444444444444,0.298245614035088,0,0.25,3.10526315789474,ReadingArea_rsl0-rcl11-esl310-rsm0-rcm44-esm29-rsr0-rcr25-esr310,exr/ReadingArea_rsl0-rcl11-esl310-rsm0-rcm44-esm29-rsr0-rcr25-esr310.exr,ReadingArea_rsl0-rcl11-esl310-rsm0-rcm44-esm29-rsr0-rcr25-esr310.npz,,,,,0,109,109,38,,left,green,0.65,397.8183522224426,398.2389090061188,2,1,9,brightness,readingArea,realistic,75,2023-03-31_14h33.20.567,tripletExp_regina_11082022,2022.2.4,119.85540667586807,
11,8,2,0,1.0,1.0,0,0.25,1.0,0,0.25,0.298245614035088,ReadingArea_rsl0-rcl100-esl100-rsm0-rcm25-esm100-rsr0-rcr25-esr29,exr/ReadingArea_rsl0-rcl100-esl100-rsm0-rcm25-esm100-rsr0-rcr25-esr29.exr,ReadingArea_rsl0-rcl100-esl100-rsm0-rcm25-esm100-rsr0-rcr25-esr29.npz,,,,,0,110,110,406,,right,red,0.61,399.9276440143585,400.35006523132324,2,1,9,brightness,readingArea,realistic,75,2023-03-31_14h33.20.567,tripletExp_regina_11082022,2022.2.4,119.85540667586807,
11,2,8,0,1.0,1.0,0,0.25,0.298245614035088,0,0.25,1.0,ReadingArea_rsl0-rcl100-esl100-rsm0-rcm25-esm29-rsr0-rcr25-esr100,exr/ReadingArea_rsl0-rcl100-esl100-rsm0-rcm25-esm29-rsr0-rcr25-esr100.exr,ReadingArea_rsl0-rcl100-esl100-rsm0-rcm25-esm29-rsr0-rcr25-esr100.npz,,,,,0,111,111,214,,right,red,0.63,402.0768630504608,402.50042819976807,2,1,9,brightness,readingArea,realistic,75,2023-03-31_14h33.20.567,tripletExp_regina_11082022,2022.2.4,119.85540667586807,
7,8,11,0,0.111111111111111,1.0,0,0.25,1.0,0,1.0,1.0,ReadingArea_rsl0-rcl11-esl100-rsm0-rcm25-esm100-rsr0-rcr100-esr100,exr/ReadingArea_rsl0-rcl11-esl100-rsm0-rcm25-esm100-rsr0-rcr100-esr100.exr,ReadingArea_rsl0-rcl11-esl100-rsm0-rcm25-esm100-rsr0-rcr100-esr100.npz,,,,,0,112,112,363,,left,green,0.61,404.1927192211151,404.6167390346527,2,1,9,brightness,readingArea,realistic,75,2023-03-31_14h33.20.567,tripletExp_regina_11082022,2022.2.4,119.85540667586807,
1,13,7,0,0.111111111111111,0.298245614035088,0,0.111111111111111,3.10526315789474,0,0.111111111111111,1.0,ReadingArea_rsl0-rcl11-esl29-rsm0-rcm11-esm310-rsr0-rcr11-esr100,exr/ReadingArea_rsl0-rcl11-esl29-rsm0-rcm11-esm310-rsr0-rcr11-esr100.exr,ReadingArea_rsl0-rcl11-esl29-rsm0-rcm11-esm310-rsr0-rcr11-esr100.npz,,,,,0,113,113,158,,right,red,2.1,408.1153841018677,408.6047110557556,2,1,9,brightness,readingArea,realistic,75,2023-03-31_14h33.20.567,tripletExp_regina_11082022,2022.2.4,119.85540667586807,
12,13,10,0,0.027777777777778,3.10526315789474,0,0.111111111111111,3.10526315789474,0,0.694444444444444,1.0,ReadingArea_rsl0-rcl2-esl310-rsm0-rcm11-esm310-rsr0-rcr69-esr100,exr/ReadingArea_rsl0-rcl2-esl310-rsm0-rcm11-esm310-rsr0-rcr69-esr100.exr,ReadingArea_rsl0-rcl2-esl310-rsm0-rcm11-esm310-rsr0-rcr69-esr100.npz,,,,,0,114,114,295,,left,green,1.06,410.3206741809845,410.738783121109,2,1,9,brightness,readingArea,realistic,75,2023-03-31_14h33.20.567,tripletExp_regina_11082022,2022.2.4,119.85540667586807,
13,7,11,0,0.111111111111111,3.10526315789474,0,0.111111111111111,1.0,0,1.0,1.0,ReadingArea_rsl0-rcl11-esl310-rsm0-rcm11-esm100-rsr0-rcr100-esr100,exr/ReadingArea_rsl0-rcl11-esl310-rsm0-rcm11-esm100-rsr0-rcr100-esr100.exr,ReadingArea_rsl0-rcl11-esl310-rsm0-rcm11-esm100-rsr0-rcr100-esr100.npz,,,,,0,115,115,121,,left,green,0.54,412.44730520248413,,2,1,9,brightness,readingArea,realistic,75,2023-03-31_14h33.20.567,tripletExp_regina_11082022,2022.2.4,119.85540667586807,
13,0,9,0,0.111111111111111,3.10526315789474,0,0.027777777777778,0.298245614035088,0,0.444444444444444,1.0,ReadingArea_rsl0-rcl11-esl310-rsm0-rcm2-esm29-rsr0-rcr44-esr100,exr/ReadingArea_rsl0-rcl11-esl310-rsm0-rcm2-esm29-rsr0-rcr44-esr100.exr,ReadingArea_rsl0-rcl11-esl310-rsm0-rcm2-esm29-rsr0-rcr44-esr100.npz,,,,,0,116,116,373,,left,green,0.88,414.56742811203003,414.99547815322876,2,1,9,brightness,readingArea,realistic,75,2023-03-31_14h33.20.567,tripletExp_regina_11082022,2022.2.4,119.85540667586807,
5,3,10,0,1.0,0.298245614035088,0,0.444444444444444,0.298245614035088,0,0.694444444444444,1.0,ReadingArea_rsl0-rcl100-esl29-rsm0-rcm44-esm29-rsr0-rcr69-esr100,exr/ReadingArea_rsl0-rcl100-esl29-rsm0-rcm44-esm29-rsr0-rcr69-esr100.exr,ReadingArea_rsl0-rcl100-esl29-rsm0-rcm44-esm29-rsr0-rcr69-esr100.npz,,,,,0,117,117,546,,left,green,1.18,416.6896080970764,,2,1,9,brightness,readingArea,realistic,75,2023-03-31_14h33.20.567,tripletExp_regina_11082022,2022.2.4,119.85540667586807,
4,14,1,0,0.694444444444444,0.298245614035088,0,0.25,3.10526315789474,0,0.111111111111111,0.298245614035088,ReadingArea_rsl0-rcl69-esl29-rsm0-rcm25-esm310-rsr0-rcr11-esr29,exr/ReadingArea_rsl0-rcl69-esl29-rsm0-rcm25-esm310-rsr0-rcr11-esr29.exr,ReadingArea_rsl0-rcl69-esl29-rsm0-rcm25-esm310-rsr0-rcr11-esr29.npz,,,,,0,118,118,477,,left,green,0.95,418.86875915527344,419.29369020462036,2,1,9,brightness,readingArea,realistic,75,2023-03-31_14h33.20.567,tripletExp_regina_11082022,2022.2.4,119.85540667586807,
8,6,0,0,0.25,1.0,0,0.027777777777778,1.0,0,0.027777777777778,0.298245614035088,ReadingArea_rsl0-rcl25-esl100-rsm0-rcm2-esm100-rsr0-rcr2-esr29,exr/ReadingArea_rsl0-rcl25-esl100-rsm0-rcm2-esm100-rsr0-rcr2-esr29.exr,ReadingArea_rsl0-rcl25-esl100-rsm0-rcm2-esm100-rsr0-rcr2-esr29.npz,,,,,0,119,119,187,,right,red,0.72,421.0182411670685,421.44461822509766,2,1,9,brightness,readingArea,realistic,75,2023-03-31_14h33.20.567,tripletExp_regina_11082022,2022.2.4,119.85540667586807,
4,2,9,0,0.694444444444444,0.298245614035088,0,0.25,0.298245614035088,0,0.444444444444444,1.0,ReadingArea_rsl0-rcl69-esl29-rsm0-rcm25-esm29-rsr0-rcr44-esr100,exr/ReadingArea_rsl0-rcl69-esl29-rsm0-rcm25-esm29-rsr0-rcr44-esr100.exr,ReadingArea_rsl0-rcl69-esl29-rsm0-rcm25-esm29-rsr0-rcr44-esr100.npz,,,,,0,120,120,479,,left,green,0.63,423.1614429950714,423.64920020103455,2,1,9,brightness,readingArea,realistic,75,2023-03-31_14h33.20.567,tripletExp_regina_11082022,2022.2.4,119.85540667586807,
5,14,3,0,1.0,0.298245614035088,0,0.25,3.10526315789474,0,0.444444444444444,0.298245614035088,ReadingArea_rsl0-rcl100-esl29-rsm0-rcm25-esm310-rsr0-rcr44-esr29,exr/ReadingArea_rsl0-rcl100-esl29-rsm0-rcm25-esm310-rsr0-rcr44-esr29.exr,ReadingArea_rsl0-rcl100-esl29-rsm0-rcm25-esm310-rsr0-rcr44-esr29.npz,,,,,0,121,121,93,,left,green,0.64,425.34581303596497,425.7704610824585,2,1,9,brightness,readingArea,realistic,75,2023-03-31_14h33.20.567,tripletExp_regina_11082022,2022.2.4,119.85540667586807,
14,3,2,0,0.25,3.10526315789474,0,0.444444444444444,0.298245614035088,0,0.25,0.298245614035088,ReadingArea_rsl0-rcl25-esl310-rsm0-rcm44-esm29-rsr0-rcr25-esr29,exr/ReadingArea_rsl0-rcl25-esl310-rsm0-rcm44-esm29-rsr0-rcr25-esr29.exr,ReadingArea_rsl0-rcl25-esl310-rsm0-rcm44-esm29-rsr0-rcr25-esr29.npz,,,,,0,122,122,52,,right,red,0.9,427.4625220298767,427.88859701156616,2,1,9,brightness,readingArea,realistic,75,2023-03-31_14h33.20.567,tripletExp_regina_11082022,2022.2.4,119.85540667586807,
2,11,7,0,0.25,0.298245614035088,0,1.0,1.0,0,0.111111111111111,1.0,ReadingArea_rsl0-rcl25-esl29-rsm0-rcm100-esm100-rsr0-rcr11-esr100,exr/ReadingArea_rsl0-rcl25-esl29-rsm0-rcm100-esm100-rsr0-rcr11-esr100.exr,ReadingArea_rsl0-rcl25-esl29-rsm0-rcm100-esm100-rsr0-rcr11-esr100.npz,,,,,0,123,123,576,,right,red,1.17,429.5799951553345,430.00815510749817,2,1,9,brightness,readingArea,realistic,75,2023-03-31_14h33.20.567,tripletExp_regina_11082022,2022.2.4,119.85540667586807,
1,4,7,0,0.111111111111111,0.298245614035088,0,0.694444444444444,0.298245614035088,0,0.111111111111111,1.0,ReadingArea_rsl0-rcl11-esl29-rsm0-rcm69-esm29-rsr0-rcr11-esr100,exr/ReadingArea_rsl0-rcl11-esl29-rsm0-rcm69-esm29-rsr0-rcr11-esr100.exr,ReadingArea_rsl0-rcl11-esl29-rsm0-rcm69-esm29-rsr0-rcr11-esr100.npz,,,,,0,124,124,522,,right,red,0.96,431.70160007476807,432.1286070346832,2,1,9,brightness,readingArea,realistic,75,2023-03-31_14h33.20.567,tripletExp_regina_11082022,2022.2.4,119.85540667586807,
3,6,13,0,0.444444444444444,0.298245614035088,0,0.027777777777778,1.0,0,0.111111111111111,3.10526315789474,ReadingArea_rsl0-rcl44-esl29-rsm0-rcm2-esm100-rsr0-rcr11-esr310,exr/ReadingArea_rsl0-rcl44-esl29-rsm0-rcm2-esm100-rsr0-rcr11-esr310.exr,ReadingArea_rsl0-rcl44-esl29-rsm0-rcm2-esm100-rsr0-rcr11-esr310.npz,,,,,0,125,125,449,,left,green,1.16,433.8169300556183,434.24206805229187,2,1,9,brightness,readingArea,realistic,75,2023-03-31_14h33.20.567,tripletExp_regina_11082022,2022.2.4,119.85540667586807,
0,7,13,0,0.027777777777778,0.298245614035088,0,0.111111111111111,1.0,0,0.111111111111111,3.10526315789474,ReadingArea_rsl0-rcl2-esl29-rsm0-rcm11-esm100-rsr0-rcr11-esr310,exr/ReadingArea_rsl0-rcl2-esl29-rsm0-rcm11-esm100-rsr0-rcr11-esr310.exr,ReadingArea_rsl0-rcl2-esl29-rsm0-rcm11-esm100-rsr0-rcr11-esr310.npz,,,,,0,126,126,159,,left,green,3.18,437.72845911979675,438.1632640361786,2,1,9,brightness,readingArea,realistic,75,2023-03-31_14h33.20.567,tripletExp_regina_11082022,2022.2.4,119.85540667586807,
9,6,1,0,0.444444444444444,1.0,0,0.027777777777778,1.0,0,0.111111111111111,0.298245614035088,ReadingArea_rsl0-rcl44-esl100-rsm0-rcm2-esm100-rsr0-rcr11-esr29,exr/ReadingArea_rsl0-rcl44-esl100-rsm0-rcm2-esm100-rsr0-rcr11-esr29.exr,ReadingArea_rsl0-rcl44-esl100-rsm0-rcm2-esm100-rsr0-rcr11-esr29.npz,,,,,0,127,127,526,,right,red,0.59,439.86266708374023,440.2953190803528,2,1,9,brightness,readingArea,realistic,75,2023-03-31_14h33.20.567,tripletExp_regina_11082022,2022.2.4,119.85540667586807,
2,14,7,0,0.25,0.298245614035088,0,0.25,3.10526315789474,0,0.111111111111111,1.0,ReadingArea_rsl0-rcl25-esl29-rsm0-rcm25-esm310-rsr0-rcr11-esr100,exr/ReadingArea_rsl0-rcl25-esl29-rsm0-rcm25-esm310-rsr0-rcr11-esr100.exr,ReadingArea_rsl0-rcl25-esl29-rsm0-rcm25-esm310-rsr0-rcr11-esr100.npz,,,,,0,128,128,310,,right,red,0.92,442.0127692222595,442.43784523010254,2,1,9,brightness,readingArea,realistic,75,2023-03-31_14h33.20.567,tripletExp_regina_11082022,2022.2.4,119.85540667586807,
1,8,5,0,0.111111111111111,0.298245614035088,0,0.25,1.0,0,1.0,0.298245614035088,ReadingArea_rsl0-rcl11-esl29-rsm0-rcm25-esm100-rsr0-rcr100-esr29,exr/ReadingArea_rsl0-rcl11-esl29-rsm0-rcm25-esm100-rsr0-rcr100-esr29.exr,ReadingArea_rsl0-rcl11-esl29-rsm0-rcm25-esm100-rsr0-rcr100-esr29.npz,,,,,0,129,129,445,,right,red,0.64,444.1393702030182,444.56333017349243,2,1,9,brightness,readingArea,realistic,75,2023-03-31_14h33.20.567,tripletExp_regina_11082022,2022.2.4,119.85540667586807,
4,3,1,0,0.694444444444444,0.298245614035088,0,0.444444444444444,0.298245614035088,0,0.111111111111111,0.298245614035088,ReadingArea_rsl0-rcl69-esl29-rsm0-rcm44-esm29-rsr0-rcr11-esr29,exr/ReadingArea_rsl0-rcl69-esl29-rsm0-rcm44-esm29-rsr0-rcr11-esr29.exr,ReadingArea_rsl0-rcl69-esl29-rsm0-rcm44-esm29-rsr0-rcr11-esr29.npz,,,,,0,130,130,60,,left,green,0.77,446.27018117904663,446.69873309135437,2,1,9,brightness,readingArea,realistic,75,2023-03-31_14h33.20.567,tripletExp_regina_11082022,2022.2.4,119.85540667586807,
1,8,12,0,0.111111111111111,0.298245614035088,0,0.25,1.0,0,0.027777777777778,3.10526315789474,ReadingArea_rsl0-rcl11-esl29-rsm0-rcm25-esm100-rsr0-rcr2-esr310,exr/ReadingArea_rsl0-rcl11-esl29-rsm0-rcm25-esm100-rsr0-rcr2-esr310.exr,ReadingArea_rsl0-rcl11-esl29-rsm0-rcm25-esm100-rsr0-rcr2-esr310.npz,,,,,0,131,131,156,,right,red,1.26,448.39051818847656,448.815758228302,2,1,9,brightness,readingArea,realistic,75,2023-03-31_14h33.20.567,tripletExp_regina_11082022,2022.2.4,119.85540667586807,
10,5,2,0,0.694444444444444,1.0,0,1.0,0.298245614035088,0,0.25,0.298245614035088,ReadingArea_rsl0-rcl69-esl100-rsm0-rcm100-esm29-rsr0-rcr25-esr29,exr/ReadingArea_rsl0-rcl69-esl100-rsm0-rcm100-esm29-rsr0-rcr25-esr29.exr,ReadingArea_rsl0-rcl69-esl100-rsm0-rcm100-esm29-rsr0-rcr25-esr29.npz,,,,,0,132,132,299,,left,green,1.04,450.5316071510315,450.9580841064453,2,1,9,brightness,readingArea,realistic,75,2023-03-31_14h33.20.567,tripletExp_regina_11082022,2022.2.4,119.85540667586807,
14,5,9,0,0.25,3.10526315789474,0,1.0,0.298245614035088,0,0.444444444444444,1.0,ReadingArea_rsl0-rcl25-esl310-rsm0-rcm100-esm29-rsr0-rcr44-esr100,exr/ReadingArea_rsl0-rcl25-esl310-rsm0-rcm100-esm29-rsr0-rcr44-esr100.exr,ReadingArea_rsl0-rcl25-esl310-rsm0-rcm100-esm29-rsr0-rcr44-esr100.npz,,,,,0,133,133,482,,right,red,0.94,452.6778140068054,453.0995900630951,2,1,9,brightness,readingArea,realistic,75,2023-03-31_14h33.20.567,tripletExp_regina_11082022,2022.2.4,119.85540667586807,
12,6,7,0,0.027777777777778,3.10526315789474,0,0.027777777777778,1.0,0,0.111111111111111,1.0,ReadingArea_rsl0-rcl2-esl310-rsm0-rcm2-esm100-rsr0-rcr11-esr100,exr/ReadingArea_rsl0-rcl2-esl310-rsm0-rcm2-esm100-rsr0-rcr11-esr100.exr,ReadingArea_rsl0-rcl2-esl310-rsm0-rcm2-esm100-rsr0-rcr11-esr100.npz,,,,,0,134,134,308,,left,green,0.93,454.81816005706787,455.2423050403595,2,1,9,brightness,readingArea,realistic,75,2023-03-31_14h33.20.567,tripletExp_regina_11082022,2022.2.4,119.85540667586807,
3,14,4,0,0.444444444444444,0.298245614035088,0,0.25,3.10526315789474,0,0.694444444444444,0.298245614035088,ReadingArea_rsl0-rcl44-esl29-rsm0-rcm25-esm310-rsr0-rcr69-esr29,exr/ReadingArea_rsl0-rcl44-esl29-rsm0-rcm25-esm310-rsr0-rcr69-esr29.exr,ReadingArea_rsl0-rcl44-esl29-rsm0-rcm25-esm310-rsr0-rcr69-esr29.npz,,,,,0,135,135,537,,right,red,0.92,456.9652931690216,457.39395904541016,2,1,9,brightness,readingArea,realistic,75,2023-03-31_14h33.20.567,tripletExp_regina_11082022,2022.2.4,119.85540667586807,
4,7,10,0,0.694444444444444,0.298245614035088,0,0.111111111111111,1.0,0,0.694444444444444,1.0,ReadingArea_rsl0-rcl69-esl29-rsm0-rcm11-esm100-rsr0-rcr69-esr100,exr/ReadingArea_rsl0-rcl69-esl29-rsm0-rcm11-esm100-rsr0-rcr69-esr100.exr,ReadingArea_rsl0-rcl69-esl29-rsm0-rcm11-esm100-rsr0-rcr69-esr100.npz,,,,,0,136,136,8,,left,green,0.94,459.1161301136017,459.54624104499817,2,1,9,brightness,readingArea,realistic,75,2023-03-31_14h33.20.567,tripletExp_regina_11082022,2022.2.4,119.85540667586807,
8,1,9,0,0.25,1.0,0,0.111111111111111,0.298245614035088,0,0.444444444444444,1.0,ReadingArea_rsl0-rcl25-esl100-rsm0-rcm11-esm29-rsr0-rcr44-esr100,exr/ReadingArea_rsl0-rcl25-esl100-rsm0-rcm11-esm29-rsr0-rcr44-esr100.exr,ReadingArea_rsl0-rcl25-esl100-rsm0-rcm11-esm29-rsr0-rcr44-esr100.npz,,,,,0,137,137,432,,left,green,0.73,461.2707281112671,461.69500708580017,2,1,9,brightness,readingArea,realistic,75,2023-03-31_14h33.20.567,tripletExp_regina_11082022,2022.2.4,119.85540667586807,
4,5,9,0,0.694444444444444,0.298245614035088,0,1.0,0.298245614035088,0,0.444444444444444,1.0,ReadingArea_rsl0-rcl69-esl29-rsm0-rcm100-esm29-rsr0-rcr44-esr100,exr/ReadingArea_rsl0-rcl69-esl29-rsm0-rcm100-esm29-rsr0-rcr44-esr100.exr,ReadingArea_rsl0-rcl69-esl29-rsm0-rcm100-esm29-rsr0-rcr44-esr100.npz,,,,,0,138,138,211,,right,red,0.98,463.4104640483856,463.8386800289154,2,1,9,brightness,readingArea,realistic,75,2023-03-31_14h33.20.567,tripletExp_regina_11082022,2022.2.4,119.85540667586807,
8,1,3,0,0.25,1.0,0,0.111111111111111,0.298245614035088,0,0.444444444444444,0.298245614035088,ReadingArea_rsl0-rcl25-esl100-rsm0-rcm11-esm29-rsr0-rcr44-esr29,exr/ReadingArea_rsl0-rcl25-esl100-rsm0-rcm11-esm29-rsr0-rcr44-esr29.exr,ReadingArea_rsl0-rcl25-esl100-rsm0-rcm11-esm29-rsr0-rcr44-esr29.npz,,,,,0,139,139,490,,right,red,0.71,465.56165504455566,465.9907560348511,2,1,9,brightness,readingArea,realistic,75,2023-03-31_14h33.20.567,tripletExp_regina_11082022,2022.2.4,119.85540667586807,
7,2,6,0,0.111111111111111,1.0,0,0.25,0.298245614035088,0,0.027777777777778,1.0,ReadingArea_rsl0-rcl11-esl100-rsm0-rcm25-esm29-rsr0-rcr2-esr100,exr/ReadingArea_rsl0-rcl11-esl100-rsm0-rcm25-esm29-rsr0-rcr2-esr100.exr,ReadingArea_rsl0-rcl11-esl100-rsm0-rcm25-esm29-rsr0-rcr2-esr100.npz,,,,,0,140,140,506,,left,green,0.65,467.69277811050415,468.1245470046997,2,1,9,brightness,readingArea,realistic,75,2023-03-31_14h33.20.567,tripletExp_regina_11082022,2022.2.4,119.85540667586807,
9,0,8,0,0.444444444444444,1.0,0,0.027777777777778,0.298245614035088,0,0.25,1.0,ReadingArea_rsl0-rcl44-esl100-rsm0-rcm2-esm29-rsr0-rcr25-esr100,exr/ReadingArea_rsl0-rcl44-esl100-rsm0-rcm2-esm29-rsr0-rcr25-esr100.exr,ReadingArea_rsl0-rcl44-esl100-rsm0-rcm2-esm29-rsr0-rcr25-esr100.npz,,,,,0,141,141,27,,right,red,0.93,469.8422360420227,470.2757031917572,2,1,9,brightness,readingArea,realistic,75,2023-03-31_14h33.20.567,tripletExp_regina_11082022,2022.2.4,119.85540667586807,
9,13,6,0,0.444444444444444,1.0,0,0.111111111111111,3.10526315789474,0,0.027777777777778,1.0,ReadingArea_rsl0-rcl44-esl100-rsm0-rcm11-esm310-rsr0-rcr2-esr100,exr/ReadingArea_rsl0-rcl44-esl100-rsm0-rcm11-esm310-rsr0-rcr2-esr100.exr,ReadingArea_rsl0-rcl44-esl100-rsm0-rcm11-esm310-rsr0-rcr2-esr100.npz,,,,,0,142,142,13,,left,green,3.0,473.7412130832672,474.1780261993408,2,1,9,brightness,readingArea,realistic,75,2023-03-31_14h33.20.567,tripletExp_regina_11082022,2022.2.4,119.85540667586807,
0,8,3,0,0.027777777777778,0.298245614035088,0,0.25,1.0,0,0.444444444444444,0.298245614035088,ReadingArea_rsl0-rcl2-esl29-rsm0-rcm25-esm100-rsr0-rcr44-esr29,exr/ReadingArea_rsl0-rcl2-esl29-rsm0-rcm25-esm100-rsr0-rcr44-esr29.exr,ReadingArea_rsl0-rcl2-esl29-rsm0-rcm25-esm100-rsr0-rcr44-esr29.npz,,,,,0,143,143,301,,right,red,0.58,475.86980509757996,476.2984230518341,2,1,9,brightness,readingArea,realistic,75,2023-03-31_14h33.20.567,tripletExp_regina_11082022,2022.2.4,119.85540667586807,
0,9,6,0,0.027777777777778,0.298245614035088,0,0.444444444444444,1.0,0,0.027777777777778,1.0,ReadingArea_rsl0-rcl2-esl29-rsm0-rcm44-esm100-rsr0-rcr2-esr100,exr/ReadingArea_rsl0-rcl2-esl29-rsm0-rcm44-esm100-rsr0-rcr2-esr100.exr,ReadingArea_rsl0-rcl2-esl29-rsm0-rcm44-esm100-rsr0-rcr2-esr100.npz,,,,,0,144,144,365,,right,red,0.97,478.0134291648865,478.44120621681213,2,1,9,brightness,readingArea,realistic,75,2023-03-31_14h33.20.567,tripletExp_regina_11082022,2022.2.4,119.85540667586807,
13,1,3,0,0.111111111111111,3.10526315789474,0,0.111111111111111,0.298245614035088,0,0.444444444444444,0.298245614035088,ReadingArea_rsl0-rcl11-esl310-rsm0-rcm11-esm29-rsr0-rcr44-esr29,exr/ReadingArea_rsl0-rcl11-esl310-rsm0-rcm11-esm29-rsr0-rcr44-esr29.exr,ReadingArea_rsl0-rcl11-esl310-rsm0-rcm11-esm29-rsr0-rcr44-esr29.npz,,,,,0,145,145,588,,right,red,1.09,480.1298711299896,480.557902097702,2,1,9,brightness,readingArea,realistic,75,2023-03-31_14h33.20.567,tripletExp_regina_11082022,2022.2.4,119.85540667586807,
3,9,0,0,0.444444444444444,0.298245614035088,0,0.444444444444444,1.0,0,0.027777777777778,0.298245614035088,ReadingArea_rsl0-rcl44-esl29-rsm0-rcm44-esm100-rsr0-rcr2-esr29,exr/ReadingArea_rsl0-rcl44-esl29-rsm0-rcm44-esm100-rsr0-rcr2-esr29.exr,ReadingArea_rsl0-rcl44-esl29-rsm0-rcm44-esm100-rsr0-rcr2-esr29.npz,,,,,0,146,146,551,,left,green,0.66,482.2546100616455,482.68292021751404,2,1,9,brightness,readingArea,realistic,75,2023-03-31_14h33.20.567,tripletExp_regina_11082022,2022.2.4,119.85540667586807,
12,9,11,0,0.027777777777778,3.10526315789474,0,0.444444444444444,1.0,0,1.0,1.0,ReadingArea_rsl0-rcl2-esl310-rsm0-rcm44-esm100-rsr0-rcr100-esr100,exr/ReadingArea_rsl0-rcl2-esl310-rsm0-rcm44-esm100-rsr0-rcr100-esr100.exr,ReadingArea_rsl0-rcl2-esl310-rsm0-rcm44-esm100-rsr0-rcr100-esr100.npz,,,,,0,147,147,18,,right,red,1.23,484.37306904792786,484.7999761104584,2,1,9,brightness,readingArea,realistic,75,2023-03-31_14h33.20.567,tripletExp_regina_11082022,2022.2.4,119.85540667586807,
13,6,4,0,0.111111111111111,3.10526315789474,0,0.027777777777778,1.0,0,0.694444444444444,0.298245614035088,ReadingArea_rsl0-rcl11-esl310-rsm0-rcm2-esm100-rsr0-rcr69-esr29,exr/ReadingArea_rsl0-rcl11-esl310-rsm0-rcm2-esm100-rsr0-rcr69-esr29.exr,ReadingArea_rsl0-rcl11-esl310-rsm0-rcm2-esm100-rsr0-rcr69-esr29.npz,,,,,0,148,148,328,,left,green,1.06,486.5214660167694,486.9469530582428,2,1,9,brightness,readingArea,realistic,75,2023-03-31_14h33.20.567,tripletExp_regina_11082022,2022.2.4,119.85540667586807,
1,12,0,0,0.111111111111111,0.298245614035088,0,0.027777777777778,3.10526315789474,0,0.027777777777778,0.298245614035088,ReadingArea_rsl0-rcl11-esl29-rsm0-rcm2-esm310-rsr0-rcr2-esr29,exr/ReadingArea_rsl0-rcl11-esl29-rsm0-rcm2-esm310-rsr0-rcr2-esr29.exr,ReadingArea_rsl0-rcl11-esl29-rsm0-rcm2-esm310-rsr0-rcr2-esr29.npz,,,,,0,149,149,113,,left,green,0.94,488.65608310699463,488.85793900489807,2,1,9,brightness,readingArea,realistic,75,2023-03-31_14h33.20.567,tripletExp_regina_11082022,2022.2.4,119.85540667586807,
5,0,11,0,1.0,0.298245614035088,0,0.027777777777778,0.298245614035088,0,1.0,1.0,ReadingArea_rsl0-rcl100-esl29-rsm0-rcm2-esm29-rsr0-rcr100-esr100,exr/ReadingArea_rsl0-rcl100-esl29-rsm0-rcm2-esm29-rsr0-rcr100-esr100.exr,ReadingArea_rsl0-rcl100-esl29-rsm0-rcm2-esm29-rsr0-rcr100-esr100.npz,,,,,0,150,150,547,,left,green,1.17,624.5443131923676,624.975025177002,3,1,9,brightness,readingArea,realistic,75,2023-03-31_14h33.20.567,tripletExp_regina_11082022,2022.2.4,119.85540667586807,
2,8,4,0,0.25,0.298245614035088,0,0.25,1.0,0,0.694444444444444,0.298245614035088,ReadingArea_rsl0-rcl25-esl29-rsm0-rcm25-esm100-rsr0-rcr69-esr29,exr/ReadingArea_rsl0-rcl25-esl29-rsm0-rcm25-esm100-rsr0-rcr69-esr29.exr,ReadingArea_rsl0-rcl25-esl29-rsm0-rcm25-esm100-rsr0-rcr69-esr29.npz,,,,,0,151,151,507,,right,red,2.23,628.4382510185242,628.9649040699005,3,1,9,brightness,readingArea,realistic,75,2023-03-31_14h33.20.567,tripletExp_regina_11082022,2022.2.4,119.85540667586807,
12,13,14,0,0.027777777777778,3.10526315789474,0,0.111111111111111,3.10526315789474,0,0.25,3.10526315789474,ReadingArea_rsl0-rcl2-esl310-rsm0-rcm11-esm310-rsr0-rcr25-esr310,exr/ReadingArea_rsl0-rcl2-esl310-rsm0-rcm11-esm310-rsr0-rcr25-esr310.exr,ReadingArea_rsl0-rcl2-esl310-rsm0-rcm11-esm310-rsr0-rcr25-esr310.npz,,,,,0,152,152,208,,left,green,0.9,630.6743950843811,631.1085572242737,3,1,9,brightness,readingArea,realistic,75,2023-03-31_14h33.20.567,tripletExp_regina_11082022,2022.2.4,119.85540667586807,
11,12,1,0,1.0,1.0,0,0.027777777777778,3.10526315789474,0,0.111111111111111,0.298245614035088,ReadingArea_rsl0-rcl100-esl100-rsm0-rcm2-esm310-rsr0-rcr11-esr29,exr/ReadingArea_rsl0-rcl100-esl100-rsm0-rcm2-esm310-rsr0-rcr11-esr29.exr,ReadingArea_rsl0-rcl100-esl100-rsm0-rcm2-esm310-rsr0-rcr11-esr29.npz,,,,,0,153,153,140,,right,red,0.57,632.8017101287842,633.2320640087128,3,1,9,brightness,readingArea,realistic,75,2023-03-31_14h33.20.567,tripletExp_regina_11082022,2022.2.4,119.85540667586807,
6,5,0,0,0.027777777777778,1.0,0,1.0,0.298245614035088,0,0.027777777777778,0.298245614035088,ReadingArea_rsl0-rcl2-esl100-rsm0-rcm100-esm29-rsr0-rcr2-esr29,exr/ReadingArea_rsl0-rcl2-esl100-rsm0-rcm100-esm29-rsr0-rcr2-esr29.exr,ReadingArea_rsl0-rcl2-esl100-rsm0-rcm100-esm29-rsr0-rcr2-esr29.npz,,,,,0,154,154,558,,left,green,1.25,634.9415690898895,635.3725881576538,3,1,9,brightness,readingArea,realistic,75,2023-03-31_14h33.20.567,tripletExp_regina_11082022,2022.2.4,119.85540667586807,
12,4,9,0,0.027777777777778,3.10526315789474,0,0.694444444444444,0.298245614035088,0,0.444444444444444,1.0,ReadingArea_rsl0-rcl2-esl310-rsm0-rcm69-esm29-rsr0-rcr44-esr100,exr/ReadingArea_rsl0-rcl2-esl310-rsm0-rcm69-esm29-rsr0-rcr44-esr100.exr,ReadingArea_rsl0-rcl2-esl310-rsm0-rcm69-esm29-rsr0-rcr44-esr100.npz,,,,,0,155,155,380,,right,red,2.3,638.8507630825043,639.2800040245056,3,1,9,brightness,readingArea,realistic,75,2023-03-31_14h33.20.567,tripletExp_regina_11082022,2022.2.4,119.85540667586807,
10,1,0,0,0.694444444444444,1.0,0,0.111111111111111,0.298245614035088,0,0.027777777777778,0.298245614035088,ReadingArea_rsl0-rcl69-esl100-rsm0-rcm11-esm29-rsr0-rcr2-esr29,exr/ReadingArea_rsl0-rcl69-esl100-rsm0-rcm11-esm29-rsr0-rcr2-esr29.exr,ReadingArea_rsl0-rcl69-esl100-rsm0-rcm11-esm29-rsr0-rcr2-esr29.npz,,,,,0,156,156,276,,right,red,0.72,640.9867701530457,641.415530204773,3,1,9,brightness,readingArea,realistic,75,2023-03-31_14h33.20.567,tripletExp_regina_11082022,2022.2.4,119.85540667586807,
4,10,6,0,0.694444444444444,0.298245614035088,0,0.694444444444444,1.0,0,0.027777777777778,1.0,ReadingArea_rsl0-rcl69-esl29-rsm0-rcm69-esm100-rsr0-rcr2-esr100,exr/ReadingArea_rsl0-rcl69-esl29-rsm0-rcm69-esm100-rsr0-rcr2-esr100.exr,ReadingArea_rsl0-rcl69-esl29-rsm0-rcm69-esm100-rsr0-rcr2-esr100.npz,,,,,0,157,157,468,,left,green,0.66,643.120735168457,643.5489912033081,3,1,9,brightness,readingArea,realistic,75,2023-03-31_14h33.20.567,tripletExp_regina_11082022,2022.2.4,119.85540667586807,
7,14,11,0,0.111111111111111,1.0,0,0.25,3.10526315789474,0,1.0,1.0,ReadingArea_rsl0-rcl11-esl100-rsm0-rcm25-esm310-rsr0-rcr100-esr100,exr/ReadingArea_rsl0-rcl11-esl100-rsm0-rcm25-esm310-rsr0-rcr100-esr100.exr,ReadingArea_rsl0-rcl11-esl100-rsm0-rcm25-esm310-rsr0-rcr100-esr100.npz,,,,,0,158,158,252,,right,red,0.59,645.2684910297394,645.6964180469513,3,1,9,brightness,readingArea,realistic,75,2023-03-31_14h33.20.567,tripletExp_regina_11082022,2022.2.4,119.85540667586807,
7,3,0,0,0.111111111111111,1.0,0,0.444444444444444,0.298245614035088,0,0.027777777777778,0.298245614035088,ReadingArea_rsl0-rcl11-esl100-rsm0-rcm44-esm29-rsr0-rcr2-esr29,exr/ReadingArea_rsl0-rcl11-esl100-rsm0-rcm44-esm29-rsr0-rcr2-esr29.exr,ReadingArea_rsl0-rcl11-esl100-rsm0-rcm44-esm29-rsr0-rcr2-esr29.npz,,,,,0,159,159,318,,left,green,0.71,647.4173240661621,,3,1,9,brightness,readingArea,realistic,75,2023-03-31_14h33.20.567,tripletExp_regina_11082022,2022.2.4,119.85540667586807,
14,13,6,0,0.25,3.10526315789474,0,0.111111111111111,3.10526315789474,0,0.027777777777778,1.0,ReadingArea_rsl0-rcl25-esl310-rsm0-rcm11-esm310-rsr0-rcr2-esr100,exr/ReadingArea_rsl0-rcl25-esl310-rsm0-rcm11-esm310-rsr0-rcr2-esr100.exr,ReadingArea_rsl0-rcl25-esl310-rsm0-rcm11-esm310-rsr0-rcr2-esr100.npz,,,,,0,160,160,102,,right,red,2.1,651.3056252002716,651.7373411655426,3,1,9,brightness,readingArea,realistic,75,2023-03-31_14h33.20.567,tripletExp_regina_11082022,2022.2.4,119.85540667586807,
14,8,9,0,0.25,3.10526315789474,0,0.25,1.0,0,0.444444444444444,1.0,ReadingArea_rsl0-rcl25-esl310-rsm0-rcm25-esm100-rsr0-rcr44-esr100,exr/ReadingArea_rsl0-rcl25-esl310-rsm0-rcm25-esm100-rsr0-rcr44-esr100.exr,ReadingArea_rsl0-rcl25-esl310-rsm0-rcm25-esm100-rsr0-rcr44-esr100.npz,,,,,0,161,161,518,,right,red,0.79,653.4606101512909,653.8921360969543,3,1,9,brightness,readingArea,realistic,75,2023-03-31_14h33.20.567,tripletExp_regina_11082022,2022.2.4,119.85540667586807,
13,6,2,0,0.111111111111111,3.10526315789474,0,0.027777777777778,1.0,0,0.25,0.298245614035088,ReadingArea_rsl0-rcl11-esl310-rsm0-rcm2-esm100-rsr0-rcr25-esr29,exr/ReadingArea_rsl0-rcl11-esl310-rsm0-rcm2-esm100-rsr0-rcr25-esr29.exr,ReadingArea_rsl0-rcl11-esl310-rsm0-rcm2-esm100-rsr0-rcr25-esr29.npz,,,,,0,162,162,115,,right,red,1.02,655.6097421646118,656.0509531497955,3,1,9,brightness,readingArea,realistic,75,2023-03-31_14h33.20.567,tripletExp_regina_11082022,2022.2.4,119.85540667586807,
8,7,12,0,0.25,1.0,0,0.111111111111111,1.0,0,0.027777777777778,3.10526315789474,ReadingArea_rsl0-rcl25-esl100-rsm0-rcm11-esm100-rsr0-rcr2-esr310,exr/ReadingArea_rsl0-rcl25-esl100-rsm0-rcm11-esm100-rsr0-rcr2-esr310.exr,ReadingArea_rsl0-rcl25-esl100-rsm0-rcm11-esm100-rsr0-rcr2-esr310.npz,,,,,0,163,163,471,,right,red,1.21,657.7409110069275,658.1759061813354,3,1,9,brightness,readingArea,realistic,75,2023-03-31_14h33.20.567,tripletExp_regina_11082022,2022.2.4,119.85540667586807,
4,3,11,0,0.694444444444444,0.298245614035088,0,0.444444444444444,0.298245614035088,0,1.0,1.0,ReadingArea_rsl0-rcl69-esl29-rsm0-rcm44-esm29-rsr0-rcr100-esr100,exr/ReadingArea_rsl0-rcl69-esl29-rsm0-rcm44-esm29-rsr0-rcr100-esr100.exr,ReadingArea_rsl0-rcl69-esl29-rsm0-rcm44-esm29-rsr0-rcr100-esr100.npz,,,,,0,164,164,439,,left,green,0.78,659.8765151500702,660.3421530723572,3,1,9,brightness,readingArea,realistic,75,2023-03-31_14h33.20.567,tripletExp_regina_11082022,2022.2.4,119.85540667586807,
6,14,10,0,0.027777777777778,1.0,0,0.25,3.10526315789474,0,0.694444444444444,1.0,ReadingArea_rsl0-rcl2-esl100-rsm0-rcm25-esm310-rsr0-rcr69-esr100,exr/ReadingArea_rsl0-rcl2-esl100-rsm0-rcm25-esm310-rsr0-rcr69-esr100.exr,ReadingArea_rsl0-rcl2-esl100-rsm0-rcm25-esm310-rsr0-rcr69-esr100.npz,,,,,0,165,165,413,,right,red,0.74,662.0385940074921,662.4741082191467,3,1,9,brightness,readingArea,realistic,75,2023-03-31_14h33.20.567,tripletExp_regina_11082022,2022.2.4,119.85540667586807,
12,8,9,0,0.027777777777778,3.10526315789474,0,0.25,1.0,0,0.444444444444444,1.0,ReadingArea_rsl0-rcl2-esl310-rsm0-rcm25-esm100-rsr0-rcr44-esr100,exr/ReadingArea_rsl0-rcl2-esl310-rsm0-rcm25-esm100-rsr0-rcr44-esr100.exr,ReadingArea_rsl0-rcl2-esl310-rsm0-rcm25-esm100-rsr0-rcr44-esr100.npz,,,,,0,166,166,517,,left,green,1.15,664.1636161804199,664.5970311164856,3,1,9,brightness,readingArea,realistic,75,2023-03-31_14h33.20.567,tripletExp_regina_11082022,2022.2.4,119.85540667586807,
3,13,6,0,0.444444444444444,0.298245614035088,0,0.111111111111111,3.10526315789474,0,0.027777777777778,1.0,ReadingArea_rsl0-rcl44-esl29-rsm0-rcm11-esm310-rsr0-rcr2-esr100,exr/ReadingArea_rsl0-rcl44-esl29-rsm0-rcm11-esm310-rsr0-rcr2-esr100.exr,ReadingArea_rsl0-rcl44-esl29-rsm0-rcm11-esm310-rsr0-rcr2-esr100.npz,,,,,0,167,167,199,,left,green,0.56,666.287670135498,,3,1,9,brightness,readingArea,realistic,75,2023-03-31_14h33.20.567,tripletExp_regina_11082022,2022.2.4,119.85540667586807,
4,3,10,0,0.694444444444444,0.298245614035088,0,0.444444444444444,0.298245614035088,0,0.694444444444444,1.0,ReadingArea_rsl0-rcl69-esl29-rsm0-rcm44-esm29-rsr0-rcr69-esr100,exr/ReadingArea_rsl0-rcl69-esl29-rsm0-rcm44-esm29-rsr0-rcr69-esr100.exr,ReadingArea_rsl0-rcl69-esl29-rsm0-rcm44-esm29-rsr0-rcr69-esr100.npz,,,,,0,168,168,371,,left,green,0.81,668.4147779941559,668.8457441329956,3,1,9,brightness,readingArea,realistic,75,2023-03-31_14h33.20.567,tripletExp_regina_11082022,2022.2.4,119.85540667586807,
8,2,0,0,0.25,1.0,0,0.25,0.298245614035088,0,0.027777777777778,0.298245614035088,ReadingArea_rsl0-rcl25-esl100-rsm0-rcm25-esm29-rsr0-rcr2-esr29,exr/ReadingArea_rsl0-rcl25-esl100-rsm0-rcm25-esm29-rsr0-rcr2-esr29.exr,ReadingArea_rsl0-rcl25-esl100-rsm0-rcm25-esm29-rsr0-rcr2-esr29.npz,,,,,0,169,169,574,,left,green,0.97,670.5693731307983,670.9982261657715,3,1,9,brightness,readingArea,realistic,75,2023-03-31_14h33.20.567,tripletExp_regina_11082022,2022.2.4,119.85540667586807,
12,3,0,0,0.027777777777778,3.10526315789474,0,0.444444444444444,0.298245614035088,0,0.027777777777778,0.298245614035088,ReadingArea_rsl0-rcl2-esl310-rsm0-rcm44-esm29-rsr0-rcr2-esr29,exr/ReadingArea_rsl0-rcl2-esl310-rsm0-rcm44-esm29-rsr0-rcr2-esr29.exr,ReadingArea_rsl0-rcl2-esl310-rsm0-rcm44-esm29-rsr0-rcr2-esr29.npz,,,,,0,170,170,502,,left,green,0.85,672.6859831809998,673.1150081157684,3,1,9,brightness,readingArea,realistic,75,2023-03-31_14h33.20.567,tripletExp_regina_11082022,2022.2.4,119.85540667586807,
3,0,4,0,0.444444444444444,0.298245614035088,0,0.027777777777778,0.298245614035088,0,0.694444444444444,0.298245614035088,ReadingArea_rsl0-rcl44-esl29-rsm0-rcm2-esm29-rsr0-rcr69-esr29,exr/ReadingArea_rsl0-rcl44-esl29-rsm0-rcm2-esm29-rsr0-rcr69-esr29.exr,ReadingArea_rsl0-rcl44-esl29-rsm0-rcm2-esm29-rsr0-rcr69-esr29.npz,,,,,0,171,171,111,,left,green,0.74,674.8406870365143,675.275062084198,3,1,9,brightness,readingArea,realistic,75,2023-03-31_14h33.20.567,tripletExp_regina_11082022,2022.2.4,119.85540667586807,
9,13,0,0,0.444444444444444,1.0,0,0.111111111111111,3.10526315789474,0,0.027777777777778,0.298245614035088,ReadingArea_rsl0-rcl44-esl100-rsm0-rcm11-esm310-rsr0-rcr2-esr29,exr/ReadingArea_rsl0-rcl44-esl100-rsm0-rcm11-esm310-rsr0-rcr2-esr29.exr,ReadingArea_rsl0-rcl44-esl100-rsm0-rcm11-esm310-rsr0-rcr2-esr29.npz,,,,,0,172,172,205,,left,green,2.11,678.7525060176849,679.1845541000366,3,1,9,brightness,readingArea,realistic,75,2023-03-31_14h33.20.567,tripletExp_regina_11082022,2022.2.4,119.85540667586807,
6,12,8,0,0.027777777777778,1.0,0,0.027777777777778,3.10526315789474,0,0.25,1.0,ReadingArea_rsl0-rcl2-esl100-rsm0-rcm2-esm310-rsr0-rcr25-esr100,exr/ReadingArea_rsl0-rcl2-esl100-rsm0-rcm2-esm310-rsr0-rcr25-esr100.exr,ReadingArea_rsl0-rcl2-esl100-rsm0-rcm2-esm310-rsr0-rcr25-esr100.npz,,,,,0,173,173,186,,left,green,0.58,680.9076280593872,681.3415322303772,3,1,9,brightness,readingArea,realistic,75,2023-03-31_14h33.20.567,tripletExp_regina_11082022,2022.2.4,119.85540667586807,
2,11,8,0,0.25,0.298245614035088,0,1.0,1.0,0,0.25,1.0,ReadingArea_rsl0-rcl25-esl29-rsm0-rcm100-esm100-rsr0-rcr25-esr100,exr/ReadingArea_rsl0-rcl25-esl29-rsm0-rcm100-esm100-rsr0-rcr25-esr100.exr,ReadingArea_rsl0-rcl25-esl29-rsm0-rcm100-esm100-rsr0-rcr25-esr100.npz,,,,,0,174,174,364,,right,red,0.59,683.0462181568146,683.4749200344086,3,1,9,brightness,readingArea,realistic,75,2023-03-31_14h33.20.567,tripletExp_regina_11082022,2022.2.4,119.85540667586807,
5,11,8,0,1.0,0.298245614035088,0,1.0,1.0,0,0.25,1.0,ReadingArea_rsl0-rcl100-esl29-rsm0-rcm100-esm100-rsr0-rcr25-esr100,exr/ReadingArea_rsl0-rcl100-esl29-rsm0-rcm100-esm100-rsr0-rcr25-esr100.exr,ReadingArea_rsl0-rcl100-esl29-rsm0-rcm100-esm100-rsr0-rcr25-esr100.npz,,,,,0,175,175,548,,left,green,0.89,685.1744441986084,685.6107180118561,3,1,9,brightness,readingArea,realistic,75,2023-03-31_14h33.20.567,tripletExp_regina_11082022,2022.2.4,119.85540667586807,
2,6,13,0,0.25,0.298245614035088,0,0.027777777777778,1.0,0,0.111111111111111,3.10526315789474,ReadingArea_rsl0-rcl25-esl29-rsm0-rcm2-esm100-rsr0-rcr11-esr310,exr/ReadingArea_rsl0-rcl25-esl29-rsm0-rcm2-esm100-rsr0-rcr11-esr310.exr,ReadingArea_rsl0-rcl25-esl29-rsm0-rcm2-esm100-rsr0-rcr11-esr310.npz,,,,,0,176,176,388,,left,green,0.73,687.3045592308044,687.7369260787964,3,1,9,brightness,readingArea,realistic,75,2023-03-31_14h33.20.567,tripletExp_regina_11082022,2022.2.4,119.85540667586807,
10,14,1,0,0.694444444444444,1.0,0,0.25,3.10526315789474,0,0.111111111111111,0.298245614035088,ReadingArea_rsl0-rcl69-esl100-rsm0-rcm25-esm310-rsr0-rcr11-esr29,exr/ReadingArea_rsl0-rcl69-esl100-rsm0-rcm25-esm310-rsr0-rcr11-esr29.exr,ReadingArea_rsl0-rcl69-esl100-rsm0-rcm25-esm310-rsr0-rcr11-esr29.npz,,,,,0,177,177,544,,left,green,0.57,689.4325301647186,,3,1,9,brightness,readingArea,realistic,75,2023-03-31_14h33.20.567,tripletExp_regina_11082022,2022.2.4,119.85540667586807,
12,9,13,0,0.027777777777778,3.10526315789474,0,0.444444444444444,1.0,0,0.111111111111111,3.10526315789474,ReadingArea_rsl0-rcl2-esl310-rsm0-rcm44-esm100-rsr0-rcr11-esr310,exr/ReadingArea_rsl0-rcl2-esl310-rsm0-rcm44-esm100-rsr0-rcr11-esr310.exr,ReadingArea_rsl0-rcl2-esl310-rsm0-rcm44-esm100-rsr0-rcr11-esr310.npz,,,,,0,178,178,529,,right,red,0.91,691.5625011920929,691.9923810958862,3,1,9,brightness,readingArea,realistic,75,2023-03-31_14h33.20.567,tripletExp_regina_11082022,2022.2.4,119.85540667586807,
6,9,5,0,0.027777777777778,1.0,0,0.444444444444444,1.0,0,1.0,0.298245614035088,ReadingArea_rsl0-rcl2-esl100-rsm0-rcm44-esm100-rsr0-rcr100-esr29,exr/ReadingArea_rsl0-rcl2-esl100-rsm0-rcm44-esm100-rsr0-rcr100-esr29.exr,ReadingArea_rsl0-rcl2-esl100-rsm0-rcm44-esm100-rsr0-rcr100-esr29.npz,,,,,0,179,179,29,,right,red,0.76,693.6861062049866,694.1179640293121,3,1,9,brightness,readingArea,realistic,75,2023-03-31_14h33.20.567,tripletExp_regina_11082022,2022.2.4,119.85540667586807,
12,3,5,0,0.027777777777778,3.10526315789474,0,0.444444444444444,0.298245614035088,0,1.0,0.298245614035088,ReadingArea_rsl0-rcl2-esl310-rsm0-rcm44-esm29-rsr0-rcr100-esr29,exr/ReadingArea_rsl0-rcl2-esl310-rsm0-rcm44-esm29-rsr0-rcr100-esr29.exr,ReadingArea_rsl0-rcl2-esl310-rsm0-rcm44-esm29-rsr0-rcr100-esr29.npz,,,,,0,180,180,188,,left,green,0.79,695.8103070259094,696.2816262245178,3,1,9,brightness,readingArea,realistic,75,2023-03-31_14h33.20.567,tripletExp_regina_11082022,2022.2.4,119.85540667586807,
6,1,2,0,0.027777777777778,1.0,0,0.111111111111111,0.298245614035088,0,0.25,0.298245614035088,ReadingArea_rsl0-rcl2-esl100-rsm0-rcm11-esm29-rsr0-rcr25-esr29,exr/ReadingArea_rsl0-rcl2-esl100-rsm0-rcm11-esm29-rsr0-rcr25-esr29.exr,ReadingArea_rsl0-rcl2-esl100-rsm0-rcm11-esm29-rsr0-rcr25-esr29.npz,,,,,0,181,181,68,,left,green,0.75,697.9712390899658,698.4439392089844,3,1,9,brightness,readingArea,realistic,75,2023-03-31_14h33.20.567,tripletExp_regina_11082022,2022.2.4,119.85540667586807,
10,11,5,0,0.694444444444444,1.0,0,1.0,1.0,0,1.0,0.298245614035088,ReadingArea_rsl0-rcl69-esl100-rsm0-rcm100-esm100-rsr0-rcr100-esr29,exr/ReadingArea_rsl0-rcl69-esl100-rsm0-rcm100-esm100-rsr0-rcr100-esr29.exr,ReadingArea_rsl0-rcl69-esl100-rsm0-rcm100-esm100-rsr0-rcr100-esr29.npz,,,,,0,182,182,514,,left,green,0.63,700.147402048111,700.6082630157471,3,1,9,brightness,readingArea,realistic,75,2023-03-31_14h33.20.567,tripletExp_regina_11082022,2022.2.4,119.85540667586807,
10,11,4,0,0.694444444444444,1.0,0,1.0,1.0,0,0.694444444444444,0.298245614035088,ReadingArea_rsl0-rcl69-esl100-rsm0-rcm100-esm100-rsr0-rcr69-esr29,exr/ReadingArea_rsl0-rcl69-esl100-rsm0-rcm100-esm100-rsr0-rcr69-esr29.exr,ReadingArea_rsl0-rcl69-esl100-rsm0-rcm100-esm100-rsr0-rcr69-esr29.npz,,,,,0,183,183,239,,left,green,0.59,702.3039832115173,702.737556219101,3,1,9,brightness,readingArea,realistic,75,2023-03-31_14h33.20.567,tripletExp_regina_11082022,2022.2.4,119.85540667586807,
7,9,3,0,0.111111111111111,1.0,0,0.444444444444444,1.0,0,0.444444444444444,0.298245614035088,ReadingArea_rsl0-rcl11-esl100-rsm0-rcm44-esm100-rsr0-rcr44-esr29,exr/ReadingArea_rsl0-rcl11-esl100-rsm0-rcm44-esm100-rsr0-rcr44-esr29.exr,ReadingArea_rsl0-rcl11-esl100-rsm0-rcm44-esm100-rsr0-rcr44-esr29.npz,,,,,0,184,184,311,,left,green,2.59,706.2050712108612,706.6411421298981,3,1,9,brightness,readingArea,realistic,75,2023-03-31_14h33.20.567,tripletExp_regina_11082022,2022.2.4,119.85540667586807,
8,9,2,0,0.25,1.0,0,0.444444444444444,1.0,0,0.25,0.298245614035088,ReadingArea_rsl0-rcl25-esl100-rsm0-rcm44-esm100-rsr0-rcr25-esr29,exr/ReadingArea_rsl0-rcl25-esl100-rsm0-rcm44-esm100-rsr0-rcr25-esr29.exr,ReadingArea_rsl0-rcl25-esl100-rsm0-rcm44-esm100-rsr0-rcr25-esr29.npz,,,,,0,185,185,559,,left,green,0.59,708.336284160614,708.7721540927887,3,1,9,brightness,readingArea,realistic,75,2023-03-31_14h33.20.567,tripletExp_regina_11082022,2022.2.4,119.85540667586807,
7,5,11,0,0.111111111111111,1.0,0,1.0,0.298245614035088,0,1.0,1.0,ReadingArea_rsl0-rcl11-esl100-rsm0-rcm100-esm29-rsr0-rcr100-esr100,exr/ReadingArea_rsl0-rcl11-esl100-rsm0-rcm100-esm29-rsr0-rcr100-esr100.exr,ReadingArea_rsl0-rcl11-esl100-rsm0-rcm100-esm29-rsr0-rcr100-esr100.npz,,,,,0,186,186,10,,right,red,0.56,710.4615910053253,710.8970391750336,3,1,9,brightness,readingArea,realistic,75,2023-03-31_14h33.20.567,tripletExp_regina_11082022,2022.2.4,119.85540667586807,
0,8,14,0,0.027777777777778,0.298245614035088,0,0.25,1.0,0,0.25,3.10526315789474,ReadingArea_rsl0-rcl2-esl29-rsm0-rcm25-esm100-rsr0-rcr25-esr310,exr/ReadingArea_rsl0-rcl2-esl29-rsm0-rcm25-esm100-rsr0-rcr25-esr310.exr,ReadingArea_rsl0-rcl2-esl29-rsm0-rcm25-esm100-rsr0-rcr25-esr310.npz,,,,,0,187,187,114,,left,green,2.86,714.3867120742798,,3,1,9,brightness,readingArea,realistic,75,2023-03-31_14h33.20.567,tripletExp_regina_11082022,2022.2.4,119.85540667586807,
14,4,8,0,0.25,3.10526315789474,0,0.694444444444444,0.298245614035088,0,0.25,1.0,ReadingArea_rsl0-rcl25-esl310-rsm0-rcm69-esm29-rsr0-rcr25-esr100,exr/ReadingArea_rsl0-rcl25-esl310-rsm0-rcm69-esm29-rsr0-rcr25-esr100.exr,ReadingArea_rsl0-rcl25-esl310-rsm0-rcm69-esm29-rsr0-rcr25-esr100.npz,,,,,0,188,188,253,,right,red,0.65,716.5147430896759,716.9426991939545,3,1,9,brightness,readingArea,realistic,75,2023-03-31_14h33.20.567,tripletExp_regina_11082022,2022.2.4,119.85540667586807,
2,1,6,0,0.25,0.298245614035088,0,0.111111111111111,0.298245614035088,0,0.027777777777778,1.0,ReadingArea_rsl0-rcl25-esl29-rsm0-rcm11-esm29-rsr0-rcr2-esr100,exr/ReadingArea_rsl0-rcl25-esl29-rsm0-rcm11-esm29-rsr0-rcr2-esr100.exr,ReadingArea_rsl0-rcl25-esl29-rsm0-rcm11-esm29-rsr0-rcr2-esr100.npz,,,,,0,189,189,171,,right,red,0.81,718.6509602069855,719.0773780345917,3,1,9,brightness,readingArea,realistic,75,2023-03-31_14h33.20.567,tripletExp_regina_11082022,2022.2.4,119.85540667586807,
13,11,2,0,0.111111111111111,3.10526315789474,0,1.0,1.0,0,0.25,0.298245614035088,ReadingArea_rsl0-rcl11-esl310-rsm0-rcm100-esm100-rsr0-rcr25-esr29,exr/ReadingArea_rsl0-rcl11-esl310-rsm0-rcm100-esm100-rsr0-rcr25-esr29.exr,ReadingArea_rsl0-rcl11-esl310-rsm0-rcm100-esm100-rsr0-rcr25-esr29.npz,,,,,0,190,190,55,,left,green,0.59,720.7850830554962,721.2114460468292,3,1,9,brightness,readingArea,realistic,75,2023-03-31_14h33.20.567,tripletExp_regina_11082022,2022.2.4,119.85540667586807,
1,14,7,0,0.111111111111111,0.298245614035088,0,0.25,3.10526315789474,0,0.111111111111111,1.0,ReadingArea_rsl0-rcl11-esl29-rsm0-rcm25-esm310-rsr0-rcr11-esr100,exr/ReadingArea_rsl0-rcl11-esl29-rsm0-rcm25-esm310-rsr0-rcr11-esr100.exr,ReadingArea_rsl0-rcl11-esl29-rsm0-rcm25-esm310-rsr0-rcr11-esr100.npz,,,,,0,191,191,583,,left,green,1.09,722.915125131607,723.3415040969849,3,1,9,brightness,readingArea,realistic,75,2023-03-31_14h33.20.567,tripletExp_regina_11082022,2022.2.4,119.85540667586807,
8,1,10,0,0.25,1.0,0,0.111111111111111,0.298245614035088,0,0.694444444444444,1.0,ReadingArea_rsl0-rcl25-esl100-rsm0-rcm11-esm29-rsr0-rcr69-esr100,exr/ReadingArea_rsl0-rcl25-esl100-rsm0-rcm11-esm29-rsr0-rcr69-esr100.exr,ReadingArea_rsl0-rcl25-esl100-rsm0-rcm11-esm29-rsr0-rcr69-esr100.npz,,,,,0,192,192,442,,left,green,0.51,725.0462460517883,,3,1,9,brightness,readingArea,realistic,75,2023-03-31_14h33.20.567,tripletExp_regina_11082022,2022.2.4,119.85540667586807,
13,14,7,0,0.111111111111111,3.10526315789474,0,0.25,3.10526315789474,0,0.111111111111111,1.0,ReadingArea_rsl0-rcl11-esl310-rsm0-rcm25-esm310-rsr0-rcr11-esr100,exr/ReadingArea_rsl0-rcl11-esl310-rsm0-rcm25-esm310-rsr0-rcr11-esr100.exr,ReadingArea_rsl0-rcl11-esl310-rsm0-rcm25-esm310-rsr0-rcr11-esr100.npz,,,,,0,193,193,324,,left,green,0.62,727.1934912204742,727.6260139942169,3,1,9,brightness,readingArea,realistic,75,2023-03-31_14h33.20.567,tripletExp_regina_11082022,2022.2.4,119.85540667586807,
2,0,13,0,0.25,0.298245614035088,0,0.027777777777778,0.298245614035088,0,0.111111111111111,3.10526315789474,ReadingArea_rsl0-rcl25-esl29-rsm0-rcm2-esm29-rsr0-rcr11-esr310,exr/ReadingArea_rsl0-rcl25-esl29-rsm0-rcm2-esm29-rsr0-rcr11-esr310.exr,ReadingArea_rsl0-rcl25-esl29-rsm0-rcm2-esm29-rsr0-rcr11-esr310.npz,,,,,0,194,194,50,,left,green,0.97,729.3471660614014,,3,1,9,brightness,readingArea,realistic,75,2023-03-31_14h33.20.567,tripletExp_regina_11082022,2022.2.4,119.85540667586807,
2,1,10,0,0.25,0.298245614035088,0,0.111111111111111,0.298245614035088,0,0.694444444444444,1.0,ReadingArea_rsl0-rcl25-esl29-rsm0-rcm11-esm29-rsr0-rcr69-esr100,exr/ReadingArea_rsl0-rcl25-esl29-rsm0-rcm11-esm29-rsr0-rcr69-esr100.exr,ReadingArea_rsl0-rcl25-esl29-rsm0-rcm11-esm29-rsr0-rcr69-esr100.npz,,,,,0,195,195,585,,left,green,0.7,731.4880650043488,731.9135811328888,3,1,9,brightness,readingArea,realistic,75,2023-03-31_14h33.20.567,tripletExp_regina_11082022,2022.2.4,119.85540667586807,
10,13,1,0,0.694444444444444,1.0,0,0.111111111111111,3.10526315789474,0,0.111111111111111,0.298245614035088,ReadingArea_rsl0-rcl69-esl100-rsm0-rcm11-esm310-rsr0-rcr11-esr29,exr/ReadingArea_rsl0-rcl69-esl100-rsm0-rcm11-esm310-rsr0-rcr11-esr29.exr,ReadingArea_rsl0-rcl69-esl100-rsm0-rcm11-esm310-rsr0-rcr11-esr29.npz,,,,,0,196,196,149,,right,red,0.75,733.6222550868988,734.072811126709,3,1,9,brightness,readingArea,realistic,75,2023-03-31_14h33.20.567,tripletExp_regina_11082022,2022.2.4,119.85540667586807,
1,3,12,0,0.111111111111111,0.298245614035088,0,0.444444444444444,0.298245614035088,0,0.027777777777778,3.10526315789474,ReadingArea_rsl0-rcl11-esl29-rsm0-rcm44-esm29-rsr0-rcr2-esr310,exr/ReadingArea_rsl0-rcl11-esl29-rsm0-rcm44-esm29-rsr0-rcr2-esr310.exr,ReadingArea_rsl0-rcl11-esl29-rsm0-rcm44-esm29-rsr0-rcr2-esr310.npz,,,,,0,197,197,323,,left,green,1.12,735.7849872112274,736.219006061554,3,1,9,brightness,readingArea,realistic,75,2023-03-31_14h33.20.567,tripletExp_regina_11082022,2022.2.4,119.85540667586807,
4,11,14,0,0.694444444444444,0.298245614035088,0,1.0,1.0,0,0.25,3.10526315789474,ReadingArea_rsl0-rcl69-esl29-rsm0-rcm100-esm100-rsr0-rcr25-esr310,exr/ReadingArea_rsl0-rcl69-esl29-rsm0-rcm100-esm100-rsr0-rcr25-esr310.exr,ReadingArea_rsl0-rcl69-esl29-rsm0-rcm100-esm100-rsr0-rcr25-esr310.npz,,,,,0,198,198,165,,right,red,0.67,737.9417841434479,738.3773970603943,3,1,9,brightness,readingArea,realistic,75,2023-03-31_14h33.20.567,tripletExp_regina_11082022,2022.2.4,119.85540667586807,
11,9,4,0,1.0,1.0,0,0.444444444444444,1.0,0,0.694444444444444,0.298245614035088,ReadingArea_rsl0-rcl100-esl100-rsm0-rcm44-esm100-rsr0-rcr69-esr29,exr/ReadingArea_rsl0-rcl100-esl100-rsm0-rcm44-esm100-rsr0-rcr69-esr29.exr,ReadingArea_rsl0-rcl100-esl100-rsm0-rcm44-esm100-rsr0-rcr69-esr29.npz,,,,,0,199,199,26,,right,red,0.65,740.0669331550598,740.5346691608429,3,1,9,brightness,readingArea,realistic,75,2023-03-31_14h33.20.567,tripletExp_regina_11082022,2022.2.4,119.85540667586807,
10,3,11,0,0.694444444444444,1.0,0,0.444444444444444,0.298245614035088,0,1.0,1.0,ReadingArea_rsl0-rcl69-esl100-rsm0-rcm44-esm29-rsr0-rcr100-esr100,exr/ReadingArea_rsl0-rcl69-esl100-rsm0-rcm44-esm29-rsr0-rcr100-esr100.exr,ReadingArea_rsl0-rcl69-esl100-rsm0-rcm44-esm29-rsr0-rcr100-esr100.npz,,,,,0,200,200,485,,left,green,1.21,742.2234890460968,742.6568381786346,3,1,9,brightness,readingArea,realistic,75,2023-03-31_14h33.20.567,tripletExp_regina_11082022,2022.2.4,119.85540667586807,
3,2,11,0,0.444444444444444,0.298245614035088,0,0.25,0.298245614035088,0,1.0,1.0,ReadingArea_rsl0-rcl44-esl29-rsm0-rcm25-esm29-rsr0-rcr100-esr100,exr/ReadingArea_rsl0-rcl44-esl29-rsm0-rcm25-esm29-rsr0-rcr100-esr100.exr,ReadingArea_rsl0-rcl44-esl29-rsm0-rcm25-esm29-rsr0-rcr100-esr100.npz,,,,,0,201,201,257,,left,green,0.64,744.3547160625458,744.7909851074219,3,1,9,brightness,readingArea,realistic,75,2023-03-31_14h33.20.567,tripletExp_regina_11082022,2022.2.4,119.85540667586807,
10,5,4,0,0.694444444444444,1.0,0,1.0,0.298245614035088,0,0.694444444444444,0.298245614035088,ReadingArea_rsl0-rcl69-esl100-rsm0-rcm100-esm29-rsr0-rcr69-esr29,exr/ReadingArea_rsl0-rcl69-esl100-rsm0-rcm100-esm29-rsr0-rcr69-esr29.exr,ReadingArea_rsl0-rcl69-esl100-rsm0-rcm100-esm29-rsr0-rcr69-esr29.npz,,,,,0,202,202,455,,right,red,0.85,746.4824130535126,746.9103751182556,3,1,9,brightness,readingArea,realistic,75,2023-03-31_14h33.20.567,tripletExp_regina_11082022,2022.2.4,119.85540667586807,
0,5,2,0,0.027777777777778,0.298245614035088,0,1.0,0.298245614035088,0,0.25,0.298245614035088,ReadingArea_rsl0-rcl2-esl29-rsm0-rcm100-esm29-rsr0-rcr25-esr29,exr/ReadingArea_rsl0-rcl2-esl29-rsm0-rcm100-esm29-rsr0-rcr25-esr29.exr,ReadingArea_rsl0-rcl2-esl29-rsm0-rcm100-esm29-rsr0-rcr25-esr29.npz,,,,,0,203,203,25,,right,red,0.67,748.604896068573,749.0342831611633,3,1,9,brightness,readingArea,realistic,75,2023-03-31_14h33.20.567,tripletExp_regina_11082022,2022.2.4,119.85540667586807,
