index_left,index_middle,index_right,reflectance_surround_left,reflectance_center_left,emission_spot_left,reflectance_surround_middle,reflectance_center_middle,emission_spot_middle,reflectance_surround_right,reflectance_center_right,emission_spot_right,ImageName,ImageExr,ImageNpy,trials_2.thisRepN,trials_2.thisTrialN,trials_2.thisN,trials_2.thisIndex,trials.thisRepN,trials.thisTrialN,trials.thisN,trials.thisIndex,sound_1.started,BB_Trial.resp,BB_Trial.color,BB_Trial.rt,text.started,text.stopped,sound_2.started,block,sound_4.started,participant,session,L/B,scene,condition,nTrialsPerBlock,date,expName,psychopyVersion,frameRate,Unnamed: 42
5,2,7,0,1.0,0.298245614035088,0,0.25,0.298245614035088,0,0.111111111111111,1.0,ReadingArea_rsl0-rcl100-esl29-rsm0-rcm25-esm29-rsr0-rcr11-esr100,exr/ReadingArea_rsl0-rcl100-esl29-rsm0-rcm25-esm29-rsr0-rcr11-esr100.exr,ReadingArea_rsl0-rcl100-esl29-rsm0-rcm25-esm29-rsr0-rcr11-esr100.npz,,,,,0,0,0,179,183.5750536680221,right,red,0.98,208.15711498260487,185.02486205101013,115.39766166210174,1,,2,3,brightness,readingArea,realistic,75,2023-03-15_14h09.21.218,tripletExp_regina_11082022,2022.2.4,120.35547342414336,
1,2,12,0,0.111111111111111,0.298245614035088,0,0.25,0.298245614035088,0,0.027777777777778,3.10526315789474,ReadingArea_rsl0-rcl11-esl29-rsm0-rcm25-esm29-rsr0-rcr2-esr310,exr/ReadingArea_rsl0-rcl11-esl29-rsm0-rcm25-esm29-rsr0-rcr2-esr310.exr,ReadingArea_rsl0-rcl11-esl29-rsm0-rcm25-esm29-rsr0-rcr2-esr310.npz,,,,,0,1,1,229,,right,red,0.74,210.28251099586487,210.70310711860657,,1,,2,3,brightness,readingArea,realistic,75,2023-03-15_14h09.21.218,tripletExp_regina_11082022,2022.2.4,120.35547342414336,
5,2,8,0,1.0,0.298245614035088,0,0.25,0.298245614035088,0,0.25,1.0,ReadingArea_rsl0-rcl100-esl29-rsm0-rcm25-esm29-rsr0-rcr25-esr100,exr/ReadingArea_rsl0-rcl100-esl29-rsm0-rcm25-esm29-rsr0-rcr25-esr100.exr,ReadingArea_rsl0-rcl100-esl29-rsm0-rcm25-esm29-rsr0-rcr25-esr100.npz,,,,,0,2,2,538,,right,red,1.64,212.390132188797,212.74741506576527,,1,,2,3,brightness,readingArea,realistic,75,2023-03-15_14h09.21.218,tripletExp_regina_11082022,2022.2.4,120.35547342414336,
0,8,12,0,0.027777777777778,0.298245614035088,0,0.25,1.0,0,0.027777777777778,3.10526315789474,ReadingArea_rsl0-rcl2-esl29-rsm0-rcm25-esm100-rsr0-rcr2-esr310,exr/ReadingArea_rsl0-rcl2-esl29-rsm0-rcm25-esm100-rsr0-rcr2-esr310.exr,ReadingArea_rsl0-rcl2-esl29-rsm0-rcm25-esm100-rsr0-rcr2-esr310.npz,,,,,0,3,3,314,,right,red,2.28,216.21735095977783,216.57058310508728,,1,,2,3,brightness,readingArea,realistic,75,2023-03-15_14h09.21.218,tripletExp_regina_11082022,2022.2.4,120.35547342414336,
10,3,1,0,0.694444444444444,1.0,0,0.444444444444444,0.298245614035088,0,0.111111111111111,0.298245614035088,ReadingArea_rsl0-rcl69-esl100-rsm0-rcm44-esm29-rsr0-rcr11-esr29,exr/ReadingArea_rsl0-rcl69-esl100-rsm0-rcm44-esm29-rsr0-rcr11-esr29.exr,ReadingArea_rsl0-rcl69-esl100-rsm0-rcm44-esm29-rsr0-rcr11-esr29.npz,,,,,0,4,4,420,,right,red,2.11,220.0530300140381,220.4172580242157,,1,,2,3,brightness,readingArea,realistic,75,2023-03-15_14h09.21.218,tripletExp_regina_11082022,2022.2.4,120.35547342414336,
9,12,6,0,0.444444444444444,1.0,0,0.027777777777778,3.10526315789474,0,0.027777777777778,1.0,ReadingArea_rsl0-rcl44-esl100-rsm0-rcm2-esm310-rsr0-rcr2-esr100,exr/ReadingArea_rsl0-rcl44-esl100-rsm0-rcm2-esm310-rsr0-rcr2-esr100.exr,ReadingArea_rsl0-rcl44-esl100-rsm0-rcm2-esm310-rsr0-rcr2-esr100.npz,,,,,0,5,5,5,,right,red,1.19,222.112398147583,222.46203207969663,,1,,2,3,brightness,readingArea,realistic,75,2023-03-15_14h09.21.218,tripletExp_regina_11082022,2022.2.4,120.35547342414336,
6,11,7,0,0.027777777777778,1.0,0,1.0,1.0,0,0.111111111111111,1.0,ReadingArea_rsl0-rcl2-esl100-rsm0-rcm100-esm100-rsr0-rcr11-esr100,exr/ReadingArea_rsl0-rcl2-esl100-rsm0-rcm100-esm100-rsr0-rcr11-esr100.exr,ReadingArea_rsl0-rcl2-esl100-rsm0-rcm100-esm100-rsr0-rcr11-esr100.npz,,,,,0,6,6,571,,right,red,2.21,225.9037001132965,226.2605471611023,,1,,2,3,brightness,readingArea,realistic,75,2023-03-15_14h09.21.218,tripletExp_regina_11082022,2022.2.4,120.35547342414336,
14,0,3,0,0.25,3.10526315789474,0,0.027777777777778,0.298245614035088,0,0.444444444444444,0.298245614035088,ReadingArea_rsl0-rcl25-esl310-rsm0-rcm2-esm29-rsr0-rcr44-esr29,exr/ReadingArea_rsl0-rcl25-esl310-rsm0-rcm2-esm29-rsr0-rcr44-esr29.exr,ReadingArea_rsl0-rcl25-esl310-rsm0-rcm2-esm29-rsr0-rcr44-esr29.npz,,,,,0,7,7,75,,right,red,1.22,227.962702035904,228.31442713737488,,1,,2,3,brightness,readingArea,realistic,75,2023-03-15_14h09.21.218,tripletExp_regina_11082022,2022.2.4,120.35547342414336,
5,10,12,0,1.0,0.298245614035088,0,0.694444444444444,1.0,0,0.027777777777778,3.10526315789474,ReadingArea_rsl0-rcl100-esl29-rsm0-rcm69-esm100-rsr0-rcr2-esr310,exr/ReadingArea_rsl0-rcl100-esl29-rsm0-rcm69-esm100-rsr0-rcr2-esr310.exr,ReadingArea_rsl0-rcl100-esl29-rsm0-rcm69-esm100-rsr0-rcr2-esr310.npz,,,,,0,8,8,587,,left,green,1.06,230.0125470161438,230.34207916259768,,1,,2,3,brightness,readingArea,realistic,75,2023-03-15_14h09.21.218,tripletExp_regina_11082022,2022.2.4,120.35547342414336,
6,1,14,0,0.027777777777778,1.0,0,0.111111111111111,0.298245614035088,0,0.25,3.10526315789474,ReadingArea_rsl0-rcl2-esl100-rsm0-rcm11-esm29-rsr0-rcr25-esr310,exr/ReadingArea_rsl0-rcl2-esl100-rsm0-rcm11-esm29-rsr0-rcr25-esr310.exr,ReadingArea_rsl0-rcl2-esl100-rsm0-rcm11-esm29-rsr0-rcr25-esr310.npz,,,,,0,9,9,381,,left,green,0.87,232.05588102340693,232.4651501178741,,1,,2,3,brightness,readingArea,realistic,75,2023-03-15_14h09.21.218,tripletExp_regina_11082022,2022.2.4,120.35547342414336,
3,6,10,0,0.444444444444444,0.298245614035088,0,0.027777777777778,1.0,0,0.694444444444444,1.0,ReadingArea_rsl0-rcl44-esl29-rsm0-rcm2-esm100-rsr0-rcr69-esr100,exr/ReadingArea_rsl0-rcl44-esl29-rsm0-rcm2-esm100-rsr0-rcr69-esr100.exr,ReadingArea_rsl0-rcl44-esl29-rsm0-rcm2-esm100-rsr0-rcr69-esr100.npz,,,,,0,10,10,138,,left,green,1.57,234.1719889640808,234.4974060058593,,1,,2,3,brightness,readingArea,realistic,75,2023-03-15_14h09.21.218,tripletExp_regina_11082022,2022.2.4,120.35547342414336,
11,7,14,0,1.0,1.0,0,0.111111111111111,1.0,0,0.25,3.10526315789474,ReadingArea_rsl0-rcl100-esl100-rsm0-rcm11-esm100-rsr0-rcr25-esr310,exr/ReadingArea_rsl0-rcl100-esl100-rsm0-rcm11-esm100-rsr0-rcr25-esr310.exr,ReadingArea_rsl0-rcl100-esl100-rsm0-rcm11-esm100-rsr0-rcr25-esr310.npz,,,,,0,11,11,119,,right,red,4.77,239.7437260150909,,,1,,2,3,brightness,readingArea,realistic,75,2023-03-15_14h09.21.218,tripletExp_regina_11082022,2022.2.4,120.35547342414336,
1,9,7,0,0.111111111111111,0.298245614035088,0,0.444444444444444,1.0,0,0.111111111111111,1.0,ReadingArea_rsl0-rcl11-esl29-rsm0-rcm44-esm100-rsr0-rcr11-esr100,exr/ReadingArea_rsl0-rcl11-esl29-rsm0-rcm44-esm100-rsr0-rcr11-esr100.exr,ReadingArea_rsl0-rcl11-esl29-rsm0-rcm44-esm100-rsr0-rcr11-esr100.npz,,,,,0,12,12,397,,right,red,1.21,241.81390714645383,242.1960470676422,,1,,2,3,brightness,readingArea,realistic,75,2023-03-15_14h09.21.218,tripletExp_regina_11082022,2022.2.4,120.35547342414336,
5,1,13,0,1.0,0.298245614035088,0,0.111111111111111,0.298245614035088,0,0.111111111111111,3.10526315789474,ReadingArea_rsl0-rcl100-esl29-rsm0-rcm11-esm29-rsr0-rcr11-esr310,exr/ReadingArea_rsl0-rcl100-esl29-rsm0-rcm11-esm29-rsr0-rcr11-esr310.exr,ReadingArea_rsl0-rcl100-esl29-rsm0-rcm11-esm29-rsr0-rcr11-esr310.npz,,,,,0,13,13,594,,right,red,2.29,245.6430940628052,246.052973985672,,1,,2,3,brightness,readingArea,realistic,75,2023-03-15_14h09.21.218,tripletExp_regina_11082022,2022.2.4,120.35547342414336,
10,3,11,0,0.694444444444444,1.0,0,0.444444444444444,0.298245614035088,0,1.0,1.0,ReadingArea_rsl0-rcl69-esl100-rsm0-rcm44-esm29-rsr0-rcr100-esr100,exr/ReadingArea_rsl0-rcl69-esl100-rsm0-rcm44-esm29-rsr0-rcr100-esr100.exr,ReadingArea_rsl0-rcl69-esl100-rsm0-rcm44-esm29-rsr0-rcr100-esr100.npz,,,,,0,14,14,485,,left,green,2.1,249.50096797943115,249.8549971580505,,1,,2,3,brightness,readingArea,realistic,75,2023-03-15_14h09.21.218,tripletExp_regina_11082022,2022.2.4,120.35547342414336,
12,6,2,0,0.027777777777778,3.10526315789474,0,0.027777777777778,1.0,0,0.25,0.298245614035088,ReadingArea_rsl0-rcl2-esl310-rsm0-rcm2-esm100-rsr0-rcr25-esr29,exr/ReadingArea_rsl0-rcl2-esl310-rsm0-rcm2-esm100-rsr0-rcr25-esr29.exr,ReadingArea_rsl0-rcl2-esl310-rsm0-rcm2-esm100-rsr0-rcr25-esr29.npz,,,,,0,15,15,106,,left,green,1.55,251.5589029788971,251.89019107818604,,1,,2,3,brightness,readingArea,realistic,75,2023-03-15_14h09.21.218,tripletExp_regina_11082022,2022.2.4,120.35547342414336,
1,12,10,0,0.111111111111111,0.298245614035088,0,0.027777777777778,3.10526315789474,0,0.694444444444444,1.0,ReadingArea_rsl0-rcl11-esl29-rsm0-rcm2-esm310-rsr0-rcr69-esr100,exr/ReadingArea_rsl0-rcl11-esl29-rsm0-rcm2-esm310-rsr0-rcr69-esr100.exr,ReadingArea_rsl0-rcl11-esl29-rsm0-rcm2-esm310-rsr0-rcr69-esr100.npz,,,,,0,16,16,567,,left,green,2.52,255.3513641357422,255.6789891719818,,1,,2,3,brightness,readingArea,realistic,75,2023-03-15_14h09.21.218,tripletExp_regina_11082022,2022.2.4,120.35547342414336,
0,1,7,0,0.027777777777778,0.298245614035088,0,0.111111111111111,0.298245614035088,0,0.111111111111111,1.0,ReadingArea_rsl0-rcl2-esl29-rsm0-rcm11-esm29-rsr0-rcr11-esr100,exr/ReadingArea_rsl0-rcl2-esl29-rsm0-rcm11-esm29-rsr0-rcr11-esr100.exr,ReadingArea_rsl0-rcl2-esl29-rsm0-rcm11-esm29-rsr0-rcr11-esr100.npz,,,,,0,17,17,243,,right,red,2.88,259.1450309753418,259.4995629787445,,1,,2,3,brightness,readingArea,realistic,75,2023-03-15_14h09.21.218,tripletExp_regina_11082022,2022.2.4,120.35547342414336,
3,9,13,0,0.444444444444444,0.298245614035088,0,0.444444444444444,1.0,0,0.111111111111111,3.10526315789474,ReadingArea_rsl0-rcl44-esl29-rsm0-rcm44-esm100-rsr0-rcr11-esr310,exr/ReadingArea_rsl0-rcl44-esl29-rsm0-rcm44-esm100-rsr0-rcr11-esr310.exr,ReadingArea_rsl0-rcl44-esl29-rsm0-rcm44-esm100-rsr0-rcr11-esr310.npz,,,,,0,18,18,341,,right,red,1.98,262.9643189907074,263.3192811012268,,1,,2,3,brightness,readingArea,realistic,75,2023-03-15_14h09.21.218,tripletExp_regina_11082022,2022.2.4,120.35547342414336,
10,9,6,0,0.694444444444444,1.0,0,0.444444444444444,1.0,0,0.027777777777778,1.0,ReadingArea_rsl0-rcl69-esl100-rsm0-rcm44-esm100-rsr0-rcr2-esr100,exr/ReadingArea_rsl0-rcl69-esl100-rsm0-rcm44-esm100-rsr0-rcr2-esr100.exr,ReadingArea_rsl0-rcl69-esl100-rsm0-rcm44-esm100-rsr0-rcr2-esr100.npz,,,,,0,19,19,35,,left,green,1.18,265.00846695899963,265.3606541156769,,1,,2,3,brightness,readingArea,realistic,75,2023-03-15_14h09.21.218,tripletExp_regina_11082022,2022.2.4,120.35547342414336,
6,4,10,0,0.027777777777778,1.0,0,0.694444444444444,0.298245614035088,0,0.694444444444444,1.0,ReadingArea_rsl0-rcl2-esl100-rsm0-rcm69-esm29-rsr0-rcr69-esr100,exr/ReadingArea_rsl0-rcl2-esl100-rsm0-rcm69-esm29-rsr0-rcr69-esr100.exr,ReadingArea_rsl0-rcl2-esl100-rsm0-rcm69-esm29-rsr0-rcr69-esr100.npz,,,,,0,20,20,554,,right,red,1.14,267.0629720687866,267.415246963501,,1,,2,3,brightness,readingArea,realistic,75,2023-03-15_14h09.21.218,tripletExp_regina_11082022,2022.2.4,120.35547342414336,
2,14,9,0,0.25,0.298245614035088,0,0.25,3.10526315789474,0,0.444444444444444,1.0,ReadingArea_rsl0-rcl25-esl29-rsm0-rcm25-esm310-rsr0-rcr44-esr100,exr/ReadingArea_rsl0-rcl25-esl29-rsm0-rcm25-esm310-rsr0-rcr44-esr100.exr,ReadingArea_rsl0-rcl25-esl29-rsm0-rcm25-esm310-rsr0-rcr44-esr100.npz,,,,,0,21,21,51,,right,red,1.01,269.1073021888733,269.4378890991211,,1,,2,3,brightness,readingArea,realistic,75,2023-03-15_14h09.21.218,tripletExp_regina_11082022,2022.2.4,120.35547342414336,
2,13,3,0,0.25,0.298245614035088,0,0.111111111111111,3.10526315789474,0,0.444444444444444,0.298245614035088,ReadingArea_rsl0-rcl25-esl29-rsm0-rcm11-esm310-rsr0-rcr44-esr29,exr/ReadingArea_rsl0-rcl25-esl29-rsm0-rcm11-esm310-rsr0-rcr44-esr29.exr,ReadingArea_rsl0-rcl25-esl29-rsm0-rcm11-esm310-rsr0-rcr44-esr29.npz,,,,,0,22,22,473,,right,red,2.12,272.91586208343506,273.2476360797882,,1,,2,3,brightness,readingArea,realistic,75,2023-03-15_14h09.21.218,tripletExp_regina_11082022,2022.2.4,120.35547342414336,
3,14,5,0,0.444444444444444,0.298245614035088,0,0.25,3.10526315789474,0,1.0,0.298245614035088,ReadingArea_rsl0-rcl44-esl29-rsm0-rcm25-esm310-rsr0-rcr100-esr29,exr/ReadingArea_rsl0-rcl44-esl29-rsm0-rcm25-esm310-rsr0-rcr100-esr29.exr,ReadingArea_rsl0-rcl44-esl29-rsm0-rcm25-esm310-rsr0-rcr100-esr29.npz,,,,,0,23,23,131,,right,red,1.46,274.9465911388397,275.29628705978394,,1,,2,3,brightness,readingArea,realistic,75,2023-03-15_14h09.21.218,tripletExp_regina_11082022,2022.2.4,120.35547342414336,
6,2,12,0,0.027777777777778,1.0,0,0.25,0.298245614035088,0,0.027777777777778,3.10526315789474,ReadingArea_rsl0-rcl2-esl100-rsm0-rcm25-esm29-rsr0-rcr2-esr310,exr/ReadingArea_rsl0-rcl2-esl100-rsm0-rcm25-esm29-rsr0-rcr2-esr310.exr,ReadingArea_rsl0-rcl2-esl100-rsm0-rcm25-esm29-rsr0-rcr2-esr310.npz,,,,,0,24,24,480,,right,red,1.46,277.00036001205444,277.33891010284424,,1,,2,3,brightness,readingArea,realistic,75,2023-03-15_14h09.21.218,tripletExp_regina_11082022,2022.2.4,120.35547342414336,
4,13,1,0,0.694444444444444,0.298245614035088,0,0.111111111111111,3.10526315789474,0,0.111111111111111,0.298245614035088,ReadingArea_rsl0-rcl69-esl29-rsm0-rcm11-esm310-rsr0-rcr11-esr29,exr/ReadingArea_rsl0-rcl69-esl29-rsm0-rcm11-esm310-rsr0-rcr11-esr29.exr,ReadingArea_rsl0-rcl69-esl29-rsm0-rcm11-esm310-rsr0-rcr11-esr29.npz,,,,,0,25,25,192,,left,green,2.21,280.81001496315,281.16820907592773,,1,,2,3,brightness,readingArea,realistic,75,2023-03-15_14h09.21.218,tripletExp_regina_11082022,2022.2.4,120.35547342414336,
14,6,2,0,0.25,3.10526315789474,0,0.027777777777778,1.0,0,0.25,0.298245614035088,ReadingArea_rsl0-rcl25-esl310-rsm0-rcm2-esm100-rsr0-rcr25-esr29,exr/ReadingArea_rsl0-rcl25-esl310-rsm0-rcm2-esm100-rsr0-rcr25-esr29.exr,ReadingArea_rsl0-rcl25-esl310-rsm0-rcm2-esm100-rsr0-rcr25-esr29.npz,,,,,0,26,26,272,,right,red,1.8,284.65047907829285,285.0552041530609,,1,,2,3,brightness,readingArea,realistic,75,2023-03-15_14h09.21.218,tripletExp_regina_11082022,2022.2.4,120.35547342414336,
7,4,1,0,0.111111111111111,1.0,0,0.694444444444444,0.298245614035088,0,0.111111111111111,0.298245614035088,ReadingArea_rsl0-rcl11-esl100-rsm0-rcm69-esm29-rsr0-rcr11-esr29,exr/ReadingArea_rsl0-rcl11-esl100-rsm0-rcm69-esm29-rsr0-rcr11-esr29.exr,ReadingArea_rsl0-rcl11-esl100-rsm0-rcm69-esm29-rsr0-rcr11-esr29.npz,,,,,0,27,27,369,,left,green,1.07,286.7505660057068,287.1113560199737,,1,,2,3,brightness,readingArea,realistic,75,2023-03-15_14h09.21.218,tripletExp_regina_11082022,2022.2.4,120.35547342414336,
12,10,6,0,0.027777777777778,3.10526315789474,0,0.694444444444444,1.0,0,0.027777777777778,1.0,ReadingArea_rsl0-rcl2-esl310-rsm0-rcm69-esm100-rsr0-rcr2-esr100,exr/ReadingArea_rsl0-rcl2-esl310-rsm0-rcm69-esm100-rsr0-rcr2-esr100.exr,ReadingArea_rsl0-rcl2-esl310-rsm0-rcm69-esm100-rsr0-rcr2-esr100.npz,,,,,0,28,28,273,,left,green,1.39,288.8099319934845,289.17070508003235,,1,,2,3,brightness,readingArea,realistic,75,2023-03-15_14h09.21.218,tripletExp_regina_11082022,2022.2.4,120.35547342414336,
14,1,13,0,0.25,3.10526315789474,0,0.111111111111111,0.298245614035088,0,0.111111111111111,3.10526315789474,ReadingArea_rsl0-rcl25-esl310-rsm0-rcm11-esm29-rsr0-rcr11-esr310,exr/ReadingArea_rsl0-rcl25-esl310-rsm0-rcm11-esm29-rsr0-rcr11-esr310.exr,ReadingArea_rsl0-rcl25-esl310-rsm0-rcm11-esm29-rsr0-rcr11-esr310.npz,,,,,0,29,29,265,,right,red,1.39,290.85565304756165,291.184201002121,,1,,2,3,brightness,readingArea,realistic,75,2023-03-15_14h09.21.218,tripletExp_regina_11082022,2022.2.4,120.35547342414336,
4,3,11,0,0.694444444444444,0.298245614035088,0,0.444444444444444,0.298245614035088,0,1.0,1.0,ReadingArea_rsl0-rcl69-esl29-rsm0-rcm44-esm29-rsr0-rcr100-esr100,exr/ReadingArea_rsl0-rcl69-esl29-rsm0-rcm44-esm29-rsr0-rcr100-esr100.exr,ReadingArea_rsl0-rcl69-esl29-rsm0-rcm44-esm29-rsr0-rcr100-esr100.npz,,,,,0,30,30,439,,left,green,0.92,292.88604617118835,293.2427670955658,,1,,2,3,brightness,readingArea,realistic,75,2023-03-15_14h09.21.218,tripletExp_regina_11082022,2022.2.4,120.35547342414336,
6,12,7,0,0.027777777777778,1.0,0,0.027777777777778,3.10526315789474,0,0.111111111111111,1.0,ReadingArea_rsl0-rcl2-esl100-rsm0-rcm2-esm310-rsr0-rcr11-esr100,exr/ReadingArea_rsl0-rcl2-esl100-rsm0-rcm2-esm310-rsr0-rcr11-esr100.exr,ReadingArea_rsl0-rcl2-esl100-rsm0-rcm2-esm310-rsr0-rcr11-esr100.npz,,,,,0,31,31,157,,right,red,0.78,294.94439816474915,295.2911901473999,,1,,2,3,brightness,readingArea,realistic,75,2023-03-15_14h09.21.218,tripletExp_regina_11082022,2022.2.4,120.35547342414336,
14,0,9,0,0.25,3.10526315789474,0,0.027777777777778,0.298245614035088,0,0.444444444444444,1.0,ReadingArea_rsl0-rcl25-esl310-rsm0-rcm2-esm29-rsr0-rcr44-esr100,exr/ReadingArea_rsl0-rcl25-esl310-rsm0-rcm2-esm29-rsr0-rcr44-esr100.exr,ReadingArea_rsl0-rcl25-esl310-rsm0-rcm2-esm29-rsr0-rcr44-esr100.npz,,,,,0,32,32,90,,right,red,1.23,296.99431800842285,297.3285551071167,,1,,2,3,brightness,readingArea,realistic,75,2023-03-15_14h09.21.218,tripletExp_regina_11082022,2022.2.4,120.35547342414336,
6,10,9,0,0.027777777777778,1.0,0,0.694444444444444,1.0,0,0.444444444444444,1.0,ReadingArea_rsl0-rcl2-esl100-rsm0-rcm69-esm100-rsr0-rcr44-esr100,exr/ReadingArea_rsl0-rcl2-esl100-rsm0-rcm69-esm100-rsr0-rcr44-esr100.exr,ReadingArea_rsl0-rcl2-esl100-rsm0-rcm69-esm100-rsr0-rcr44-esr100.npz,,,,,0,33,33,148,,right,red,2.08,300.81091499328613,301.17409205436707,,1,,2,3,brightness,readingArea,realistic,75,2023-03-15_14h09.21.218,tripletExp_regina_11082022,2022.2.4,120.35547342414336,
1,12,0,0,0.111111111111111,0.298245614035088,0,0.027777777777778,3.10526315789474,0,0.027777777777778,0.298245614035088,ReadingArea_rsl0-rcl11-esl29-rsm0-rcm2-esm310-rsr0-rcr2-esr29,exr/ReadingArea_rsl0-rcl11-esl29-rsm0-rcm2-esm310-rsr0-rcr2-esr29.exr,ReadingArea_rsl0-rcl11-esl29-rsm0-rcm2-esm310-rsr0-rcr2-esr29.npz,,,,,0,34,34,113,,left,green,1.83,304.62814712524414,,,1,,2,3,brightness,readingArea,realistic,75,2023-03-15_14h09.21.218,tripletExp_regina_11082022,2022.2.4,120.35547342414336,
9,12,0,0,0.444444444444444,1.0,0,0.027777777777778,3.10526315789474,0,0.027777777777778,0.298245614035088,ReadingArea_rsl0-rcl44-esl100-rsm0-rcm2-esm310-rsr0-rcr2-esr29,exr/ReadingArea_rsl0-rcl44-esl100-rsm0-rcm2-esm310-rsr0-rcr2-esr29.exr,ReadingArea_rsl0-rcl44-esl100-rsm0-rcm2-esm310-rsr0-rcr2-esr29.npz,,,,,0,35,35,175,,right,red,2.42,308.48161816596985,308.8511061668396,,1,,2,3,brightness,readingArea,realistic,75,2023-03-15_14h09.21.218,tripletExp_regina_11082022,2022.2.4,120.35547342414336,
12,6,9,0,0.027777777777778,3.10526315789474,0,0.027777777777778,1.0,0,0.444444444444444,1.0,ReadingArea_rsl0-rcl2-esl310-rsm0-rcm2-esm100-rsr0-rcr44-esr100,exr/ReadingArea_rsl0-rcl2-esl310-rsm0-rcm2-esm100-rsr0-rcr44-esr100.exr,ReadingArea_rsl0-rcl2-esl310-rsm0-rcm2-esm100-rsr0-rcr44-esr100.npz,,,,,0,36,36,177,,left,green,0.86,310.56380105018616,310.91475915908813,,1,,2,3,brightness,readingArea,realistic,75,2023-03-15_14h09.21.218,tripletExp_regina_11082022,2022.2.4,120.35547342414336,
13,6,4,0,0.111111111111111,3.10526315789474,0,0.027777777777778,1.0,0,0.694444444444444,0.298245614035088,ReadingArea_rsl0-rcl11-esl310-rsm0-rcm2-esm100-rsr0-rcr69-esr29,exr/ReadingArea_rsl0-rcl11-esl310-rsm0-rcm2-esm100-rsr0-rcr69-esr29.exr,ReadingArea_rsl0-rcl11-esl310-rsm0-rcm2-esm100-rsr0-rcr69-esr29.npz,,,,,0,37,37,328,,,green,0.86,316.158625125885,316.4914879798889,,1,315.85566160678866,2,3,brightness,readingArea,realistic,75,2023-03-15_14h09.21.218,tripletExp_regina_11082022,2022.2.4,120.35547342414336,
14,12,0,0,0.25,3.10526315789474,0,0.027777777777778,3.10526315789474,0,0.027777777777778,0.298245614035088,ReadingArea_rsl0-rcl25-esl310-rsm0-rcm2-esm310-rsr0-rcr2-esr29,exr/ReadingArea_rsl0-rcl25-esl310-rsm0-rcm2-esm310-rsr0-rcr2-esr29.exr,ReadingArea_rsl0-rcl25-esl310-rsm0-rcm2-esm310-rsr0-rcr2-esr29.npz,,,,,0,38,38,409,,right,red,1.31,318.19293212890625,318.54702401161194,,1,,2,3,brightness,readingArea,realistic,75,2023-03-15_14h09.21.218,tripletExp_regina_11082022,2022.2.4,120.35547342414336,
8,1,10,0,0.25,1.0,0,0.111111111111111,0.298245614035088,0,0.694444444444444,1.0,ReadingArea_rsl0-rcl25-esl100-rsm0-rcm11-esm29-rsr0-rcr69-esr100,exr/ReadingArea_rsl0-rcl25-esl100-rsm0-rcm11-esm29-rsr0-rcr69-esr100.exr,ReadingArea_rsl0-rcl25-esl100-rsm0-rcm11-esm29-rsr0-rcr69-esr100.npz,,,,,0,39,39,442,,left,green,2.28,322.0078830718994,322.34237718582153,,1,,2,3,brightness,readingArea,realistic,75,2023-03-15_14h09.21.218,tripletExp_regina_11082022,2022.2.4,120.35547342414336,
1,11,14,0,0.111111111111111,0.298245614035088,0,1.0,1.0,0,0.25,3.10526315789474,ReadingArea_rsl0-rcl11-esl29-rsm0-rcm100-esm100-rsr0-rcr25-esr310,exr/ReadingArea_rsl0-rcl11-esl29-rsm0-rcm100-esm100-rsr0-rcr25-esr310.exr,ReadingArea_rsl0-rcl11-esl29-rsm0-rcm100-esm100-rsr0-rcr25-esr310.npz,,,,,0,40,40,399,,right,red,1.04,324.0423710346222,324.40270614624023,,1,,2,3,brightness,readingArea,realistic,75,2023-03-15_14h09.21.218,tripletExp_regina_11082022,2022.2.4,120.35547342414336,
10,3,14,0,0.694444444444444,1.0,0,0.444444444444444,0.298245614035088,0,0.25,3.10526315789474,ReadingArea_rsl0-rcl69-esl100-rsm0-rcm44-esm29-rsr0-rcr25-esr310,exr/ReadingArea_rsl0-rcl69-esl100-rsm0-rcm44-esm29-rsr0-rcr25-esr310.exr,ReadingArea_rsl0-rcl69-esl100-rsm0-rcm44-esm29-rsr0-rcr25-esr310.npz,,,,,0,41,41,597,,left,green,2.85,327.8663320541382,328.22354197502136,,1,,2,3,brightness,readingArea,realistic,75,2023-03-15_14h09.21.218,tripletExp_regina_11082022,2022.2.4,120.35547342414336,
1,3,4,0,0.111111111111111,0.298245614035088,0,0.444444444444444,0.298245614035088,0,0.694444444444444,0.298245614035088,ReadingArea_rsl0-rcl11-esl29-rsm0-rcm44-esm29-rsr0-rcr69-esr29,exr/ReadingArea_rsl0-rcl11-esl29-rsm0-rcm44-esm29-rsr0-rcr69-esr29.exr,ReadingArea_rsl0-rcl11-esl29-rsm0-rcm44-esm29-rsr0-rcr69-esr29.npz,,,,,0,42,42,153,,right,red,1.02,329.9211440086365,330.27757501602173,,1,,2,3,brightness,readingArea,realistic,75,2023-03-15_14h09.21.218,tripletExp_regina_11082022,2022.2.4,120.35547342414336,
2,12,13,0,0.25,0.298245614035088,0,0.027777777777778,3.10526315789474,0,0.111111111111111,3.10526315789474,ReadingArea_rsl0-rcl25-esl29-rsm0-rcm2-esm310-rsr0-rcr11-esr310,exr/ReadingArea_rsl0-rcl25-esl29-rsm0-rcm2-esm310-rsr0-rcr11-esr310.exr,ReadingArea_rsl0-rcl25-esl29-rsm0-rcm2-esm310-rsr0-rcr11-esr310.npz,,,,,0,43,43,232,,left,green,0.89,331.98366498947144,332.3504559993744,,1,,2,3,brightness,readingArea,realistic,75,2023-03-15_14h09.21.218,tripletExp_regina_11082022,2022.2.4,120.35547342414336,
11,1,4,0,1.0,1.0,0,0.111111111111111,0.298245614035088,0,0.694444444444444,0.298245614035088,ReadingArea_rsl0-rcl100-esl100-rsm0-rcm11-esm29-rsr0-rcr69-esr29,exr/ReadingArea_rsl0-rcl100-esl100-rsm0-rcm11-esm29-rsr0-rcr69-esr29.exr,ReadingArea_rsl0-rcl100-esl100-rsm0-rcm11-esm29-rsr0-rcr69-esr29.npz,,,,,0,44,44,110,,right,red,1.2,334.067214012146,334.43125104904175,,1,,2,3,brightness,readingArea,realistic,75,2023-03-15_14h09.21.218,tripletExp_regina_11082022,2022.2.4,120.35547342414336,
12,10,9,0,0.027777777777778,3.10526315789474,0,0.694444444444444,1.0,0,0.444444444444444,1.0,ReadingArea_rsl0-rcl2-esl310-rsm0-rcm69-esm100-rsr0-rcr44-esr100,exr/ReadingArea_rsl0-rcl2-esl310-rsm0-rcm69-esm100-rsr0-rcr44-esr100.exr,ReadingArea_rsl0-rcl2-esl310-rsm0-rcm69-esm100-rsr0-rcr44-esr100.npz,,,,,0,45,45,126,,right,red,1.01,336.1274631023407,336.4835669994354,,1,,2,3,brightness,readingArea,realistic,75,2023-03-15_14h09.21.218,tripletExp_regina_11082022,2022.2.4,120.35547342414336,
11,7,13,0,1.0,1.0,0,0.111111111111111,1.0,0,0.111111111111111,3.10526315789474,ReadingArea_rsl0-rcl100-esl100-rsm0-rcm11-esm100-rsr0-rcr11-esr310,exr/ReadingArea_rsl0-rcl100-esl100-rsm0-rcm11-esm100-rsr0-rcr11-esr310.exr,ReadingArea_rsl0-rcl100-esl100-rsm0-rcm11-esm100-rsr0-rcr11-esr310.npz,,,,,0,46,46,431,,right,red,1.01,338.1851890087128,338.5228831768036,,1,,2,3,brightness,readingArea,realistic,75,2023-03-15_14h09.21.218,tripletExp_regina_11082022,2022.2.4,120.35547342414336,
8,2,0,0,0.25,1.0,0,0.25,0.298245614035088,0,0.027777777777778,0.298245614035088,ReadingArea_rsl0-rcl25-esl100-rsm0-rcm25-esm29-rsr0-rcr2-esr29,exr/ReadingArea_rsl0-rcl25-esl100-rsm0-rcm25-esm29-rsr0-rcr2-esr29.exr,ReadingArea_rsl0-rcl25-esl100-rsm0-rcm25-esm29-rsr0-rcr2-esr29.npz,,,,,0,47,47,574,,right,red,0.64,340.21389412879944,340.56655502319336,,1,,2,3,brightness,readingArea,realistic,75,2023-03-15_14h09.21.218,tripletExp_regina_11082022,2022.2.4,120.35547342414336,
13,6,10,0,0.111111111111111,3.10526315789474,0,0.027777777777778,1.0,0,0.694444444444444,1.0,ReadingArea_rsl0-rcl11-esl310-rsm0-rcm2-esm100-rsr0-rcr69-esr100,exr/ReadingArea_rsl0-rcl11-esl310-rsm0-rcm2-esm100-rsr0-rcr69-esr100.exr,ReadingArea_rsl0-rcl11-esl310-rsm0-rcm2-esm100-rsr0-rcr69-esr100.npz,,,,,0,48,48,593,,left,green,1.35,342.28476905822754,342.64389204978943,,1,,2,3,brightness,readingArea,realistic,75,2023-03-15_14h09.21.218,tripletExp_regina_11082022,2022.2.4,120.35547342414336,
2,4,6,0,0.25,0.298245614035088,0,0.694444444444444,0.298245614035088,0,0.027777777777778,1.0,ReadingArea_rsl0-rcl25-esl29-rsm0-rcm69-esm29-rsr0-rcr2-esr100,exr/ReadingArea_rsl0-rcl25-esl29-rsm0-rcm69-esm29-rsr0-rcr2-esr100.exr,ReadingArea_rsl0-rcl25-esl29-rsm0-rcm69-esm29-rsr0-rcr2-esr100.npz,,,,,0,49,49,563,,left,green,1.19,344.3487710952759,344.7058820724488,,1,,2,3,brightness,readingArea,realistic,75,2023-03-15_14h09.21.218,tripletExp_regina_11082022,2022.2.4,120.35547342414336,
9,0,3,0,0.444444444444444,1.0,0,0.027777777777778,0.298245614035088,0,0.444444444444444,0.298245614035088,ReadingArea_rsl0-rcl44-esl100-rsm0-rcm2-esm29-rsr0-rcr44-esr29,exr/ReadingArea_rsl0-rcl44-esl100-rsm0-rcm2-esm29-rsr0-rcr44-esr29.exr,ReadingArea_rsl0-rcl44-esl100-rsm0-rcm2-esm29-rsr0-rcr44-esr29.npz,,,,,0,50,50,2,,right,red,1.07,346.39459896087646,346.72944808006287,,1,,2,3,brightness,readingArea,realistic,75,2023-03-15_14h09.21.218,tripletExp_regina_11082022,2022.2.4,120.35547342414336,
14,2,0,0,0.25,3.10526315789474,0,0.25,0.298245614035088,0,0.027777777777778,0.298245614035088,ReadingArea_rsl0-rcl25-esl310-rsm0-rcm25-esm29-rsr0-rcr2-esr29,exr/ReadingArea_rsl0-rcl25-esl310-rsm0-rcm25-esm29-rsr0-rcr2-esr29.exr,ReadingArea_rsl0-rcl25-esl310-rsm0-rcm25-esm29-rsr0-rcr2-esr29.npz,,,,,0,51,51,460,,right,red,1.79,350.20726799964905,350.5576140880585,,1,,2,3,brightness,readingArea,realistic,75,2023-03-15_14h09.21.218,tripletExp_regina_11082022,2022.2.4,120.35547342414336,
14,7,0,0,0.25,3.10526315789474,0,0.111111111111111,1.0,0,0.027777777777778,0.298245614035088,ReadingArea_rsl0-rcl25-esl310-rsm0-rcm11-esm100-rsr0-rcr2-esr29,exr/ReadingArea_rsl0-rcl25-esl310-rsm0-rcm11-esm100-rsr0-rcr2-esr29.exr,ReadingArea_rsl0-rcl25-esl310-rsm0-rcm11-esm100-rsr0-rcr2-esr29.npz,,,,,0,52,52,412,,right,red,1.28,352.2483880519867,352.6085569858551,,1,,2,3,brightness,readingArea,realistic,75,2023-03-15_14h09.21.218,tripletExp_regina_11082022,2022.2.4,120.35547342414336,
10,11,4,0,0.694444444444444,1.0,0,1.0,1.0,0,0.694444444444444,0.298245614035088,ReadingArea_rsl0-rcl69-esl100-rsm0-rcm100-esm100-rsr0-rcr69-esr29,exr/ReadingArea_rsl0-rcl69-esl100-rsm0-rcm100-esm100-rsr0-rcr69-esr29.exr,ReadingArea_rsl0-rcl69-esl100-rsm0-rcm100-esm100-rsr0-rcr69-esr29.npz,,,,,0,53,53,239,,right,red,1.2,354.3298511505127,354.68666410446167,,1,,2,3,brightness,readingArea,realistic,75,2023-03-15_14h09.21.218,tripletExp_regina_11082022,2022.2.4,120.35547342414336,
9,0,14,0,0.444444444444444,1.0,0,0.027777777777778,0.298245614035088,0,0.25,3.10526315789474,ReadingArea_rsl0-rcl44-esl100-rsm0-rcm2-esm29-rsr0-rcr25-esr310,exr/ReadingArea_rsl0-rcl44-esl100-rsm0-rcm2-esm29-rsr0-rcr25-esr310.exr,ReadingArea_rsl0-rcl44-esl100-rsm0-rcm2-esm29-rsr0-rcr25-esr310.npz,,,,,0,54,54,550,,left,green,1.24,356.40352511405945,356.8542890548706,,1,,2,3,brightness,readingArea,realistic,75,2023-03-15_14h09.21.218,tripletExp_regina_11082022,2022.2.4,120.35547342414336,
13,6,0,0,0.111111111111111,3.10526315789474,0,0.027777777777778,1.0,0,0.027777777777778,0.298245614035088,ReadingArea_rsl0-rcl11-esl310-rsm0-rcm2-esm100-rsr0-rcr2-esr29,exr/ReadingArea_rsl0-rcl11-esl310-rsm0-rcm2-esm100-rsr0-rcr2-esr29.exr,ReadingArea_rsl0-rcl11-esl310-rsm0-rcm2-esm100-rsr0-rcr2-esr29.npz,,,,,0,55,55,309,,right,red,1.03,358.56931710243225,,,1,,2,3,brightness,readingArea,realistic,75,2023-03-15_14h09.21.218,tripletExp_regina_11082022,2022.2.4,120.35547342414336,
3,2,8,0,0.444444444444444,0.298245614035088,0,0.25,0.298245614035088,0,0.25,1.0,ReadingArea_rsl0-rcl44-esl29-rsm0-rcm25-esm29-rsr0-rcr25-esr100,exr/ReadingArea_rsl0-rcl44-esl29-rsm0-rcm25-esm29-rsr0-rcr25-esr100.exr,ReadingArea_rsl0-rcl44-esl29-rsm0-rcm25-esm29-rsr0-rcr25-esr100.npz,,,,,0,56,56,181,,left,green,1.09,360.6304481029511,360.988569021225,,1,,2,3,brightness,readingArea,realistic,75,2023-03-15_14h09.21.218,tripletExp_regina_11082022,2022.2.4,120.35547342414336,
4,10,6,0,0.694444444444444,0.298245614035088,0,0.694444444444444,1.0,0,0.027777777777778,1.0,ReadingArea_rsl0-rcl69-esl29-rsm0-rcm69-esm100-rsr0-rcr2-esr100,exr/ReadingArea_rsl0-rcl69-esl29-rsm0-rcm69-esm100-rsr0-rcr2-esr100.exr,ReadingArea_rsl0-rcl69-esl29-rsm0-rcm69-esm100-rsr0-rcr2-esr100.npz,,,,,0,57,57,468,,left,green,2.66,364.4541370868683,,,1,,2,3,brightness,readingArea,realistic,75,2023-03-15_14h09.21.218,tripletExp_regina_11082022,2022.2.4,120.35547342414336,
0,9,14,0,0.027777777777778,0.298245614035088,0,0.444444444444444,1.0,0,0.25,3.10526315789474,ReadingArea_rsl0-rcl2-esl29-rsm0-rcm44-esm100-rsr0-rcr25-esr310,exr/ReadingArea_rsl0-rcl2-esl29-rsm0-rcm44-esm100-rsr0-rcr25-esr310.exr,ReadingArea_rsl0-rcl2-esl29-rsm0-rcm44-esm100-rsr0-rcr25-esr310.npz,,,,,0,58,58,433,,left,green,3.02,368.288311958313,368.6475551128388,,1,,2,3,brightness,readingArea,realistic,75,2023-03-15_14h09.21.218,tripletExp_regina_11082022,2022.2.4,120.35547342414336,
3,6,4,0,0.444444444444444,0.298245614035088,0,0.027777777777778,1.0,0,0.694444444444444,0.298245614035088,ReadingArea_rsl0-rcl44-esl29-rsm0-rcm2-esm100-rsr0-rcr69-esr29,exr/ReadingArea_rsl0-rcl44-esl29-rsm0-rcm2-esm100-rsr0-rcr69-esr29.exr,ReadingArea_rsl0-rcl44-esl29-rsm0-rcm2-esm100-rsr0-rcr69-esr29.npz,,,,,0,59,59,154,,left,green,2.68,372.12742018699646,372.4804480075836,,1,,2,3,brightness,readingArea,realistic,75,2023-03-15_14h09.21.218,tripletExp_regina_11082022,2022.2.4,120.35547342414336,
10,5,13,0,0.694444444444444,1.0,0,1.0,0.298245614035088,0,0.111111111111111,3.10526315789474,ReadingArea_rsl0-rcl69-esl100-rsm0-rcm100-esm29-rsr0-rcr11-esr310,exr/ReadingArea_rsl0-rcl69-esl100-rsm0-rcm100-esm29-rsr0-rcr11-esr310.exr,ReadingArea_rsl0-rcl69-esl100-rsm0-rcm100-esm29-rsr0-rcr11-esr310.npz,,,,,0,60,60,478,,right,red,1.21,374.1803750991821,,,1,,2,3,brightness,readingArea,realistic,75,2023-03-15_14h09.21.218,tripletExp_regina_11082022,2022.2.4,120.35547342414336,
9,13,6,0,0.444444444444444,1.0,0,0.111111111111111,3.10526315789474,0,0.027777777777778,1.0,ReadingArea_rsl0-rcl44-esl100-rsm0-rcm11-esm310-rsr0-rcr2-esr100,exr/ReadingArea_rsl0-rcl44-esl100-rsm0-rcm11-esm310-rsr0-rcr2-esr100.exr,ReadingArea_rsl0-rcl44-esl100-rsm0-rcm11-esm310-rsr0-rcr2-esr100.npz,,,,,0,61,61,13,,right,red,3.01,378.0312490463257,,,1,,2,3,brightness,readingArea,realistic,75,2023-03-15_14h09.21.218,tripletExp_regina_11082022,2022.2.4,120.35547342414336,
11,6,14,0,1.0,1.0,0,0.027777777777778,1.0,0,0.25,3.10526315789474,ReadingArea_rsl0-rcl100-esl100-rsm0-rcm2-esm100-rsr0-rcr25-esr310,exr/ReadingArea_rsl0-rcl100-esl100-rsm0-rcm2-esm100-rsr0-rcr25-esr310.exr,ReadingArea_rsl0-rcl100-esl100-rsm0-rcm2-esm100-rsr0-rcr25-esr310.npz,,,,,0,62,62,305,,right,red,2.11,381.8861651420593,382.2489941120148,,1,,2,3,brightness,readingArea,realistic,75,2023-03-15_14h09.21.218,tripletExp_regina_11082022,2022.2.4,120.35547342414336,
2,11,5,0,0.25,0.298245614035088,0,1.0,1.0,0,1.0,0.298245614035088,ReadingArea_rsl0-rcl25-esl29-rsm0-rcm100-esm100-rsr0-rcr100-esr29,exr/ReadingArea_rsl0-rcl25-esl29-rsm0-rcm100-esm100-rsr0-rcr100-esr29.exr,ReadingArea_rsl0-rcl25-esl29-rsm0-rcm100-esm100-rsr0-rcr100-esr29.npz,,,,,0,63,63,491,,right,red,3.4,385.7478530406952,386.1021511554718,,1,,2,3,brightness,readingArea,realistic,75,2023-03-15_14h09.21.218,tripletExp_regina_11082022,2022.2.4,120.35547342414336,
8,0,6,0,0.25,1.0,0,0.027777777777778,0.298245614035088,0,0.027777777777778,1.0,ReadingArea_rsl0-rcl25-esl100-rsm0-rcm2-esm29-rsr0-rcr2-esr100,exr/ReadingArea_rsl0-rcl25-esl100-rsm0-rcm2-esm29-rsr0-rcr2-esr100.exr,ReadingArea_rsl0-rcl25-esl100-rsm0-rcm2-esm29-rsr0-rcr2-esr100.npz,,,,,0,64,64,401,,right,red,1.18,387.810791015625,388.1713490486145,,1,,2,3,brightness,readingArea,realistic,75,2023-03-15_14h09.21.218,tripletExp_regina_11082022,2022.2.4,120.35547342414336,
7,2,0,0,0.111111111111111,1.0,0,0.25,0.298245614035088,0,0.027777777777778,0.298245614035088,ReadingArea_rsl0-rcl11-esl100-rsm0-rcm25-esm29-rsr0-rcr2-esr29,exr/ReadingArea_rsl0-rcl11-esl100-rsm0-rcm25-esm29-rsr0-rcr2-esr29.exr,ReadingArea_rsl0-rcl11-esl100-rsm0-rcm25-esm29-rsr0-rcr2-esr29.npz,,,,,0,65,65,520,,left,green,1.23,389.8678660392761,390.2051131725311,,1,,2,3,brightness,readingArea,realistic,75,2023-03-15_14h09.21.218,tripletExp_regina_11082022,2022.2.4,120.35547342414336,
13,9,6,0,0.111111111111111,3.10526315789474,0,0.444444444444444,1.0,0,0.027777777777778,1.0,ReadingArea_rsl0-rcl11-esl310-rsm0-rcm44-esm100-rsr0-rcr2-esr100,exr/ReadingArea_rsl0-rcl11-esl310-rsm0-rcm44-esm100-rsr0-rcr2-esr100.exr,ReadingArea_rsl0-rcl11-esl310-rsm0-rcm44-esm100-rsr0-rcr2-esr100.npz,,,,,0,66,66,19,,left,green,1.59,391.90903401374817,392.27087116241455,,1,,2,3,brightness,readingArea,realistic,75,2023-03-15_14h09.21.218,tripletExp_regina_11082022,2022.2.4,120.35547342414336,
8,4,1,0,0.25,1.0,0,0.694444444444444,0.298245614035088,0,0.111111111111111,0.298245614035088,ReadingArea_rsl0-rcl25-esl100-rsm0-rcm69-esm29-rsr0-rcr11-esr29,exr/ReadingArea_rsl0-rcl25-esl100-rsm0-rcm69-esm29-rsr0-rcr11-esr29.exr,ReadingArea_rsl0-rcl25-esl100-rsm0-rcm69-esm29-rsr0-rcr11-esr29.npz,,,,,0,67,67,286,,left,green,2.25,395.73849296569824,396.1022210121155,,1,,2,3,brightness,readingArea,realistic,75,2023-03-15_14h09.21.218,tripletExp_regina_11082022,2022.2.4,120.35547342414336,
10,7,11,0,0.694444444444444,1.0,0,0.111111111111111,1.0,0,1.0,1.0,ReadingArea_rsl0-rcl69-esl100-rsm0-rcm11-esm100-rsr0-rcr100-esr100,exr/ReadingArea_rsl0-rcl69-esl100-rsm0-rcm11-esm100-rsr0-rcr100-esr100.exr,ReadingArea_rsl0-rcl69-esl100-rsm0-rcm11-esm100-rsr0-rcr100-esr100.npz,,,,,0,68,68,542,,left,green,1.39,397.8108050823212,398.1471660137177,,1,,2,3,brightness,readingArea,realistic,75,2023-03-15_14h09.21.218,tripletExp_regina_11082022,2022.2.4,120.35547342414336,
1,5,13,0,0.111111111111111,0.298245614035088,0,1.0,0.298245614035088,0,0.111111111111111,3.10526315789474,ReadingArea_rsl0-rcl11-esl29-rsm0-rcm100-esm29-rsr0-rcr11-esr310,exr/ReadingArea_rsl0-rcl11-esl29-rsm0-rcm100-esm29-rsr0-rcr11-esr310.exr,ReadingArea_rsl0-rcl11-esl29-rsm0-rcm100-esm29-rsr0-rcr11-esr310.npz,,,,,0,69,69,598,,right,red,1.25,399.8527970314026,400.2142560482025,,1,,2,3,brightness,readingArea,realistic,75,2023-03-15_14h09.21.218,tripletExp_regina_11082022,2022.2.4,120.35547342414336,
4,5,9,0,0.694444444444444,0.298245614035088,0,1.0,0.298245614035088,0,0.444444444444444,1.0,ReadingArea_rsl0-rcl69-esl29-rsm0-rcm100-esm29-rsr0-rcr44-esr100,exr/ReadingArea_rsl0-rcl69-esl29-rsm0-rcm100-esm29-rsr0-rcr44-esr100.exr,ReadingArea_rsl0-rcl69-esl29-rsm0-rcm100-esm29-rsr0-rcr44-esr100.npz,,,,,0,70,70,211,,right,red,1.21,401.9146800041199,402.2489759922028,,1,,2,3,brightness,readingArea,realistic,75,2023-03-15_14h09.21.218,tripletExp_regina_11082022,2022.2.4,120.35547342414336,
14,3,4,0,0.25,3.10526315789474,0,0.444444444444444,0.298245614035088,0,0.694444444444444,0.298245614035088,ReadingArea_rsl0-rcl25-esl310-rsm0-rcm44-esm29-rsr0-rcr69-esr29,exr/ReadingArea_rsl0-rcl25-esl310-rsm0-rcm44-esm29-rsr0-rcr69-esr29.exr,ReadingArea_rsl0-rcl25-esl310-rsm0-rcm44-esm29-rsr0-rcr69-esr29.npz,,,,,0,71,71,127,,right,red,0.85,403.95249700546265,404.2917921543121,,1,,2,3,brightness,readingArea,realistic,75,2023-03-15_14h09.21.218,tripletExp_regina_11082022,2022.2.4,120.35547342414336,
8,4,2,0,0.25,1.0,0,0.694444444444444,0.298245614035088,0,0.25,0.298245614035088,ReadingArea_rsl0-rcl25-esl100-rsm0-rcm69-esm29-rsr0-rcr25-esr29,exr/ReadingArea_rsl0-rcl25-esl100-rsm0-rcm69-esm29-rsr0-rcr25-esr29.exr,ReadingArea_rsl0-rcl25-esl100-rsm0-rcm69-esm29-rsr0-rcr25-esr29.npz,,,,,0,72,72,184,,left,green,1.08,405.98770117759705,406.34708404541016,,1,,2,3,brightness,readingArea,realistic,75,2023-03-15_14h09.21.218,tripletExp_regina_11082022,2022.2.4,120.35547342414336,
8,13,3,0,0.25,1.0,0,0.111111111111111,3.10526315789474,0,0.444444444444444,0.298245614035088,ReadingArea_rsl0-rcl25-esl100-rsm0-rcm11-esm310-rsr0-rcr44-esr29,exr/ReadingArea_rsl0-rcl25-esl100-rsm0-rcm11-esm310-rsr0-rcr44-esr29.exr,ReadingArea_rsl0-rcl25-esl100-rsm0-rcm11-esm310-rsr0-rcr44-esr29.npz,,,,,0,73,73,553,,left,green,1.39,408.06232810020447,408.4263219833374,,1,,2,3,brightness,readingArea,realistic,75,2023-03-15_14h09.21.218,tripletExp_regina_11082022,2022.2.4,120.35547342414336,
4,5,8,0,0.694444444444444,0.298245614035088,0,1.0,0.298245614035088,0,0.25,1.0,ReadingArea_rsl0-rcl69-esl29-rsm0-rcm100-esm29-rsr0-rcr25-esr100,exr/ReadingArea_rsl0-rcl69-esl29-rsm0-rcm100-esm29-rsr0-rcr25-esr100.exr,ReadingArea_rsl0-rcl69-esl29-rsm0-rcm100-esm29-rsr0-rcr25-esr100.npz,,,,,0,74,74,54,,left,green,2.66,411.8792519569397,412.08492612838745,,1,,2,3,brightness,readingArea,realistic,75,2023-03-15_14h09.21.218,tripletExp_regina_11082022,2022.2.4,120.35547342414336,
6,12,8,0,0.027777777777778,1.0,0,0.027777777777778,3.10526315789474,0,0.25,1.0,ReadingArea_rsl0-rcl2-esl100-rsm0-rcm2-esm310-rsr0-rcr25-esr100,exr/ReadingArea_rsl0-rcl2-esl100-rsm0-rcm2-esm310-rsr0-rcr25-esr100.exr,ReadingArea_rsl0-rcl2-esl100-rsm0-rcm2-esm310-rsr0-rcr25-esr100.npz,,,,,0,75,75,186,,left,green,3.06,488.8815450668335,,,2,,2,3,brightness,readingArea,realistic,75,2023-03-15_14h09.21.218,tripletExp_regina_11082022,2022.2.4,120.35547342414336,
0,10,14,0,0.027777777777778,0.298245614035088,0,0.694444444444444,1.0,0,0.25,3.10526315789474,ReadingArea_rsl0-rcl2-esl29-rsm0-rcm69-esm100-rsr0-rcr25-esr310,exr/ReadingArea_rsl0-rcl2-esl29-rsm0-rcm69-esm100-rsr0-rcr25-esr310.exr,ReadingArea_rsl0-rcl2-esl29-rsm0-rcm69-esm100-rsr0-rcr25-esr310.npz,,,,,0,76,76,31,,right,red,2.74,492.6947031021118,493.0630850791931,,2,,2,3,brightness,readingArea,realistic,75,2023-03-15_14h09.21.218,tripletExp_regina_11082022,2022.2.4,120.35547342414336,
13,1,4,0,0.111111111111111,3.10526315789474,0,0.111111111111111,0.298245614035088,0,0.694444444444444,0.298245614035088,ReadingArea_rsl0-rcl11-esl310-rsm0-rcm11-esm29-rsr0-rcr69-esr29,exr/ReadingArea_rsl0-rcl11-esl310-rsm0-rcm11-esm29-rsr0-rcr69-esr29.exr,ReadingArea_rsl0-rcl11-esl310-rsm0-rcm11-esm29-rsr0-rcr69-esr29.npz,,,,,0,77,77,396,,right,red,2.73,496.5336711406708,496.8833529949188,,2,,2,3,brightness,readingArea,realistic,75,2023-03-15_14h09.21.218,tripletExp_regina_11082022,2022.2.4,120.35547342414336,
6,0,1,0,0.027777777777778,1.0,0,0.027777777777778,0.298245614035088,0,0.111111111111111,0.298245614035088,ReadingArea_rsl0-rcl2-esl100-rsm0-rcm2-esm29-rsr0-rcr11-esr29,exr/ReadingArea_rsl0-rcl2-esl100-rsm0-rcm2-esm29-rsr0-rcr11-esr29.exr,ReadingArea_rsl0-rcl2-esl100-rsm0-rcm2-esm29-rsr0-rcr11-esr29.npz,,,,,0,78,78,302,,left,green,1.32,498.58135414123535,498.9431581497192,,2,,2,3,brightness,readingArea,realistic,75,2023-03-15_14h09.21.218,tripletExp_regina_11082022,2022.2.4,120.35547342414336,
1,8,5,0,0.111111111111111,0.298245614035088,0,0.25,1.0,0,1.0,0.298245614035088,ReadingArea_rsl0-rcl11-esl29-rsm0-rcm25-esm100-rsr0-rcr100-esr29,exr/ReadingArea_rsl0-rcl11-esl29-rsm0-rcm25-esm100-rsr0-rcr100-esr29.exr,ReadingArea_rsl0-rcl11-esl29-rsm0-rcm25-esm100-rsr0-rcr100-esr29.npz,,,,,0,79,79,445,,right,red,1.07,500.6653130054474,501.01076197624207,,2,,2,3,brightness,readingArea,realistic,75,2023-03-15_14h09.21.218,tripletExp_regina_11082022,2022.2.4,120.35547342414336,
8,10,9,0,0.25,1.0,0,0.694444444444444,1.0,0,0.444444444444444,1.0,ReadingArea_rsl0-rcl25-esl100-rsm0-rcm69-esm100-rsr0-rcr44-esr100,exr/ReadingArea_rsl0-rcl25-esl100-rsm0-rcm69-esm100-rsr0-rcr44-esr100.exr,ReadingArea_rsl0-rcl25-esl100-rsm0-rcm69-esm100-rsr0-rcr44-esr100.npz,,,,,0,80,80,342,,right,red,1.11,502.6993610858917,503.05855798721313,,2,,2,3,brightness,readingArea,realistic,75,2023-03-15_14h09.21.218,tripletExp_regina_11082022,2022.2.4,120.35547342414336,
9,13,0,0,0.444444444444444,1.0,0,0.111111111111111,3.10526315789474,0,0.027777777777778,0.298245614035088,ReadingArea_rsl0-rcl44-esl100-rsm0-rcm11-esm310-rsr0-rcr2-esr29,exr/ReadingArea_rsl0-rcl44-esl100-rsm0-rcm11-esm310-rsr0-rcr2-esr29.exr,ReadingArea_rsl0-rcl44-esl100-rsm0-rcm11-esm310-rsr0-rcr2-esr29.npz,,,,,0,81,81,205,,left,green,0.97,504.759211063385,,,2,,2,3,brightness,readingArea,realistic,75,2023-03-15_14h09.21.218,tripletExp_regina_11082022,2022.2.4,120.35547342414336,
8,6,13,0,0.25,1.0,0,0.027777777777778,1.0,0,0.111111111111111,3.10526315789474,ReadingArea_rsl0-rcl25-esl100-rsm0-rcm2-esm100-rsr0-rcr11-esr310,exr/ReadingArea_rsl0-rcl25-esl100-rsm0-rcm2-esm100-rsr0-rcr11-esr310.exr,ReadingArea_rsl0-rcl25-esl100-rsm0-rcm2-esm100-rsr0-rcr11-esr310.npz,,,,,0,82,82,440,,left,green,1.22,506.8377041816712,507.17392897605896,,2,,2,3,brightness,readingArea,realistic,75,2023-03-15_14h09.21.218,tripletExp_regina_11082022,2022.2.4,120.35547342414336,
14,7,8,0,0.25,3.10526315789474,0,0.111111111111111,1.0,0,0.25,1.0,ReadingArea_rsl0-rcl25-esl310-rsm0-rcm11-esm100-rsr0-rcr25-esr100,exr/ReadingArea_rsl0-rcl25-esl310-rsm0-rcm11-esm100-rsr0-rcr25-esr100.exr,ReadingArea_rsl0-rcl25-esl310-rsm0-rcm11-esm100-rsr0-rcr25-esr100.npz,,,,,0,83,83,326,,right,red,0.97,508.87357211112976,509.2254991531372,,2,,2,3,brightness,readingArea,realistic,75,2023-03-15_14h09.21.218,tripletExp_regina_11082022,2022.2.4,120.35547342414336,
3,1,6,0,0.444444444444444,0.298245614035088,0,0.111111111111111,0.298245614035088,0,0.027777777777778,1.0,ReadingArea_rsl0-rcl44-esl29-rsm0-rcm11-esm29-rsr0-rcr2-esr100,exr/ReadingArea_rsl0-rcl44-esl29-rsm0-rcm11-esm29-rsr0-rcr2-esr100.exr,ReadingArea_rsl0-rcl44-esl29-rsm0-rcm11-esm29-rsr0-rcr2-esr100.npz,,,,,0,84,84,464,,right,red,0.77,510.9331791400909,511.2687990665436,,2,,2,3,brightness,readingArea,realistic,75,2023-03-15_14h09.21.218,tripletExp_regina_11082022,2022.2.4,120.35547342414336,
12,13,14,0,0.027777777777778,3.10526315789474,0,0.111111111111111,3.10526315789474,0,0.25,3.10526315789474,ReadingArea_rsl0-rcl2-esl310-rsm0-rcm11-esm310-rsr0-rcr25-esr310,exr/ReadingArea_rsl0-rcl2-esl310-rsm0-rcm11-esm310-rsr0-rcr25-esr310.exr,ReadingArea_rsl0-rcl2-esl310-rsm0-rcm11-esm310-rsr0-rcr25-esr310.npz,,,,,0,85,85,208,,left,green,1.25,512.981290102005,513.3154881000519,,2,,2,3,brightness,readingArea,realistic,75,2023-03-15_14h09.21.218,tripletExp_regina_11082022,2022.2.4,120.35547342414336,
3,14,4,0,0.444444444444444,0.298245614035088,0,0.25,3.10526315789474,0,0.694444444444444,0.298245614035088,ReadingArea_rsl0-rcl44-esl29-rsm0-rcm25-esm310-rsr0-rcr69-esr29,exr/ReadingArea_rsl0-rcl44-esl29-rsm0-rcm25-esm310-rsr0-rcr69-esr29.exr,ReadingArea_rsl0-rcl44-esl29-rsm0-rcm25-esm310-rsr0-rcr69-esr29.npz,,,,,0,86,86,537,,right,red,1.28,515.0092241764069,515.3410971164703,,2,,2,3,brightness,readingArea,realistic,75,2023-03-15_14h09.21.218,tripletExp_regina_11082022,2022.2.4,120.35547342414336,
13,9,4,0,0.111111111111111,3.10526315789474,0,0.444444444444444,1.0,0,0.694444444444444,0.298245614035088,ReadingArea_rsl0-rcl11-esl310-rsm0-rcm44-esm100-rsr0-rcr69-esr29,exr/ReadingArea_rsl0-rcl11-esl310-rsm0-rcm44-esm100-rsr0-rcr69-esr29.exr,ReadingArea_rsl0-rcl11-esl310-rsm0-rcm44-esm100-rsr0-rcr69-esr29.npz,,,,,0,87,87,444,,left,green,0.98,517.042484998703,517.4042251110077,,2,,2,3,brightness,readingArea,realistic,75,2023-03-15_14h09.21.218,tripletExp_regina_11082022,2022.2.4,120.35547342414336,
11,10,0,0,1.0,1.0,0,0.694444444444444,1.0,0,0.027777777777778,0.298245614035088,ReadingArea_rsl0-rcl100-esl100-rsm0-rcm69-esm100-rsr0-rcr2-esr29,exr/ReadingArea_rsl0-rcl100-esl100-rsm0-rcm69-esm100-rsr0-rcr2-esr29.exr,ReadingArea_rsl0-rcl100-esl100-rsm0-rcm69-esm100-rsr0-rcr2-esr29.npz,,,,,0,88,88,549,,left,green,0.8,519.1184179782867,519.4513461589813,,2,,2,3,brightness,readingArea,realistic,75,2023-03-15_14h09.21.218,tripletExp_regina_11082022,2022.2.4,120.35547342414336,
7,12,3,0,0.111111111111111,1.0,0,0.027777777777778,3.10526315789474,0,0.444444444444444,0.298245614035088,ReadingArea_rsl0-rcl11-esl100-rsm0-rcm2-esm310-rsr0-rcr44-esr29,exr/ReadingArea_rsl0-rcl11-esl100-rsm0-rcm2-esm310-rsr0-rcr44-esr29.exr,ReadingArea_rsl0-rcl11-esl100-rsm0-rcm2-esm310-rsr0-rcr44-esr29.npz,,,,,0,89,89,584,,left,green,1.98,522.8917591571808,523.2563331127167,,2,,2,3,brightness,readingArea,realistic,75,2023-03-15_14h09.21.218,tripletExp_regina_11082022,2022.2.4,120.35547342414336,
6,4,2,0,0.027777777777778,1.0,0,0.694444444444444,0.298245614035088,0,0.25,0.298245614035088,ReadingArea_rsl0-rcl2-esl100-rsm0-rcm69-esm29-rsr0-rcr25-esr29,exr/ReadingArea_rsl0-rcl2-esl100-rsm0-rcm69-esm29-rsr0-rcr25-esr29.exr,ReadingArea_rsl0-rcl2-esl100-rsm0-rcm69-esm29-rsr0-rcr25-esr29.npz,,,,,0,90,90,134,,right,red,1.23,524.944883108139,525.2865760326385,,2,,2,3,brightness,readingArea,realistic,75,2023-03-15_14h09.21.218,tripletExp_regina_11082022,2022.2.4,120.35547342414336,
14,5,13,0,0.25,3.10526315789474,0,1.0,0.298245614035088,0,0.111111111111111,3.10526315789474,ReadingArea_rsl0-rcl25-esl310-rsm0-rcm100-esm29-rsr0-rcr11-esr310,exr/ReadingArea_rsl0-rcl25-esl310-rsm0-rcm100-esm29-rsr0-rcr11-esr310.exr,ReadingArea_rsl0-rcl25-esl310-rsm0-rcm100-esm29-rsr0-rcr11-esr310.npz,,,,,0,91,91,524,,right,red,1.04,526.9931271076202,527.3798260688782,,2,,2,3,brightness,readingArea,realistic,75,2023-03-15_14h09.21.218,tripletExp_regina_11082022,2022.2.4,120.35547342414336,
3,8,7,0,0.444444444444444,0.298245614035088,0,0.25,1.0,0,0.111111111111111,1.0,ReadingArea_rsl0-rcl44-esl29-rsm0-rcm25-esm100-rsr0-rcr11-esr100,exr/ReadingArea_rsl0-rcl44-esl29-rsm0-rcm25-esm100-rsr0-rcr11-esr100.exr,ReadingArea_rsl0-rcl44-esl29-rsm0-rcm25-esm100-rsr0-rcr11-esr100.npz,,,,,0,92,92,484,,left,green,2.36,530.8628940582275,,,2,,2,3,brightness,readingArea,realistic,75,2023-03-15_14h09.21.218,tripletExp_regina_11082022,2022.2.4,120.35547342414336,
6,10,8,0,0.027777777777778,1.0,0,0.694444444444444,1.0,0,0.25,1.0,ReadingArea_rsl0-rcl2-esl100-rsm0-rcm69-esm100-rsr0-rcr25-esr100,exr/ReadingArea_rsl0-rcl2-esl100-rsm0-rcm69-esm100-rsr0-rcr25-esr100.exr,ReadingArea_rsl0-rcl2-esl100-rsm0-rcm69-esm100-rsr0-rcr25-esr100.npz,,,,,0,93,93,167,,right,red,1.08,532.9228911399841,533.2932221889496,,2,,2,3,brightness,readingArea,realistic,75,2023-03-15_14h09.21.218,tripletExp_regina_11082022,2022.2.4,120.35547342414336,
7,14,10,0,0.111111111111111,1.0,0,0.25,3.10526315789474,0,0.694444444444444,1.0,ReadingArea_rsl0-rcl11-esl100-rsm0-rcm25-esm310-rsr0-rcr69-esr100,exr/ReadingArea_rsl0-rcl11-esl100-rsm0-rcm25-esm310-rsr0-rcr69-esr100.exr,ReadingArea_rsl0-rcl11-esl100-rsm0-rcm25-esm310-rsr0-rcr69-esr100.npz,,,,,0,94,94,472,,right,red,0.81,535.0035321712494,535.3366801738739,,2,,2,3,brightness,readingArea,realistic,75,2023-03-15_14h09.21.218,tripletExp_regina_11082022,2022.2.4,120.35547342414336,
8,9,1,0,0.25,1.0,0,0.444444444444444,1.0,0,0.111111111111111,0.298245614035088,ReadingArea_rsl0-rcl25-esl100-rsm0-rcm44-esm100-rsr0-rcr11-esr29,exr/ReadingArea_rsl0-rcl25-esl100-rsm0-rcm44-esm100-rsr0-rcr11-esr29.exr,ReadingArea_rsl0-rcl25-esl100-rsm0-rcm44-esm100-rsr0-rcr11-esr29.npz,,,,,0,95,95,266,,left,green,1.0,537.0461740493774,537.37992811203,,2,,2,3,brightness,readingArea,realistic,75,2023-03-15_14h09.21.218,tripletExp_regina_11082022,2022.2.4,120.35547342414336,
13,2,9,0,0.111111111111111,3.10526315789474,0,0.25,0.298245614035088,0,0.444444444444444,1.0,ReadingArea_rsl0-rcl11-esl310-rsm0-rcm25-esm29-rsr0-rcr44-esr100,exr/ReadingArea_rsl0-rcl11-esl310-rsm0-rcm25-esm29-rsr0-rcr44-esr100.exr,ReadingArea_rsl0-rcl11-esl310-rsm0-rcm25-esm29-rsr0-rcr44-esr100.npz,,,,,0,96,96,457,,left,green,1.65,539.098785161972,539.4659230709076,,2,,2,3,brightness,readingArea,realistic,75,2023-03-15_14h09.21.218,tripletExp_regina_11082022,2022.2.4,120.35547342414336,
4,3,9,0,0.694444444444444,0.298245614035088,0,0.444444444444444,0.298245614035088,0,0.444444444444444,1.0,ReadingArea_rsl0-rcl69-esl29-rsm0-rcm44-esm29-rsr0-rcr44-esr100,exr/ReadingArea_rsl0-rcl69-esl29-rsm0-rcm44-esm29-rsr0-rcr44-esr100.exr,ReadingArea_rsl0-rcl69-esl29-rsm0-rcm44-esm29-rsr0-rcr44-esr100.npz,,,,,0,97,97,451,,left,green,2.25,542.9461979866028,543.309198141098,,2,,2,3,brightness,readingArea,realistic,75,2023-03-15_14h09.21.218,tripletExp_regina_11082022,2022.2.4,120.35547342414336,
2,1,13,0,0.25,0.298245614035088,0,0.111111111111111,0.298245614035088,0,0.111111111111111,3.10526315789474,ReadingArea_rsl0-rcl25-esl29-rsm0-rcm11-esm29-rsr0-rcr11-esr310,exr/ReadingArea_rsl0-rcl25-esl29-rsm0-rcm11-esm29-rsr0-rcr11-esr310.exr,ReadingArea_rsl0-rcl25-esl29-rsm0-rcm11-esm29-rsr0-rcr11-esr310.npz,,,,,0,98,98,290,,left,green,1.16,545.0074660778046,,,2,,2,3,brightness,readingArea,realistic,75,2023-03-15_14h09.21.218,tripletExp_regina_11082022,2022.2.4,120.35547342414336,
2,3,9,0,0.25,0.298245614035088,0,0.444444444444444,0.298245614035088,0,0.444444444444444,1.0,ReadingArea_rsl0-rcl25-esl29-rsm0-rcm44-esm29-rsr0-rcr44-esr100,exr/ReadingArea_rsl0-rcl25-esl29-rsm0-rcm44-esm29-rsr0-rcr44-esr100.exr,ReadingArea_rsl0-rcl25-esl29-rsm0-rcm44-esm29-rsr0-rcr44-esr100.npz,,,,,0,99,99,190,,left,green,1.12,547.0701870918274,547.4054050445557,,2,,2,3,brightness,readingArea,realistic,75,2023-03-15_14h09.21.218,tripletExp_regina_11082022,2022.2.4,120.35547342414336,
11,0,6,0,1.0,1.0,0,0.027777777777778,0.298245614035088,0,0.027777777777778,1.0,ReadingArea_rsl0-rcl100-esl100-rsm0-rcm2-esm29-rsr0-rcr2-esr100,exr/ReadingArea_rsl0-rcl100-esl100-rsm0-rcm2-esm29-rsr0-rcr2-esr100.exr,ReadingArea_rsl0-rcl100-esl100-rsm0-rcm2-esm29-rsr0-rcr2-esr100.npz,,,,,0,100,100,586,,right,red,1.05,549.098610162735,549.4575951099396,,2,,2,3,brightness,readingArea,realistic,75,2023-03-15_14h09.21.218,tripletExp_regina_11082022,2022.2.4,120.35547342414336,
13,4,0,0,0.111111111111111,3.10526315789474,0,0.694444444444444,0.298245614035088,0,0.027777777777778,0.298245614035088,ReadingArea_rsl0-rcl11-esl310-rsm0-rcm69-esm29-rsr0-rcr2-esr29,exr/ReadingArea_rsl0-rcl11-esl310-rsm0-rcm69-esm29-rsr0-rcr2-esr29.exr,ReadingArea_rsl0-rcl11-esl310-rsm0-rcm69-esm29-rsr0-rcr2-esr29.npz,,,,,0,101,101,269,,left,green,1.03,551.1812121868134,551.5179450511932,,2,,2,3,brightness,readingArea,realistic,75,2023-03-15_14h09.21.218,tripletExp_regina_11082022,2022.2.4,120.35547342414336,
13,7,6,0,0.111111111111111,3.10526315789474,0,0.111111111111111,1.0,0,0.027777777777778,1.0,ReadingArea_rsl0-rcl11-esl310-rsm0-rcm11-esm100-rsr0-rcr2-esr100,exr/ReadingArea_rsl0-rcl11-esl310-rsm0-rcm11-esm100-rsr0-rcr2-esr100.exr,ReadingArea_rsl0-rcl11-esl310-rsm0-rcm11-esm100-rsr0-rcr2-esr100.npz,,,,,0,102,102,283,,right,red,1.27,553.2184920310974,553.5781161785126,,2,,2,3,brightness,readingArea,realistic,75,2023-03-15_14h09.21.218,tripletExp_regina_11082022,2022.2.4,120.35547342414336,
11,1,12,0,1.0,1.0,0,0.111111111111111,0.298245614035088,0,0.027777777777778,3.10526315789474,ReadingArea_rsl0-rcl100-esl100-rsm0-rcm11-esm29-rsr0-rcr2-esr310,exr/ReadingArea_rsl0-rcl100-esl100-rsm0-rcm11-esm29-rsr0-rcr2-esr310.exr,ReadingArea_rsl0-rcl100-esl100-rsm0-rcm11-esm29-rsr0-rcr2-esr310.npz,,,,,0,103,103,339,,right,red,0.81,555.2760860919952,555.618105173111,,2,,2,3,brightness,readingArea,realistic,75,2023-03-15_14h09.21.218,tripletExp_regina_11082022,2022.2.4,120.35547342414336,
12,8,9,0,0.027777777777778,3.10526315789474,0,0.25,1.0,0,0.444444444444444,1.0,ReadingArea_rsl0-rcl2-esl310-rsm0-rcm25-esm100-rsr0-rcr44-esr100,exr/ReadingArea_rsl0-rcl2-esl310-rsm0-rcm25-esm100-rsr0-rcr44-esr100.exr,ReadingArea_rsl0-rcl2-esl310-rsm0-rcm25-esm100-rsr0-rcr44-esr100.npz,,,,,0,104,104,517,,right,red,3.56,560.8864669799805,561.2561099529266,,2,,2,3,brightness,readingArea,realistic,75,2023-03-15_14h09.21.218,tripletExp_regina_11082022,2022.2.4,120.35547342414336,
5,0,10,0,1.0,0.298245614035088,0,0.027777777777778,0.298245614035088,0,0.694444444444444,1.0,ReadingArea_rsl0-rcl100-esl29-rsm0-rcm2-esm29-rsr0-rcr69-esr100,exr/ReadingArea_rsl0-rcl100-esl29-rsm0-rcm2-esm29-rsr0-rcr69-esr100.exr,ReadingArea_rsl0-rcl100-esl29-rsm0-rcm2-esm29-rsr0-rcr69-esr100.npz,,,,,0,105,105,361,,left,green,1.26,562.9642989635468,563.3065030574799,,2,,2,3,brightness,readingArea,realistic,75,2023-03-15_14h09.21.218,tripletExp_regina_11082022,2022.2.4,120.35547342414336,
9,6,1,0,0.444444444444444,1.0,0,0.027777777777778,1.0,0,0.111111111111111,0.298245614035088,ReadingArea_rsl0-rcl44-esl100-rsm0-rcm2-esm100-rsr0-rcr11-esr29,exr/ReadingArea_rsl0-rcl44-esl100-rsm0-rcm2-esm100-rsr0-rcr11-esr29.exr,ReadingArea_rsl0-rcl44-esl100-rsm0-rcm2-esm100-rsr0-rcr11-esr29.npz,,,,,0,106,106,526,,right,red,0.88,565.0129730701447,565.3710191249847,,2,,2,3,brightness,readingArea,realistic,75,2023-03-15_14h09.21.218,tripletExp_regina_11082022,2022.2.4,120.35547342414336,
10,5,2,0,0.694444444444444,1.0,0,1.0,0.298245614035088,0,0.25,0.298245614035088,ReadingArea_rsl0-rcl69-esl100-rsm0-rcm100-esm29-rsr0-rcr25-esr29,exr/ReadingArea_rsl0-rcl69-esl100-rsm0-rcm100-esm29-rsr0-rcr25-esr29.exr,ReadingArea_rsl0-rcl69-esl100-rsm0-rcm100-esm29-rsr0-rcr25-esr29.npz,,,,,0,107,107,299,,right,red,2.94,568.8243360519409,569.1888220310211,,2,,2,3,brightness,readingArea,realistic,75,2023-03-15_14h09.21.218,tripletExp_regina_11082022,2022.2.4,120.35547342414336,
1,5,7,0,0.111111111111111,0.298245614035088,0,1.0,0.298245614035088,0,0.111111111111111,1.0,ReadingArea_rsl0-rcl11-esl29-rsm0-rcm100-esm29-rsr0-rcr11-esr100,exr/ReadingArea_rsl0-rcl11-esl29-rsm0-rcm100-esm29-rsr0-rcr11-esr100.exr,ReadingArea_rsl0-rcl11-esl29-rsm0-rcm100-esm29-rsr0-rcr11-esr100.npz,,,,,0,108,108,197,,right,red,1.3,570.9030060768127,,,2,,2,3,brightness,readingArea,realistic,75,2023-03-15_14h09.21.218,tripletExp_regina_11082022,2022.2.4,120.35547342414336,
14,5,11,0,0.25,3.10526315789474,0,1.0,0.298245614035088,0,1.0,1.0,ReadingArea_rsl0-rcl25-esl310-rsm0-rcm100-esm29-rsr0-rcr100-esr100,exr/ReadingArea_rsl0-rcl25-esl310-rsm0-rcm100-esm29-rsr0-rcr100-esr100.exr,ReadingArea_rsl0-rcl25-esl310-rsm0-rcm100-esm29-rsr0-rcr100-esr100.npz,,,,,0,109,109,161,,left,green,1.42,572.9712810516357,573.3411340713501,,2,,2,3,brightness,readingArea,realistic,75,2023-03-15_14h09.21.218,tripletExp_regina_11082022,2022.2.4,120.35547342414336,
13,3,12,0,0.111111111111111,3.10526315789474,0,0.444444444444444,0.298245614035088,0,0.027777777777778,3.10526315789474,ReadingArea_rsl0-rcl11-esl310-rsm0-rcm44-esm29-rsr0-rcr2-esr310,exr/ReadingArea_rsl0-rcl11-esl310-rsm0-rcm44-esm29-rsr0-rcr2-esr310.exr,ReadingArea_rsl0-rcl11-esl310-rsm0-rcm44-esm29-rsr0-rcr2-esr310.npz,,,,,0,110,110,80,,right,red,3.28,576.8183150291443,577.1951801776886,,2,,2,3,brightness,readingArea,realistic,75,2023-03-15_14h09.21.218,tripletExp_regina_11082022,2022.2.4,120.35547342414336,
5,3,2,0,1.0,0.298245614035088,0,0.444444444444444,0.298245614035088,0,0.25,0.298245614035088,ReadingArea_rsl0-rcl100-esl29-rsm0-rcm44-esm29-rsr0-rcr25-esr29,exr/ReadingArea_rsl0-rcl100-esl29-rsm0-rcm44-esm29-rsr0-rcr25-esr29.exr,ReadingArea_rsl0-rcl100-esl29-rsm0-rcm44-esm29-rsr0-rcr25-esr29.npz,,,,,0,111,111,143,,right,red,4.36,582.4483280181885,582.7922661304474,,2,,2,3,brightness,readingArea,realistic,75,2023-03-15_14h09.21.218,tripletExp_regina_11082022,2022.2.4,120.35547342414336,
8,6,5,0,0.25,1.0,0,0.027777777777778,1.0,0,1.0,0.298245614035088,ReadingArea_rsl0-rcl25-esl100-rsm0-rcm2-esm100-rsr0-rcr100-esr29,exr/ReadingArea_rsl0-rcl25-esl100-rsm0-rcm2-esm100-rsr0-rcr100-esr29.exr,ReadingArea_rsl0-rcl25-esl100-rsm0-rcm2-esm100-rsr0-rcr100-esr29.npz,,,,,0,112,112,241,,left,green,2.18,586.2735781669617,586.6182241439819,,2,,2,3,brightness,readingArea,realistic,75,2023-03-15_14h09.21.218,tripletExp_regina_11082022,2022.2.4,120.35547342414336,
10,0,3,0,0.694444444444444,1.0,0,0.027777777777778,0.298245614035088,0,0.444444444444444,0.298245614035088,ReadingArea_rsl0-rcl69-esl100-rsm0-rcm2-esm29-rsr0-rcr44-esr29,exr/ReadingArea_rsl0-rcl69-esl100-rsm0-rcm2-esm29-rsr0-rcr44-esr29.exr,ReadingArea_rsl0-rcl69-esl100-rsm0-rcm2-esm29-rsr0-rcr44-esr29.npz,,,,,0,113,113,87,,right,red,0.96,588.3336780071259,588.6955881118774,,2,,2,3,brightness,readingArea,realistic,75,2023-03-15_14h09.21.218,tripletExp_regina_11082022,2022.2.4,120.35547342414336,
7,2,6,0,0.111111111111111,1.0,0,0.25,0.298245614035088,0,0.027777777777778,1.0,ReadingArea_rsl0-rcl11-esl100-rsm0-rcm25-esm29-rsr0-rcr2-esr100,exr/ReadingArea_rsl0-rcl11-esl100-rsm0-rcm25-esm29-rsr0-rcr2-esr100.exr,ReadingArea_rsl0-rcl11-esl100-rsm0-rcm25-esm29-rsr0-rcr2-esr100.npz,,,,,0,114,114,506,,left,green,0.9,590.4179050922394,590.7649941444397,,2,,2,3,brightness,readingArea,realistic,75,2023-03-15_14h09.21.218,tripletExp_regina_11082022,2022.2.4,120.35547342414336,
9,11,2,0,0.444444444444444,1.0,0,1.0,1.0,0,0.25,0.298245614035088,ReadingArea_rsl0-rcl44-esl100-rsm0-rcm100-esm100-rsr0-rcr25-esr29,exr/ReadingArea_rsl0-rcl44-esl100-rsm0-rcm100-esm100-rsr0-rcr25-esr29.exr,ReadingArea_rsl0-rcl44-esl100-rsm0-rcm100-esm100-rsr0-rcr25-esr29.npz,,,,,0,115,115,329,,left,green,0.86,592.4695670604706,592.8094701766968,,2,,2,3,brightness,readingArea,realistic,75,2023-03-15_14h09.21.218,tripletExp_regina_11082022,2022.2.4,120.35547342414336,
6,3,13,0,0.027777777777778,1.0,0,0.444444444444444,0.298245614035088,0,0.111111111111111,3.10526315789474,ReadingArea_rsl0-rcl2-esl100-rsm0-rcm44-esm29-rsr0-rcr11-esr310,exr/ReadingArea_rsl0-rcl2-esl100-rsm0-rcm44-esm29-rsr0-rcr11-esr310.exr,ReadingArea_rsl0-rcl2-esl100-rsm0-rcm44-esm29-rsr0-rcr11-esr310.npz,,,,,0,116,116,228,,right,red,1.53,594.5283601284027,594.8955330848694,,2,,2,3,brightness,readingArea,realistic,75,2023-03-15_14h09.21.218,tripletExp_regina_11082022,2022.2.4,120.35547342414336,
2,1,10,0,0.25,0.298245614035088,0,0.111111111111111,0.298245614035088,0,0.694444444444444,1.0,ReadingArea_rsl0-rcl25-esl29-rsm0-rcm11-esm29-rsr0-rcr69-esr100,exr/ReadingArea_rsl0-rcl25-esl29-rsm0-rcm11-esm29-rsr0-rcr69-esr100.exr,ReadingArea_rsl0-rcl25-esl29-rsm0-rcm11-esm29-rsr0-rcr69-esr100.npz,,,,,0,117,117,585,,left,green,1.19,596.6035711765289,596.9409391880035,,2,,2,3,brightness,readingArea,realistic,75,2023-03-15_14h09.21.218,tripletExp_regina_11082022,2022.2.4,120.35547342414336,
14,5,9,0,0.25,3.10526315789474,0,1.0,0.298245614035088,0,0.444444444444444,1.0,ReadingArea_rsl0-rcl25-esl310-rsm0-rcm100-esm29-rsr0-rcr44-esr100,exr/ReadingArea_rsl0-rcl25-esl310-rsm0-rcm100-esm29-rsr0-rcr44-esr100.exr,ReadingArea_rsl0-rcl25-esl310-rsm0-rcm100-esm29-rsr0-rcr44-esr100.npz,,,,,0,118,118,482,,right,red,2.11,600.4057941436768,600.7637281417847,,2,,2,3,brightness,readingArea,realistic,75,2023-03-15_14h09.21.218,tripletExp_regina_11082022,2022.2.4,120.35547342414336,
3,0,8,0,0.444444444444444,0.298245614035088,0,0.027777777777778,0.298245614035088,0,0.25,1.0,ReadingArea_rsl0-rcl44-esl29-rsm0-rcm2-esm29-rsr0-rcr25-esr100,exr/ReadingArea_rsl0-rcl44-esl29-rsm0-rcm2-esm29-rsr0-rcr25-esr100.exr,ReadingArea_rsl0-rcl44-esl29-rsm0-rcm2-esm29-rsr0-rcr25-esr100.npz,,,,,0,119,119,510,,left,green,1.32,602.478945016861,602.818619966507,,2,,2,3,brightness,readingArea,realistic,75,2023-03-15_14h09.21.218,tripletExp_regina_11082022,2022.2.4,120.35547342414336,
1,13,8,0,0.111111111111111,0.298245614035088,0,0.111111111111111,3.10526315789474,0,0.25,1.0,ReadingArea_rsl0-rcl11-esl29-rsm0-rcm11-esm310-rsr0-rcr25-esr100,exr/ReadingArea_rsl0-rcl11-esl29-rsm0-rcm11-esm310-rsr0-rcr25-esr100.exr,ReadingArea_rsl0-rcl11-esl29-rsm0-rcm11-esm310-rsr0-rcr25-esr100.npz,,,,,0,120,120,64,,right,red,0.82,604.5191459655762,604.8846640586853,,2,,2,3,brightness,readingArea,realistic,75,2023-03-15_14h09.21.218,tripletExp_regina_11082022,2022.2.4,120.35547342414336,
10,7,13,0,0.694444444444444,1.0,0,0.111111111111111,1.0,0,0.111111111111111,3.10526315789474,ReadingArea_rsl0-rcl69-esl100-rsm0-rcm11-esm100-rsr0-rcr11-esr310,exr/ReadingArea_rsl0-rcl69-esl100-rsm0-rcm11-esm100-rsr0-rcr11-esr310.exr,ReadingArea_rsl0-rcl69-esl100-rsm0-rcm11-esm100-rsr0-rcr11-esr310.npz,,,,,0,121,121,379,,right,red,2.81,608.3776211738586,608.7470660209656,,2,,2,3,brightness,readingArea,realistic,75,2023-03-15_14h09.21.218,tripletExp_regina_11082022,2022.2.4,120.35547342414336,
3,4,0,0,0.444444444444444,0.298245614035088,0,0.694444444444444,0.298245614035088,0,0.027777777777778,0.298245614035088,ReadingArea_rsl0-rcl44-esl29-rsm0-rcm69-esm29-rsr0-rcr2-esr29,exr/ReadingArea_rsl0-rcl44-esl29-rsm0-rcm69-esm29-rsr0-rcr2-esr29.exr,ReadingArea_rsl0-rcl44-esl29-rsm0-rcm69-esm29-rsr0-rcr2-esr29.npz,,,,,0,122,122,130,,right,red,3.12,612.239669084549,612.5792670249939,,2,,2,3,brightness,readingArea,realistic,75,2023-03-15_14h09.21.218,tripletExp_regina_11082022,2022.2.4,120.35547342414336,
2,12,6,0,0.25,0.298245614035088,0,0.027777777777778,3.10526315789474,0,0.027777777777778,1.0,ReadingArea_rsl0-rcl25-esl29-rsm0-rcm2-esm310-rsr0-rcr2-esr100,exr/ReadingArea_rsl0-rcl25-esl29-rsm0-rcm2-esm310-rsr0-rcr2-esr100.exr,ReadingArea_rsl0-rcl25-esl29-rsm0-rcm2-esm310-rsr0-rcr2-esr100.npz,,,,,0,123,123,400,,left,green,2.9,616.0429170131683,616.4045481681824,,2,,2,3,brightness,readingArea,realistic,75,2023-03-15_14h09.21.218,tripletExp_regina_11082022,2022.2.4,120.35547342414336,
14,6,7,0,0.25,3.10526315789474,0,0.027777777777778,1.0,0,0.111111111111111,1.0,ReadingArea_rsl0-rcl25-esl310-rsm0-rcm2-esm100-rsr0-rcr11-esr100,exr/ReadingArea_rsl0-rcl25-esl310-rsm0-rcm2-esm100-rsr0-rcr11-esr100.exr,ReadingArea_rsl0-rcl25-esl310-rsm0-rcm2-esm100-rsr0-rcr11-esr100.npz,,,,,0,124,124,306,,right,red,2.16,619.910765171051,,,2,,2,3,brightness,readingArea,realistic,75,2023-03-15_14h09.21.218,tripletExp_regina_11082022,2022.2.4,120.35547342414336,
7,8,3,0,0.111111111111111,1.0,0,0.25,1.0,0,0.444444444444444,0.298245614035088,ReadingArea_rsl0-rcl11-esl100-rsm0-rcm25-esm100-rsr0-rcr44-esr29,exr/ReadingArea_rsl0-rcl11-esl100-rsm0-rcm25-esm100-rsr0-rcr44-esr29.exr,ReadingArea_rsl0-rcl11-esl100-rsm0-rcm25-esm100-rsr0-rcr44-esr29.npz,,,,,0,125,125,459,,right,red,2.1,623.7493321895599,624.1110451221466,,2,,2,3,brightness,readingArea,realistic,75,2023-03-15_14h09.21.218,tripletExp_regina_11082022,2022.2.4,120.35547342414336,
13,12,11,0,0.111111111111111,3.10526315789474,0,0.027777777777778,3.10526315789474,0,1.0,1.0,ReadingArea_rsl0-rcl11-esl310-rsm0-rcm2-esm310-rsr0-rcr100-esr100,exr/ReadingArea_rsl0-rcl11-esl310-rsm0-rcm2-esm310-rsr0-rcr100-esr100.exr,ReadingArea_rsl0-rcl11-esl310-rsm0-rcm2-esm310-rsr0-rcr100-esr100.npz,,,,,0,126,126,441,,left,green,2.65,627.5852811336517,627.9486219882965,,2,,2,3,brightness,readingArea,realistic,75,2023-03-15_14h09.21.218,tripletExp_regina_11082022,2022.2.4,120.35547342414336,
14,8,1,0,0.25,3.10526315789474,0,0.25,1.0,0,0.111111111111111,0.298245614035088,ReadingArea_rsl0-rcl25-esl310-rsm0-rcm25-esm100-rsr0-rcr11-esr29,exr/ReadingArea_rsl0-rcl25-esl310-rsm0-rcm25-esm100-rsr0-rcr11-esr29.exr,ReadingArea_rsl0-rcl25-esl310-rsm0-rcm25-esm100-rsr0-rcr11-esr29.npz,,,,,0,127,127,141,,right,red,1.95,631.4201371669769,631.7600469589233,,2,,2,3,brightness,readingArea,realistic,75,2023-03-15_14h09.21.218,tripletExp_regina_11082022,2022.2.4,120.35547342414336,
1,4,7,0,0.111111111111111,0.298245614035088,0,0.694444444444444,0.298245614035088,0,0.111111111111111,1.0,ReadingArea_rsl0-rcl11-esl29-rsm0-rcm69-esm29-rsr0-rcr11-esr100,exr/ReadingArea_rsl0-rcl11-esl29-rsm0-rcm69-esm29-rsr0-rcr11-esr100.exr,ReadingArea_rsl0-rcl11-esl29-rsm0-rcm69-esm29-rsr0-rcr11-esr100.npz,,,,,0,128,128,522,,right,red,2.8,635.2511529922485,635.6222031116486,,2,,2,3,brightness,readingArea,realistic,75,2023-03-15_14h09.21.218,tripletExp_regina_11082022,2022.2.4,120.35547342414336,
10,4,13,0,0.694444444444444,1.0,0,0.694444444444444,0.298245614035088,0,0.111111111111111,3.10526315789474,ReadingArea_rsl0-rcl69-esl100-rsm0-rcm69-esm29-rsr0-rcr11-esr310,exr/ReadingArea_rsl0-rcl69-esl100-rsm0-rcm69-esm29-rsr0-rcr11-esr310.exr,ReadingArea_rsl0-rcl69-esl100-rsm0-rcm69-esm29-rsr0-rcr11-esr310.npz,,,,,0,129,129,24,,right,red,0.88,637.3350200653076,637.7003321647644,,2,,2,3,brightness,readingArea,realistic,75,2023-03-15_14h09.21.218,tripletExp_regina_11082022,2022.2.4,120.35547342414336,
12,8,6,0,0.027777777777778,3.10526315789474,0,0.25,1.0,0,0.027777777777778,1.0,ReadingArea_rsl0-rcl2-esl310-rsm0-rcm25-esm100-rsr0-rcr2-esr100,exr/ReadingArea_rsl0-rcl2-esl310-rsm0-rcm25-esm100-rsr0-rcr2-esr100.exr,ReadingArea_rsl0-rcl2-esl310-rsm0-rcm25-esm100-rsr0-rcr2-esr100.npz,,,,,0,130,130,281,,left,green,2.11,641.1840090751648,641.5487880706787,,2,,2,3,brightness,readingArea,realistic,75,2023-03-15_14h09.21.218,tripletExp_regina_11082022,2022.2.4,120.35547342414336,
8,9,2,0,0.25,1.0,0,0.444444444444444,1.0,0,0.25,0.298245614035088,ReadingArea_rsl0-rcl25-esl100-rsm0-rcm44-esm100-rsr0-rcr25-esr29,exr/ReadingArea_rsl0-rcl25-esl100-rsm0-rcm44-esm100-rsr0-rcr25-esr29.exr,ReadingArea_rsl0-rcl25-esl100-rsm0-rcm44-esm100-rsr0-rcr25-esr29.npz,,,,,0,131,131,559,,left,green,0.84,643.2441129684448,643.6157050132751,,2,,2,3,brightness,readingArea,realistic,75,2023-03-15_14h09.21.218,tripletExp_regina_11082022,2022.2.4,120.35547342414336,
4,3,10,0,0.694444444444444,0.298245614035088,0,0.444444444444444,0.298245614035088,0,0.694444444444444,1.0,ReadingArea_rsl0-rcl69-esl29-rsm0-rcm44-esm29-rsr0-rcr69-esr100,exr/ReadingArea_rsl0-rcl69-esl29-rsm0-rcm44-esm29-rsr0-rcr69-esr100.exr,ReadingArea_rsl0-rcl69-esl29-rsm0-rcm44-esm29-rsr0-rcr69-esr100.npz,,,,,0,132,132,371,,left,green,0.92,645.313117980957,645.6500570774078,,2,,2,3,brightness,readingArea,realistic,75,2023-03-15_14h09.21.218,tripletExp_regina_11082022,2022.2.4,120.35547342414336,
13,10,3,0,0.111111111111111,3.10526315789474,0,0.694444444444444,1.0,0,0.444444444444444,0.298245614035088,ReadingArea_rsl0-rcl11-esl310-rsm0-rcm69-esm100-rsr0-rcr44-esr29,exr/ReadingArea_rsl0-rcl11-esl310-rsm0-rcm69-esm100-rsr0-rcr44-esr29.exr,ReadingArea_rsl0-rcl11-esl310-rsm0-rcm69-esm100-rsr0-rcr44-esr29.npz,,,,,0,133,133,224,,left,green,0.98,647.3523681163788,647.7006759643555,,2,,2,3,brightness,readingArea,realistic,75,2023-03-15_14h09.21.218,tripletExp_regina_11082022,2022.2.4,120.35547342414336,
5,14,8,0,1.0,0.298245614035088,0,0.25,3.10526315789474,0,0.25,1.0,ReadingArea_rsl0-rcl100-esl29-rsm0-rcm25-esm310-rsr0-rcr25-esr100,exr/ReadingArea_rsl0-rcl100-esl29-rsm0-rcm25-esm310-rsr0-rcr25-esr100.exr,ReadingArea_rsl0-rcl100-esl29-rsm0-rcm25-esm310-rsr0-rcr25-esr100.npz,,,,,0,134,134,14,,left,green,2.72,651.1784491539001,651.5460510253906,,2,,2,3,brightness,readingArea,realistic,75,2023-03-15_14h09.21.218,tripletExp_regina_11082022,2022.2.4,120.35547342414336,
13,10,9,0,0.111111111111111,3.10526315789474,0,0.694444444444444,1.0,0,0.444444444444444,1.0,ReadingArea_rsl0-rcl11-esl310-rsm0-rcm69-esm100-rsr0-rcr44-esr100,exr/ReadingArea_rsl0-rcl11-esl310-rsm0-rcm69-esm100-rsr0-rcr44-esr100.exr,ReadingArea_rsl0-rcl11-esl310-rsm0-rcm69-esm100-rsr0-rcr44-esr100.npz,,,,,0,135,135,330,,right,red,3.04,655.0207750797272,655.3930270671844,,2,,2,3,brightness,readingArea,realistic,75,2023-03-15_14h09.21.218,tripletExp_regina_11082022,2022.2.4,120.35547342414336,
4,2,9,0,0.694444444444444,0.298245614035088,0,0.25,0.298245614035088,0,0.444444444444444,1.0,ReadingArea_rsl0-rcl69-esl29-rsm0-rcm25-esm29-rsr0-rcr44-esr100,exr/ReadingArea_rsl0-rcl69-esl29-rsm0-rcm25-esm29-rsr0-rcr44-esr100.exr,ReadingArea_rsl0-rcl69-esl29-rsm0-rcm25-esm29-rsr0-rcr44-esr100.npz,,,,,0,136,136,479,,left,green,1.14,657.1039731502533,657.4727780818939,,2,,2,3,brightness,readingArea,realistic,75,2023-03-15_14h09.21.218,tripletExp_regina_11082022,2022.2.4,120.35547342414336,
7,8,14,0,0.111111111111111,1.0,0,0.25,1.0,0,0.25,3.10526315789474,ReadingArea_rsl0-rcl11-esl100-rsm0-rcm25-esm100-rsr0-rcr25-esr310,exr/ReadingArea_rsl0-rcl11-esl100-rsm0-rcm25-esm100-rsr0-rcr25-esr310.exr,ReadingArea_rsl0-rcl11-esl100-rsm0-rcm25-esm100-rsr0-rcr25-esr310.npz,,,,,0,137,137,300,,left,green,1.16,659.1751999855042,,,2,,2,3,brightness,readingArea,realistic,75,2023-03-15_14h09.21.218,tripletExp_regina_11082022,2022.2.4,120.35547342414336,
4,3,1,0,0.694444444444444,0.298245614035088,0,0.444444444444444,0.298245614035088,0,0.111111111111111,0.298245614035088,ReadingArea_rsl0-rcl69-esl29-rsm0-rcm44-esm29-rsr0-rcr11-esr29,exr/ReadingArea_rsl0-rcl69-esl29-rsm0-rcm44-esm29-rsr0-rcr11-esr29.exr,ReadingArea_rsl0-rcl69-esl29-rsm0-rcm44-esm29-rsr0-rcr11-esr29.npz,,,,,0,138,138,60,,left,green,0.81,661.2591691017151,,,2,,2,3,brightness,readingArea,realistic,75,2023-03-15_14h09.21.218,tripletExp_regina_11082022,2022.2.4,120.35547342414336,
2,1,3,0,0.25,0.298245614035088,0,0.111111111111111,0.298245614035088,0,0.444444444444444,0.298245614035088,ReadingArea_rsl0-rcl25-esl29-rsm0-rcm11-esm29-rsr0-rcr44-esr29,exr/ReadingArea_rsl0-rcl25-esl29-rsm0-rcm11-esm29-rsr0-rcr44-esr29.exr,ReadingArea_rsl0-rcl25-esl29-rsm0-rcm11-esm29-rsr0-rcr44-esr29.npz,,,,,0,139,139,85,,left,green,1.12,663.3317489624023,663.7054531574249,,2,,2,3,brightness,readingArea,realistic,75,2023-03-15_14h09.21.218,tripletExp_regina_11082022,2022.2.4,120.35547342414336,
4,1,9,0,0.694444444444444,0.298245614035088,0,0.111111111111111,0.298245614035088,0,0.444444444444444,1.0,ReadingArea_rsl0-rcl69-esl29-rsm0-rcm11-esm29-rsr0-rcr44-esr100,exr/ReadingArea_rsl0-rcl69-esl29-rsm0-rcm11-esm29-rsr0-rcr44-esr100.exr,ReadingArea_rsl0-rcl69-esl29-rsm0-rcm11-esm29-rsr0-rcr44-esr100.npz,,,,,0,140,140,7,,left,green,0.99,665.3918969631195,665.7391440868378,,2,,2,3,brightness,readingArea,realistic,75,2023-03-15_14h09.21.218,tripletExp_regina_11082022,2022.2.4,120.35547342414336,
12,14,8,0,0.027777777777778,3.10526315789474,0,0.25,3.10526315789474,0,0.25,1.0,ReadingArea_rsl0-rcl2-esl310-rsm0-rcm25-esm310-rsr0-rcr25-esr100,exr/ReadingArea_rsl0-rcl2-esl310-rsm0-rcm25-esm310-rsr0-rcr25-esr100.exr,ReadingArea_rsl0-rcl2-esl310-rsm0-rcm25-esm310-rsr0-rcr25-esr100.npz,,,,,0,141,141,466,,right,red,1.16,667.4512691497803,,,2,,2,3,brightness,readingArea,realistic,75,2023-03-15_14h09.21.218,tripletExp_regina_11082022,2022.2.4,120.35547342414336,
2,9,12,0,0.25,0.298245614035088,0,0.444444444444444,1.0,0,0.027777777777778,3.10526315789474,ReadingArea_rsl0-rcl25-esl29-rsm0-rcm44-esm100-rsr0-rcr2-esr310,exr/ReadingArea_rsl0-rcl25-esl29-rsm0-rcm44-esm100-rsr0-rcr2-esr310.exr,ReadingArea_rsl0-rcl25-esl29-rsm0-rcm44-esm100-rsr0-rcr2-esr310.npz,,,,,0,142,142,354,,right,red,2.78,671.3032059669495,671.681538105011,,2,,2,3,brightness,readingArea,realistic,75,2023-03-15_14h09.21.218,tripletExp_regina_11082022,2022.2.4,120.35547342414336,
12,6,8,0,0.027777777777778,3.10526315789474,0,0.027777777777778,1.0,0,0.25,1.0,ReadingArea_rsl0-rcl2-esl310-rsm0-rcm2-esm100-rsr0-rcr25-esr100,exr/ReadingArea_rsl0-rcl2-esl310-rsm0-rcm2-esm100-rsr0-rcr25-esr100.exr,ReadingArea_rsl0-rcl2-esl310-rsm0-rcm2-esm100-rsr0-rcr25-esr100.npz,,,,,0,143,143,540,,left,green,1.24,673.399099111557,673.7691950798035,,2,,2,3,brightness,readingArea,realistic,75,2023-03-15_14h09.21.218,tripletExp_regina_11082022,2022.2.4,120.35547342414336,
1,9,11,0,0.111111111111111,0.298245614035088,0,0.444444444444444,1.0,0,1.0,1.0,ReadingArea_rsl0-rcl11-esl29-rsm0-rcm44-esm100-rsr0-rcr100-esr100,exr/ReadingArea_rsl0-rcl11-esl29-rsm0-rcm44-esm100-rsr0-rcr100-esr100.exr,ReadingArea_rsl0-rcl11-esl29-rsm0-rcm44-esm100-rsr0-rcr100-esr100.npz,,,,,0,144,144,215,,right,red,2.5,677.24369597435,677.6106240749359,,2,,2,3,brightness,readingArea,realistic,75,2023-03-15_14h09.21.218,tripletExp_regina_11082022,2022.2.4,120.35547342414336,
2,8,3,0,0.25,0.298245614035088,0,0.25,1.0,0,0.444444444444444,0.298245614035088,ReadingArea_rsl0-rcl25-esl29-rsm0-rcm25-esm100-rsr0-rcr44-esr29,exr/ReadingArea_rsl0-rcl25-esl29-rsm0-rcm25-esm100-rsr0-rcr44-esr29.exr,ReadingArea_rsl0-rcl25-esl29-rsm0-rcm25-esm100-rsr0-rcr44-esr29.npz,,,,,0,145,145,568,,right,red,1.72,679.2991490364075,679.6392750740051,,2,,2,3,brightness,readingArea,realistic,75,2023-03-15_14h09.21.218,tripletExp_regina_11082022,2022.2.4,120.35547342414336,
14,6,13,0,0.25,3.10526315789474,0,0.027777777777778,1.0,0,0.111111111111111,3.10526315789474,ReadingArea_rsl0-rcl25-esl310-rsm0-rcm2-esm100-rsr0-rcr11-esr310,exr/ReadingArea_rsl0-rcl25-esl310-rsm0-rcm2-esm100-rsr0-rcr11-esr310.exr,ReadingArea_rsl0-rcl25-esl310-rsm0-rcm2-esm100-rsr0-rcr11-esr310.npz,,,,,0,146,146,91,,right,red,2.53,683.1196851730347,683.483647108078,,2,,2,3,brightness,readingArea,realistic,75,2023-03-15_14h09.21.218,tripletExp_regina_11082022,2022.2.4,120.35547342414336,
13,3,5,0,0.111111111111111,3.10526315789474,0,0.444444444444444,0.298245614035088,0,1.0,0.298245614035088,ReadingArea_rsl0-rcl11-esl310-rsm0-rcm44-esm29-rsr0-rcr100-esr29,exr/ReadingArea_rsl0-rcl11-esl310-rsm0-rcm44-esm29-rsr0-rcr100-esr29.exr,ReadingArea_rsl0-rcl11-esl310-rsm0-rcm44-esm29-rsr0-rcr100-esr29.npz,,,,,0,147,147,398,,right,red,2.78,686.9500041007996,687.3239769935608,,2,,2,3,brightness,readingArea,realistic,75,2023-03-15_14h09.21.218,tripletExp_regina_11082022,2022.2.4,120.35547342414336,
10,11,9,0,0.694444444444444,1.0,0,1.0,1.0,0,0.444444444444444,1.0,ReadingArea_rsl0-rcl69-esl100-rsm0-rcm100-esm100-rsr0-rcr44-esr100,exr/ReadingArea_rsl0-rcl69-esl100-rsm0-rcm100-esm100-rsr0-rcr44-esr100.exr,ReadingArea_rsl0-rcl69-esl100-rsm0-rcm100-esm100-rsr0-rcr44-esr100.npz,,,,,0,148,148,492,,left,green,3.16,690.797425031662,691.1717309951782,,2,,2,3,brightness,readingArea,realistic,75,2023-03-15_14h09.21.218,tripletExp_regina_11082022,2022.2.4,120.35547342414336,
7,12,0,0,0.111111111111111,1.0,0,0.027777777777778,3.10526315789474,0,0.027777777777778,0.298245614035088,ReadingArea_rsl0-rcl11-esl100-rsm0-rcm2-esm310-rsr0-rcr2-esr29,exr/ReadingArea_rsl0-rcl11-esl100-rsm0-rcm2-esm310-rsr0-rcr2-esr29.exr,ReadingArea_rsl0-rcl11-esl100-rsm0-rcm2-esm310-rsr0-rcr2-esr29.npz,,,,,0,149,149,425,,left,green,1.07,692.8577101230621,693.062390089035,,2,,2,3,brightness,readingArea,realistic,75,2023-03-15_14h09.21.218,tripletExp_regina_11082022,2022.2.4,120.35547342414336,
0,9,11,0,0.027777777777778,0.298245614035088,0,0.444444444444444,1.0,0,1.0,1.0,ReadingArea_rsl0-rcl2-esl29-rsm0-rcm44-esm100-rsr0-rcr100-esr100,exr/ReadingArea_rsl0-rcl2-esl29-rsm0-rcm44-esm100-rsr0-rcr100-esr100.exr,ReadingArea_rsl0-rcl2-esl29-rsm0-rcm44-esm100-rsr0-rcr100-esr100.npz,,,,,0,150,150,448,,right,red,3.39,784.6318440437317,784.986181974411,,3,,2,3,brightness,readingArea,realistic,75,2023-03-15_14h09.21.218,tripletExp_regina_11082022,2022.2.4,120.35547342414336,
4,11,12,0,0.694444444444444,0.298245614035088,0,1.0,1.0,0,0.027777777777778,3.10526315789474,ReadingArea_rsl0-rcl69-esl29-rsm0-rcm100-esm100-rsr0-rcr2-esr310,exr/ReadingArea_rsl0-rcl69-esl29-rsm0-rcm100-esm100-rsr0-rcr2-esr310.exr,ReadingArea_rsl0-rcl69-esl29-rsm0-rcm100-esm100-rsr0-rcr2-esr310.npz,,,,,0,151,151,109,,left,green,2.02,788.4536490440369,,,3,,2,3,brightness,readingArea,realistic,75,2023-03-15_14h09.21.218,tripletExp_regina_11082022,2022.2.4,120.35547342414336,
1,12,11,0,0.111111111111111,0.298245614035088,0,0.027777777777778,3.10526315789474,0,1.0,1.0,ReadingArea_rsl0-rcl11-esl29-rsm0-rcm2-esm310-rsr0-rcr100-esr100,exr/ReadingArea_rsl0-rcl11-esl29-rsm0-rcm2-esm310-rsr0-rcr100-esr100.exr,ReadingArea_rsl0-rcl11-esl29-rsm0-rcm2-esm310-rsr0-rcr100-esr100.npz,,,,,0,152,152,178,,left,green,1.01,790.5453510284424,790.8856389522552,,3,,2,3,brightness,readingArea,realistic,75,2023-03-15_14h09.21.218,tripletExp_regina_11082022,2022.2.4,120.35547342414336,
0,8,9,0,0.027777777777778,0.298245614035088,0,0.25,1.0,0,0.444444444444444,1.0,ReadingArea_rsl0-rcl2-esl29-rsm0-rcm25-esm100-rsr0-rcr44-esr100,exr/ReadingArea_rsl0-rcl2-esl29-rsm0-rcm25-esm100-rsr0-rcr44-esr100.exr,ReadingArea_rsl0-rcl2-esl29-rsm0-rcm25-esm100-rsr0-rcr44-esr100.npz,,,,,0,153,153,541,,right,red,2.65,794.3618359565735,794.7283141613007,,3,,2,3,brightness,readingArea,realistic,75,2023-03-15_14h09.21.218,tripletExp_regina_11082022,2022.2.4,120.35547342414336,
9,7,2,0,0.444444444444444,1.0,0,0.111111111111111,1.0,0,0.25,0.298245614035088,ReadingArea_rsl0-rcl44-esl100-rsm0-rcm11-esm100-rsr0-rcr25-esr29,exr/ReadingArea_rsl0-rcl44-esl100-rsm0-rcm11-esm100-rsr0-rcr25-esr29.exr,ReadingArea_rsl0-rcl44-esl100-rsm0-rcm11-esm100-rsr0-rcr25-esr29.npz,,,,,0,154,154,428,,right,red,0.83,796.422345161438,796.7952861785889,,3,,2,3,brightness,readingArea,realistic,75,2023-03-15_14h09.21.218,tripletExp_regina_11082022,2022.2.4,120.35547342414336,
5,12,7,0,1.0,0.298245614035088,0,0.027777777777778,3.10526315789474,0,0.111111111111111,1.0,ReadingArea_rsl0-rcl100-esl29-rsm0-rcm2-esm310-rsr0-rcr11-esr100,exr/ReadingArea_rsl0-rcl100-esl29-rsm0-rcm2-esm310-rsr0-rcr11-esr100.exr,ReadingArea_rsl0-rcl100-esl29-rsm0-rcm2-esm310-rsr0-rcr11-esr100.npz,,,,,0,155,155,447,,right,red,0.66,798.4887790679932,,,3,,2,3,brightness,readingArea,realistic,75,2023-03-15_14h09.21.218,tripletExp_regina_11082022,2022.2.4,120.35547342414336,
4,1,3,0,0.694444444444444,0.298245614035088,0,0.111111111111111,0.298245614035088,0,0.444444444444444,0.298245614035088,ReadingArea_rsl0-rcl69-esl29-rsm0-rcm11-esm29-rsr0-rcr44-esr29,exr/ReadingArea_rsl0-rcl69-esl29-rsm0-rcm11-esm29-rsr0-rcr44-esr29.exr,ReadingArea_rsl0-rcl69-esl29-rsm0-rcm11-esm29-rsr0-rcr44-esr29.npz,,,,,0,156,156,70,,right,red,2.32,802.305144071579,802.6669800281525,,3,,2,3,brightness,readingArea,realistic,75,2023-03-15_14h09.21.218,tripletExp_regina_11082022,2022.2.4,120.35547342414336,
12,6,14,0,0.027777777777778,3.10526315789474,0,0.027777777777778,1.0,0,0.25,3.10526315789474,ReadingArea_rsl0-rcl2-esl310-rsm0-rcm2-esm100-rsr0-rcr25-esr310,exr/ReadingArea_rsl0-rcl2-esl310-rsm0-rcm2-esm100-rsr0-rcr25-esr310.exr,ReadingArea_rsl0-rcl2-esl310-rsm0-rcm2-esm100-rsr0-rcr25-esr310.npz,,,,,0,157,157,218,,left,green,0.95,804.3652210235596,804.7367081642151,,3,,2,3,brightness,readingArea,realistic,75,2023-03-15_14h09.21.218,tripletExp_regina_11082022,2022.2.4,120.35547342414336,
14,6,11,0,0.25,3.10526315789474,0,0.027777777777778,1.0,0,1.0,1.0,ReadingArea_rsl0-rcl25-esl310-rsm0-rcm2-esm100-rsr0-rcr100-esr100,exr/ReadingArea_rsl0-rcl25-esl310-rsm0-rcm2-esm100-rsr0-rcr100-esr100.exr,ReadingArea_rsl0-rcl25-esl310-rsm0-rcm2-esm100-rsr0-rcr100-esr100.npz,,,,,0,158,158,337,,left,green,1.29,806.4461779594421,806.813215970993,,3,,2,3,brightness,readingArea,realistic,75,2023-03-15_14h09.21.218,tripletExp_regina_11082022,2022.2.4,120.35547342414336,
14,4,8,0,0.25,3.10526315789474,0,0.694444444444444,0.298245614035088,0,0.25,1.0,ReadingArea_rsl0-rcl25-esl310-rsm0-rcm69-esm29-rsr0-rcr25-esr100,exr/ReadingArea_rsl0-rcl25-esl310-rsm0-rcm69-esm29-rsr0-rcr25-esr100.exr,ReadingArea_rsl0-rcl25-esl310-rsm0-rcm69-esm29-rsr0-rcr25-esr100.npz,,,,,0,159,159,253,,right,red,1.12,808.5209980010986,808.8909289836884,,3,,2,3,brightness,readingArea,realistic,75,2023-03-15_14h09.21.218,tripletExp_regina_11082022,2022.2.4,120.35547342414336,
11,5,3,0,1.0,1.0,0,1.0,0.298245614035088,0,0.444444444444444,0.298245614035088,ReadingArea_rsl0-rcl100-esl100-rsm0-rcm100-esm29-rsr0-rcr44-esr29,exr/ReadingArea_rsl0-rcl100-esl100-rsm0-rcm100-esm29-rsr0-rcr44-esr29.exr,ReadingArea_rsl0-rcl100-esl100-rsm0-rcm100-esm29-rsr0-rcr44-esr29.npz,,,,,0,160,160,172,,right,red,1.25,810.6025960445404,810.9752521514893,,3,,2,3,brightness,readingArea,realistic,75,2023-03-15_14h09.21.218,tripletExp_regina_11082022,2022.2.4,120.35547342414336,
7,8,12,0,0.111111111111111,1.0,0,0.25,1.0,0,0.027777777777778,3.10526315789474,ReadingArea_rsl0-rcl11-esl100-rsm0-rcm25-esm100-rsr0-rcr2-esr310,exr/ReadingArea_rsl0-rcl11-esl100-rsm0-rcm25-esm100-rsr0-rcr2-esr310.exr,ReadingArea_rsl0-rcl11-esl100-rsm0-rcm25-esm100-rsr0-rcr2-esr310.npz,,,,,0,161,161,271,,left,green,1.52,812.6608231067657,813.0332281589508,,3,,2,3,brightness,readingArea,realistic,75,2023-03-15_14h09.21.218,tripletExp_regina_11082022,2022.2.4,120.35547342414336,
3,7,8,0,0.444444444444444,0.298245614035088,0,0.111111111111111,1.0,0,0.25,1.0,ReadingArea_rsl0-rcl44-esl29-rsm0-rcm11-esm100-rsr0-rcr25-esr100,exr/ReadingArea_rsl0-rcl44-esl29-rsm0-rcm11-esm100-rsr0-rcr25-esr100.exr,ReadingArea_rsl0-rcl44-esl29-rsm0-rcm11-esm100-rsr0-rcr25-esr100.npz,,,,,0,162,162,246,,left,green,1.36,814.745444059372,815.0893771648407,,3,,2,3,brightness,readingArea,realistic,75,2023-03-15_14h09.21.218,tripletExp_regina_11082022,2022.2.4,120.35547342414336,
0,13,12,0,0.027777777777778,0.298245614035088,0,0.111111111111111,3.10526315789474,0,0.027777777777778,3.10526315789474,ReadingArea_rsl0-rcl2-esl29-rsm0-rcm11-esm310-rsr0-rcr2-esr310,exr/ReadingArea_rsl0-rcl2-esl29-rsm0-rcm11-esm310-rsr0-rcr2-esr310.exr,ReadingArea_rsl0-rcl2-esl29-rsm0-rcm11-esm310-rsr0-rcr2-esr310.npz,,,,,0,163,163,501,,right,red,1.2,816.8031871318817,817.177502155304,,3,,2,3,brightness,readingArea,realistic,75,2023-03-15_14h09.21.218,tripletExp_regina_11082022,2022.2.4,120.35547342414336,
8,13,2,0,0.25,1.0,0,0.111111111111111,3.10526315789474,0,0.25,0.298245614035088,ReadingArea_rsl0-rcl25-esl100-rsm0-rcm11-esm310-rsr0-rcr25-esr29,exr/ReadingArea_rsl0-rcl25-esl100-rsm0-rcm11-esm310-rsr0-rcr25-esr29.exr,ReadingArea_rsl0-rcl25-esl100-rsm0-rcm11-esm310-rsr0-rcr25-esr29.npz,,,,,0,164,164,376,,left,green,1.1,818.8967931270599,819.2563700675964,,3,,2,3,brightness,readingArea,realistic,75,2023-03-15_14h09.21.218,tripletExp_regina_11082022,2022.2.4,120.35547342414336,
9,3,14,0,0.444444444444444,1.0,0,0.444444444444444,0.298245614035088,0,0.25,3.10526315789474,ReadingArea_rsl0-rcl44-esl100-rsm0-rcm44-esm29-rsr0-rcr25-esr310,exr/ReadingArea_rsl0-rcl44-esl100-rsm0-rcm44-esm29-rsr0-rcr25-esr310.exr,ReadingArea_rsl0-rcl44-esl100-rsm0-rcm44-esm29-rsr0-rcr25-esr310.npz,,,,,0,165,165,17,,left,green,2.56,822.7305159568787,823.1043610572815,,3,,2,3,brightness,readingArea,realistic,75,2023-03-15_14h09.21.218,tripletExp_regina_11082022,2022.2.4,120.35547342414336,
2,11,7,0,0.25,0.298245614035088,0,1.0,1.0,0,0.111111111111111,1.0,ReadingArea_rsl0-rcl25-esl29-rsm0-rcm100-esm100-rsr0-rcr11-esr100,exr/ReadingArea_rsl0-rcl25-esl29-rsm0-rcm100-esm100-rsr0-rcr11-esr100.exr,ReadingArea_rsl0-rcl25-esl29-rsm0-rcm100-esm100-rsr0-rcr11-esr100.npz,,,,,0,166,166,576,,right,red,2.54,826.5556991100311,826.9267580509186,,3,,2,3,brightness,readingArea,realistic,75,2023-03-15_14h09.21.218,tripletExp_regina_11082022,2022.2.4,120.35547342414336,
9,14,7,0,0.444444444444444,1.0,0,0.25,3.10526315789474,0,0.111111111111111,1.0,ReadingArea_rsl0-rcl44-esl100-rsm0-rcm25-esm310-rsr0-rcr11-esr100,exr/ReadingArea_rsl0-rcl44-esl100-rsm0-rcm25-esm310-rsr0-rcr11-esr100.exr,ReadingArea_rsl0-rcl44-esl100-rsm0-rcm25-esm310-rsr0-rcr11-esr100.npz,,,,,0,167,167,44,,left,green,0.97,828.6474351882935,829.017156124115,,3,,2,3,brightness,readingArea,realistic,75,2023-03-15_14h09.21.218,tripletExp_regina_11082022,2022.2.4,120.35547342414336,
5,2,14,0,1.0,0.298245614035088,0,0.25,0.298245614035088,0,0.25,3.10526315789474,ReadingArea_rsl0-rcl100-esl29-rsm0-rcm25-esm29-rsr0-rcr25-esr310,exr/ReadingArea_rsl0-rcl100-esl29-rsm0-rcm25-esm29-rsr0-rcr25-esr310.exr,ReadingArea_rsl0-rcl100-esl29-rsm0-rcm25-esm29-rsr0-rcr25-esr310.npz,,,,,0,168,168,462,,left,green,2.03,832.4864110946655,832.8336520195007,,3,,2,3,brightness,readingArea,realistic,75,2023-03-15_14h09.21.218,tripletExp_regina_11082022,2022.2.4,120.35547342414336,
2,5,14,0,0.25,0.298245614035088,0,1.0,0.298245614035088,0,0.25,3.10526315789474,ReadingArea_rsl0-rcl25-esl29-rsm0-rcm100-esm29-rsr0-rcr25-esr310,exr/ReadingArea_rsl0-rcl25-esl29-rsm0-rcm100-esm29-rsr0-rcr25-esr310.exr,ReadingArea_rsl0-rcl25-esl29-rsm0-rcm100-esm29-rsr0-rcr25-esr310.npz,,,,,0,169,169,390,,,green,2.03,838.0718021392822,838.5132479667664,,3,837.7760877370835,2,3,brightness,readingArea,realistic,75,2023-03-15_14h09.21.218,tripletExp_regina_11082022,2022.2.4,120.35547342414336,
4,12,5,0,0.694444444444444,0.298245614035088,0,0.027777777777778,3.10526315789474,0,1.0,0.298245614035088,ReadingArea_rsl0-rcl69-esl29-rsm0-rcm2-esm310-rsr0-rcr100-esr29,exr/ReadingArea_rsl0-rcl69-esl29-rsm0-rcm2-esm310-rsr0-rcr100-esr29.exr,ReadingArea_rsl0-rcl69-esl29-rsm0-rcm2-esm310-rsr0-rcr100-esr29.npz,,,,,0,170,170,296,,left,green,1.56,840.2155981063843,840.610062122345,,3,,2,3,brightness,readingArea,realistic,75,2023-03-15_14h09.21.218,tripletExp_regina_11082022,2022.2.4,120.35547342414336,
1,8,12,0,0.111111111111111,0.298245614035088,0,0.25,1.0,0,0.027777777777778,3.10526315789474,ReadingArea_rsl0-rcl11-esl29-rsm0-rcm25-esm100-rsr0-rcr2-esr310,exr/ReadingArea_rsl0-rcl11-esl29-rsm0-rcm25-esm100-rsr0-rcr2-esr310.exr,ReadingArea_rsl0-rcl11-esl29-rsm0-rcm25-esm100-rsr0-rcr2-esr310.npz,,,,,0,171,171,156,,right,red,1.47,842.3018741607666,842.6535069942474,,3,,2,3,brightness,readingArea,realistic,75,2023-03-15_14h09.21.218,tripletExp_regina_11082022,2022.2.4,120.35547342414336,
10,12,11,0,0.694444444444444,1.0,0,0.027777777777778,3.10526315789474,0,1.0,1.0,ReadingArea_rsl0-rcl69-esl100-rsm0-rcm2-esm310-rsr0-rcr100-esr100,exr/ReadingArea_rsl0-rcl69-esl100-rsm0-rcm2-esm310-rsr0-rcr100-esr100.exr,ReadingArea_rsl0-rcl69-esl100-rsm0-rcm2-esm310-rsr0-rcr100-esr100.npz,,,,,0,172,172,317,,left,green,3.13,846.1544561386108,,,3,,2,3,brightness,readingArea,realistic,75,2023-03-15_14h09.21.218,tripletExp_regina_11082022,2022.2.4,120.35547342414336,
2,1,8,0,0.25,0.298245614035088,0,0.111111111111111,0.298245614035088,0,0.25,1.0,ReadingArea_rsl0-rcl25-esl29-rsm0-rcm11-esm29-rsr0-rcr25-esr100,exr/ReadingArea_rsl0-rcl25-esl29-rsm0-rcm11-esm29-rsr0-rcr25-esr100.exr,ReadingArea_rsl0-rcl25-esl29-rsm0-rcm11-esm29-rsr0-rcr25-esr100.npz,,,,,0,173,173,125,,left,green,3.06,849.9898161888123,850.3362431526184,,3,,2,3,brightness,readingArea,realistic,75,2023-03-15_14h09.21.218,tripletExp_regina_11082022,2022.2.4,120.35547342414336,
12,10,5,0,0.027777777777778,3.10526315789474,0,0.694444444444444,1.0,0,1.0,0.298245614035088,ReadingArea_rsl0-rcl2-esl310-rsm0-rcm69-esm100-rsr0-rcr100-esr29,exr/ReadingArea_rsl0-rcl2-esl310-rsm0-rcm69-esm100-rsr0-rcr100-esr29.exr,ReadingArea_rsl0-rcl2-esl310-rsm0-rcm69-esm100-rsr0-rcr100-esr29.npz,,,,,0,174,174,470,,right,red,2.79,853.8027260303497,854.1711821556091,,3,,2,3,brightness,readingArea,realistic,75,2023-03-15_14h09.21.218,tripletExp_regina_11082022,2022.2.4,120.35547342414336,
9,11,6,0,0.444444444444444,1.0,0,1.0,1.0,0,0.027777777777778,1.0,ReadingArea_rsl0-rcl44-esl100-rsm0-rcm100-esm100-rsr0-rcr2-esr100,exr/ReadingArea_rsl0-rcl44-esl100-rsm0-rcm100-esm100-rsr0-rcr2-esr100.exr,ReadingArea_rsl0-rcl44-esl100-rsm0-rcm100-esm100-rsr0-rcr2-esr100.npz,,,,,0,175,175,404,,left,green,1.1,855.8864459991455,856.2619540691376,,3,,2,3,brightness,readingArea,realistic,75,2023-03-15_14h09.21.218,tripletExp_regina_11082022,2022.2.4,120.35547342414336,
1,13,14,0,0.111111111111111,0.298245614035088,0,0.111111111111111,3.10526315789474,0,0.25,3.10526315789474,ReadingArea_rsl0-rcl11-esl29-rsm0-rcm11-esm310-rsr0-rcr25-esr310,exr/ReadingArea_rsl0-rcl11-esl29-rsm0-rcm11-esm310-rsr0-rcr25-esr310.exr,ReadingArea_rsl0-rcl11-esl29-rsm0-rcm11-esm310-rsr0-rcr25-esr310.npz,,,,,0,176,176,183,,left,green,1.95,859.7667491436005,860.1447110176086,,3,,2,3,brightness,readingArea,realistic,75,2023-03-15_14h09.21.218,tripletExp_regina_11082022,2022.2.4,120.35547342414336,
7,3,5,0,0.111111111111111,1.0,0,0.444444444444444,0.298245614035088,0,1.0,0.298245614035088,ReadingArea_rsl0-rcl11-esl100-rsm0-rcm44-esm29-rsr0-rcr100-esr29,exr/ReadingArea_rsl0-rcl11-esl100-rsm0-rcm44-esm29-rsr0-rcr100-esr29.exr,ReadingArea_rsl0-rcl11-esl100-rsm0-rcm44-esm29-rsr0-rcr100-esr29.npz,,,,,0,177,177,589,,left,green,1.46,861.8489751815796,,,3,,2,3,brightness,readingArea,realistic,75,2023-03-15_14h09.21.218,tripletExp_regina_11082022,2022.2.4,120.35547342414336,
0,5,11,0,0.027777777777778,0.298245614035088,0,1.0,0.298245614035088,0,1.0,1.0,ReadingArea_rsl0-rcl2-esl29-rsm0-rcm100-esm29-rsr0-rcr100-esr100,exr/ReadingArea_rsl0-rcl2-esl29-rsm0-rcm100-esm29-rsr0-rcr100-esr100.exr,ReadingArea_rsl0-rcl2-esl29-rsm0-rcm100-esm29-rsr0-rcr100-esr100.npz,,,,,0,178,178,422,,right,red,2.56,865.7218019962311,866.0937051773071,,3,,2,3,brightness,readingArea,realistic,75,2023-03-15_14h09.21.218,tripletExp_regina_11082022,2022.2.4,120.35547342414336,
5,11,8,0,1.0,0.298245614035088,0,1.0,1.0,0,0.25,1.0,ReadingArea_rsl0-rcl100-esl29-rsm0-rcm100-esm100-rsr0-rcr25-esr100,exr/ReadingArea_rsl0-rcl100-esl29-rsm0-rcm100-esm100-rsr0-rcr25-esr100.exr,ReadingArea_rsl0-rcl100-esl29-rsm0-rcm100-esm100-rsr0-rcr25-esr100.npz,,,,,0,179,179,548,,left,green,1.78,867.806841135025,868.1783111095428,,3,,2,3,brightness,readingArea,realistic,75,2023-03-15_14h09.21.218,tripletExp_regina_11082022,2022.2.4,120.35547342414336,
4,11,14,0,0.694444444444444,0.298245614035088,0,1.0,1.0,0,0.25,3.10526315789474,ReadingArea_rsl0-rcl69-esl29-rsm0-rcm100-esm100-rsr0-rcr25-esr310,exr/ReadingArea_rsl0-rcl69-esl29-rsm0-rcm100-esm100-rsr0-rcr25-esr310.exr,ReadingArea_rsl0-rcl69-esl29-rsm0-rcm100-esm100-rsr0-rcr25-esr310.npz,,,,,0,180,180,165,,right,red,1.27,869.8896989822388,870.2623240947723,,3,,2,3,brightness,readingArea,realistic,75,2023-03-15_14h09.21.218,tripletExp_regina_11082022,2022.2.4,120.35547342414336,
0,9,6,0,0.027777777777778,0.298245614035088,0,0.444444444444444,1.0,0,0.027777777777778,1.0,ReadingArea_rsl0-rcl2-esl29-rsm0-rcm44-esm100-rsr0-rcr2-esr100,exr/ReadingArea_rsl0-rcl2-esl29-rsm0-rcm44-esm100-rsr0-rcr2-esr100.exr,ReadingArea_rsl0-rcl2-esl29-rsm0-rcm44-esm100-rsr0-rcr2-esr100.npz,,,,,0,181,181,365,,right,red,1.34,871.9712681770325,872.3443381786346,,3,,2,3,brightness,readingArea,realistic,75,2023-03-15_14h09.21.218,tripletExp_regina_11082022,2022.2.4,120.35547342414336,
6,5,11,0,0.027777777777778,1.0,0,1.0,0.298245614035088,0,1.0,1.0,ReadingArea_rsl0-rcl2-esl100-rsm0-rcm100-esm29-rsr0-rcr100-esr100,exr/ReadingArea_rsl0-rcl2-esl100-rsm0-rcm100-esm29-rsr0-rcr100-esr100.exr,ReadingArea_rsl0-rcl2-esl100-rsm0-rcm100-esm29-rsr0-rcr100-esr100.npz,,,,,0,182,182,289,,right,red,1.55,874.0488159656525,874.4144990444183,,3,,2,3,brightness,readingArea,realistic,75,2023-03-15_14h09.21.218,tripletExp_regina_11082022,2022.2.4,120.35547342414336,
10,7,8,0,0.694444444444444,1.0,0,0.111111111111111,1.0,0,0.25,1.0,ReadingArea_rsl0-rcl69-esl100-rsm0-rcm11-esm100-rsr0-rcr25-esr100,exr/ReadingArea_rsl0-rcl69-esl100-rsm0-rcm11-esm100-rsr0-rcr25-esr100.exr,ReadingArea_rsl0-rcl69-esl100-rsm0-rcm11-esm100-rsr0-rcr25-esr100.npz,,,,,0,183,183,57,,right,red,1.28,876.1118030548096,876.4812340736389,,3,,2,3,brightness,readingArea,realistic,75,2023-03-15_14h09.21.218,tripletExp_regina_11082022,2022.2.4,120.35547342414336,
2,6,10,0,0.25,0.298245614035088,0,0.027777777777778,1.0,0,0.694444444444444,1.0,ReadingArea_rsl0-rcl25-esl29-rsm0-rcm2-esm100-rsr0-rcr69-esr100,exr/ReadingArea_rsl0-rcl25-esl29-rsm0-rcm2-esm100-rsr0-rcr69-esr100.exr,ReadingArea_rsl0-rcl25-esl29-rsm0-rcm2-esm100-rsr0-rcr69-esr100.npz,,,,,0,184,184,42,,left,green,1.1,878.1950550079346,878.5413730144501,,3,,2,3,brightness,readingArea,realistic,75,2023-03-15_14h09.21.218,tripletExp_regina_11082022,2022.2.4,120.35547342414336,
6,13,8,0,0.027777777777778,1.0,0,0.111111111111111,3.10526315789474,0,0.25,1.0,ReadingArea_rsl0-rcl2-esl100-rsm0-rcm11-esm310-rsr0-rcr25-esr100,exr/ReadingArea_rsl0-rcl2-esl100-rsm0-rcm11-esm310-rsr0-rcr25-esr100.exr,ReadingArea_rsl0-rcl2-esl100-rsm0-rcm11-esm310-rsr0-rcr25-esr100.npz,,,,,0,185,185,535,,right,red,1.01,880.2427241802216,880.6109991073608,,3,,2,3,brightness,readingArea,realistic,75,2023-03-15_14h09.21.218,tripletExp_regina_11082022,2022.2.4,120.35547342414336,
0,1,6,0,0.027777777777778,0.298245614035088,0,0.111111111111111,0.298245614035088,0,0.027777777777778,1.0,ReadingArea_rsl0-rcl2-esl29-rsm0-rcm11-esm29-rsr0-rcr2-esr100,exr/ReadingArea_rsl0-rcl2-esl29-rsm0-rcm11-esm29-rsr0-rcr2-esr100.exr,ReadingArea_rsl0-rcl2-esl29-rsm0-rcm11-esm29-rsr0-rcr2-esr100.npz,,,,,0,186,186,375,,right,red,1.39,882.313392162323,882.6740920543671,,3,,2,3,brightness,readingArea,realistic,75,2023-03-15_14h09.21.218,tripletExp_regina_11082022,2022.2.4,120.35547342414336,
2,14,8,0,0.25,0.298245614035088,0,0.25,3.10526315789474,0,0.25,1.0,ReadingArea_rsl0-rcl25-esl29-rsm0-rcm25-esm310-rsr0-rcr25-esr100,exr/ReadingArea_rsl0-rcl25-esl29-rsm0-rcm25-esm310-rsr0-rcr25-esr100.exr,ReadingArea_rsl0-rcl25-esl29-rsm0-rcm25-esm310-rsr0-rcr25-esr100.npz,,,,,0,187,187,255,,right,red,1.58,884.3984830379486,884.7732660770416,,3,,2,3,brightness,readingArea,realistic,75,2023-03-15_14h09.21.218,tripletExp_regina_11082022,2022.2.4,120.35547342414336,
2,8,4,0,0.25,0.298245614035088,0,0.25,1.0,0,0.694444444444444,0.298245614035088,ReadingArea_rsl0-rcl25-esl29-rsm0-rcm25-esm100-rsr0-rcr69-esr29,exr/ReadingArea_rsl0-rcl25-esl29-rsm0-rcm25-esm100-rsr0-rcr69-esr29.exr,ReadingArea_rsl0-rcl25-esl29-rsm0-rcm25-esm100-rsr0-rcr69-esr29.npz,,,,,0,188,188,507,,right,red,1.02,886.4656000137329,886.8374300003052,,3,,2,3,brightness,readingArea,realistic,75,2023-03-15_14h09.21.218,tripletExp_regina_11082022,2022.2.4,120.35547342414336,
5,13,6,0,1.0,0.298245614035088,0,0.111111111111111,3.10526315789474,0,0.027777777777778,1.0,ReadingArea_rsl0-rcl100-esl29-rsm0-rcm11-esm310-rsr0-rcr2-esr100,exr/ReadingArea_rsl0-rcl100-esl29-rsm0-rcm11-esm310-rsr0-rcr2-esr100.exr,ReadingArea_rsl0-rcl100-esl29-rsm0-rcm11-esm310-rsr0-rcr2-esr100.npz,,,,,0,189,189,263,,left,green,0.97,888.5541250705719,888.929808139801,,3,,2,3,brightness,readingArea,realistic,75,2023-03-15_14h09.21.218,tripletExp_regina_11082022,2022.2.4,120.35547342414336,
11,4,2,0,1.0,1.0,0,0.694444444444444,0.298245614035088,0,0.25,0.298245614035088,ReadingArea_rsl0-rcl100-esl100-rsm0-rcm69-esm29-rsr0-rcr25-esr29,exr/ReadingArea_rsl0-rcl100-esl100-rsm0-rcm69-esm29-rsr0-rcr25-esr29.exr,ReadingArea_rsl0-rcl100-esl100-rsm0-rcm69-esm29-rsr0-rcr25-esr29.npz,,,,,0,190,190,280,,right,red,1.15,890.6249711513519,890.979819059372,,3,,2,3,brightness,readingArea,realistic,75,2023-03-15_14h09.21.218,tripletExp_regina_11082022,2022.2.4,120.35547342414336,
0,1,8,0,0.027777777777778,0.298245614035088,0,0.111111111111111,0.298245614035088,0,0.25,1.0,ReadingArea_rsl0-rcl2-esl29-rsm0-rcm11-esm29-rsr0-rcr25-esr100,exr/ReadingArea_rsl0-rcl2-esl29-rsm0-rcm11-esm29-rsr0-rcr25-esr100.exr,ReadingArea_rsl0-rcl2-esl29-rsm0-rcm11-esm29-rsr0-rcr25-esr100.npz,,,,,0,191,191,107,,left,green,1.76,892.6904561519623,893.0516171455383,,3,,2,3,brightness,readingArea,realistic,75,2023-03-15_14h09.21.218,tripletExp_regina_11082022,2022.2.4,120.35547342414336,
10,14,1,0,0.694444444444444,1.0,0,0.25,3.10526315789474,0,0.111111111111111,0.298245614035088,ReadingArea_rsl0-rcl69-esl100-rsm0-rcm25-esm310-rsr0-rcr11-esr29,exr/ReadingArea_rsl0-rcl69-esl100-rsm0-rcm25-esm310-rsr0-rcr11-esr29.exr,ReadingArea_rsl0-rcl69-esl100-rsm0-rcm25-esm310-rsr0-rcr11-esr29.npz,,,,,0,192,192,544,,left,green,1.18,894.7380111217499,895.1175920963287,,3,,2,3,brightness,readingArea,realistic,75,2023-03-15_14h09.21.218,tripletExp_regina_11082022,2022.2.4,120.35547342414336,
7,13,5,0,0.111111111111111,1.0,0,0.111111111111111,3.10526315789474,0,1.0,0.298245614035088,ReadingArea_rsl0-rcl11-esl100-rsm0-rcm11-esm310-rsr0-rcr100-esr29,exr/ReadingArea_rsl0-rcl11-esl100-rsm0-rcm11-esm310-rsr0-rcr100-esr29.exr,ReadingArea_rsl0-rcl11-esl100-rsm0-rcm11-esm310-rsr0-rcr100-esr29.npz,,,,,0,193,193,332,,right,red,1.12,896.8051600456238,897.1904680728912,,3,,2,3,brightness,readingArea,realistic,75,2023-03-15_14h09.21.218,tripletExp_regina_11082022,2022.2.4,120.35547342414336,
0,10,12,0,0.027777777777778,0.298245614035088,0,0.694444444444444,1.0,0,0.027777777777778,3.10526315789474,ReadingArea_rsl0-rcl2-esl29-rsm0-rcm69-esm100-rsr0-rcr2-esr310,exr/ReadingArea_rsl0-rcl2-esl29-rsm0-rcm69-esm100-rsr0-rcr2-esr310.exr,ReadingArea_rsl0-rcl2-esl29-rsm0-rcm69-esm100-rsr0-rcr2-esr310.npz,,,,,0,194,194,531,,right,red,1.02,898.8788371086121,899.2231459617615,,3,,2,3,brightness,readingArea,realistic,75,2023-03-15_14h09.21.218,tripletExp_regina_11082022,2022.2.4,120.35547342414336,
10,6,8,0,0.694444444444444,1.0,0,0.027777777777778,1.0,0,0.25,1.0,ReadingArea_rsl0-rcl69-esl100-rsm0-rcm2-esm100-rsr0-rcr25-esr100,exr/ReadingArea_rsl0-rcl69-esl100-rsm0-rcm2-esm100-rsr0-rcr25-esr100.exr,ReadingArea_rsl0-rcl69-esl100-rsm0-rcm2-esm100-rsr0-rcr25-esr100.npz,,,,,0,195,195,145,,right,red,1.2,900.9398880004884,901.3134479522704,,3,,2,3,brightness,readingArea,realistic,75,2023-03-15_14h09.21.218,tripletExp_regina_11082022,2022.2.4,120.35547342414336,
3,11,2,0,0.444444444444444,0.298245614035088,0,1.0,1.0,0,0.25,0.298245614035088,ReadingArea_rsl0-rcl44-esl29-rsm0-rcm100-esm100-rsr0-rcr25-esr29,exr/ReadingArea_rsl0-rcl44-esl29-rsm0-rcm100-esm100-rsr0-rcr25-esr29.exr,ReadingArea_rsl0-rcl44-esl29-rsm0-rcm100-esm100-rsr0-rcr25-esr29.npz,,,,,0,196,196,220,,left,green,2.17,904.7571911811827,905.1371240615844,,3,,2,3,brightness,readingArea,realistic,75,2023-03-15_14h09.21.218,tripletExp_regina_11082022,2022.2.4,120.35547342414336,
1,11,12,0,0.111111111111111,0.298245614035088,0,1.0,1.0,0,0.027777777777778,3.10526315789474,ReadingArea_rsl0-rcl11-esl29-rsm0-rcm100-esm100-rsr0-rcr2-esr310,exr/ReadingArea_rsl0-rcl11-esl29-rsm0-rcm100-esm100-rsr0-rcr2-esr310.exr,ReadingArea_rsl0-rcl11-esl29-rsm0-rcm100-esm100-rsr0-rcr2-esr310.npz,,,,,0,197,197,288,,right,red,1.16,906.844784975052,907.2149980068208,,3,,2,3,brightness,readingArea,realistic,75,2023-03-15_14h09.21.218,tripletExp_regina_11082022,2022.2.4,120.35547342414336,
9,11,5,0,0.444444444444444,1.0,0,1.0,1.0,0,1.0,0.298245614035088,ReadingArea_rsl0-rcl44-esl100-rsm0-rcm100-esm100-rsr0-rcr100-esr29,exr/ReadingArea_rsl0-rcl44-esl100-rsm0-rcm100-esm100-rsr0-rcr100-esr29.exr,ReadingArea_rsl0-rcl44-esl100-rsm0-rcm100-esm100-rsr0-rcr100-esr29.npz,,,,,0,198,198,142,,right,red,1.26,908.9118921756744,909.279699087143,,3,,2,3,brightness,readingArea,realistic,75,2023-03-15_14h09.21.218,tripletExp_regina_11082022,2022.2.4,120.35547342414336,
9,2,12,0,0.444444444444444,1.0,0,0.25,0.298245614035088,0,0.027777777777778,3.10526315789474,ReadingArea_rsl0-rcl44-esl100-rsm0-rcm25-esm29-rsr0-rcr2-esr310,exr/ReadingArea_rsl0-rcl44-esl100-rsm0-rcm25-esm29-rsr0-rcr2-esr310.exr,ReadingArea_rsl0-rcl44-esl100-rsm0-rcm25-esm29-rsr0-rcr2-esr310.npz,,,,,0,199,199,391,,right,red,2.68,912.7575850486757,913.1335520744324,,3,,2,3,brightness,readingArea,realistic,75,2023-03-15_14h09.21.218,tripletExp_regina_11082022,2022.2.4,120.35547342414336,
14,2,8,0,0.25,3.10526315789474,0,0.25,0.298245614035088,0,0.25,1.0,ReadingArea_rsl0-rcl25-esl310-rsm0-rcm25-esm29-rsr0-rcr25-esr100,exr/ReadingArea_rsl0-rcl25-esl310-rsm0-rcm25-esm29-rsr0-rcr25-esr100.exr,ReadingArea_rsl0-rcl25-esl310-rsm0-rcm25-esm29-rsr0-rcr25-esr100.npz,,,,,0,200,200,212,,right,red,1.17,914.8232309818268,,,3,,2,3,brightness,readingArea,realistic,75,2023-03-15_14h09.21.218,tripletExp_regina_11082022,2022.2.4,120.35547342414336,
8,12,3,0,0.25,1.0,0,0.027777777777778,3.10526315789474,0,0.444444444444444,0.298245614035088,ReadingArea_rsl0-rcl25-esl100-rsm0-rcm2-esm310-rsr0-rcr44-esr29,exr/ReadingArea_rsl0-rcl25-esl100-rsm0-rcm2-esm310-rsr0-rcr44-esr29.exr,ReadingArea_rsl0-rcl25-esl100-rsm0-rcm2-esm310-rsr0-rcr44-esr29.npz,,,,,0,201,201,6,,right,red,2.77,918.673320055008,919.040994167328,,3,,2,3,brightness,readingArea,realistic,75,2023-03-15_14h09.21.218,tripletExp_regina_11082022,2022.2.4,120.35547342414336,
7,14,5,0,0.111111111111111,1.0,0,0.25,3.10526315789474,0,1.0,0.298245614035088,ReadingArea_rsl0-rcl11-esl100-rsm0-rcm25-esm310-rsr0-rcr100-esr29,exr/ReadingArea_rsl0-rcl11-esl100-rsm0-rcm25-esm310-rsr0-rcr100-esr29.exr,ReadingArea_rsl0-rcl11-esl100-rsm0-rcm25-esm310-rsr0-rcr100-esr29.npz,,,,,0,202,202,372,,right,red,1.06,920.7447819709778,921.1166200637816,,3,,2,3,brightness,readingArea,realistic,75,2023-03-15_14h09.21.218,tripletExp_regina_11082022,2022.2.4,120.35547342414336,
