index_left,index_middle,index_right,reflectance_surround_left,reflectance_center_left,emission_spot_left,reflectance_surround_middle,reflectance_center_middle,emission_spot_middle,reflectance_surround_right,reflectance_center_right,emission_spot_right,ImageName,ImageExr,ImageNpy,trials_2.thisRepN,trials_2.thisTrialN,trials_2.thisN,trials_2.thisIndex,trials.thisRepN,trials.thisTrialN,trials.thisN,trials.thisIndex,sound_2.started,BB_Trial.resp,BB_Trial.color,BB_Trial.rt,text.started,text.stopped,sound_1.started,block,sound_4.started,participant,session,L/B,scene,condition,nTrialsPerBlock,date,expName,psychopyVersion,frameRate,Unnamed: 42
14,13,2,0,0.25,3.10526315789474,0,0.111111111111111,3.10526315789474,0,0.25,0.298245614035088,ReadingArea_rsl0-rcl25-esl310-rsm0-rcm11-esm310-rsr0-rcr25-esr29,exr/ReadingArea_rsl0-rcl25-esl310-rsm0-rcm11-esm310-rsr0-rcr25-esr29.exr,ReadingArea_rsl0-rcl25-esl310-rsm0-rcm11-esm310-rsr0-rcr25-esr29.npz,,,,,0,0,0,377,153.02184183597564,left,green,2.69,283.6197760105133,284.0675239562988,257.3649018526077,1,,3,1,lightness,readingArea,realistic,75,2023-03-17_12h49.09.231,tripletExp_regina_11082022,2022.2.4,120.33544588883692,
11,2,4,0,1.0,1.0,0,0.25,0.298245614035088,0,0.694444444444444,0.298245614035088,ReadingArea_rsl0-rcl100-esl100-rsm0-rcm25-esm29-rsr0-rcr69-esr29,exr/ReadingArea_rsl0-rcl100-esl100-rsm0-rcm25-esm29-rsr0-rcr69-esr29.exr,ReadingArea_rsl0-rcl100-esl100-rsm0-rcm25-esm29-rsr0-rcr69-esr29.npz,,,,,0,1,1,359,,right,red,2.19,287.56374883651733,,,1,,3,1,lightness,readingArea,realistic,75,2023-03-17_12h49.09.231,tripletExp_regina_11082022,2022.2.4,120.33544588883692,
14,9,0,0,0.25,3.10526315789474,0,0.444444444444444,1.0,0,0.027777777777778,0.298245614035088,ReadingArea_rsl0-rcl25-esl310-rsm0-rcm44-esm100-rsr0-rcr2-esr29,exr/ReadingArea_rsl0-rcl25-esl310-rsm0-rcm44-esm100-rsr0-rcr2-esr29.exr,ReadingArea_rsl0-rcl25-esl310-rsm0-rcm44-esm100-rsr0-rcr2-esr29.npz,,,,,0,2,2,313,,left,green,1.35,290.2227430343628,290.5706160068512,,1,,3,1,lightness,readingArea,realistic,75,2023-03-17_12h49.09.231,tripletExp_regina_11082022,2022.2.4,120.33544588883692,
13,2,4,0,0.111111111111111,3.10526315789474,0,0.25,0.298245614035088,0,0.694444444444444,0.298245614035088,ReadingArea_rsl0-rcl11-esl310-rsm0-rcm25-esm29-rsr0-rcr69-esr29,exr/ReadingArea_rsl0-rcl11-esl310-rsm0-rcm25-esm29-rsr0-rcr69-esr29.exr,ReadingArea_rsl0-rcl11-esl310-rsm0-rcm25-esm29-rsr0-rcr69-esr29.npz,,,,,0,3,3,307,,right,red,2.75,294.01576495170593,294.3649399280548,,1,,3,1,lightness,readingArea,realistic,75,2023-03-17_12h49.09.231,tripletExp_regina_11082022,2022.2.4,120.33544588883692,
11,5,8,0,1.0,1.0,0,1.0,0.298245614035088,0,0.25,1.0,ReadingArea_rsl0-rcl100-esl100-rsm0-rcm100-esm29-rsr0-rcr25-esr100,exr/ReadingArea_rsl0-rcl100-esl100-rsm0-rcm100-esm29-rsr0-rcr25-esr100.exr,ReadingArea_rsl0-rcl100-esl100-rsm0-rcm100-esm29-rsr0-rcr25-esr100.npz,,,,,0,4,4,86,,right,red,2.07,297.85089588165283,298.1974370479584,,1,,3,1,lightness,readingArea,realistic,75,2023-03-17_12h49.09.231,tripletExp_regina_11082022,2022.2.4,120.33544588883692,
3,14,10,0,0.444444444444444,0.298245614035088,0,0.25,3.10526315789474,0,0.694444444444444,1.0,ReadingArea_rsl0-rcl44-esl29-rsm0-rcm25-esm310-rsr0-rcr69-esr100,exr/ReadingArea_rsl0-rcl44-esl29-rsm0-rcm25-esm310-rsr0-rcr69-esr100.exr,ReadingArea_rsl0-rcl44-esl29-rsm0-rcm25-esm310-rsr0-rcr69-esr100.npz,,,,,0,5,5,279,,right,red,1.94,301.6817409992218,302.0295059680939,,1,,3,1,lightness,readingArea,realistic,75,2023-03-17_12h49.09.231,tripletExp_regina_11082022,2022.2.4,120.33544588883692,
10,11,4,0,0.694444444444444,1.0,0,1.0,1.0,0,0.694444444444444,0.298245614035088,ReadingArea_rsl0-rcl69-esl100-rsm0-rcm100-esm100-rsr0-rcr69-esr29,exr/ReadingArea_rsl0-rcl69-esl100-rsm0-rcm100-esm100-rsr0-rcr69-esr29.exr,ReadingArea_rsl0-rcl69-esl100-rsm0-rcm100-esm100-rsr0-rcr69-esr29.npz,,,,,0,6,6,239,,left,green,1.49,303.73194789886475,304.09354400634766,,1,,3,1,lightness,readingArea,realistic,75,2023-03-17_12h49.09.231,tripletExp_regina_11082022,2022.2.4,120.33544588883692,
4,13,1,0,0.694444444444444,0.298245614035088,0,0.111111111111111,3.10526315789474,0,0.111111111111111,0.298245614035088,ReadingArea_rsl0-rcl69-esl29-rsm0-rcm11-esm310-rsr0-rcr11-esr29,exr/ReadingArea_rsl0-rcl69-esl29-rsm0-rcm11-esm310-rsr0-rcr11-esr29.exr,ReadingArea_rsl0-rcl69-esl29-rsm0-rcm11-esm310-rsr0-rcr11-esr29.npz,,,,,0,7,7,192,,left,green,2.44,307.5640318393707,307.90677404403687,,1,,3,1,lightness,readingArea,realistic,75,2023-03-17_12h49.09.231,tripletExp_regina_11082022,2022.2.4,120.33544588883692,
3,9,0,0,0.444444444444444,0.298245614035088,0,0.444444444444444,1.0,0,0.027777777777778,0.298245614035088,ReadingArea_rsl0-rcl44-esl29-rsm0-rcm44-esm100-rsr0-rcr2-esr29,exr/ReadingArea_rsl0-rcl44-esl29-rsm0-rcm44-esm100-rsr0-rcr2-esr29.exr,ReadingArea_rsl0-rcl44-esl29-rsm0-rcm44-esm100-rsr0-rcr2-esr29.npz,,,,,0,8,8,551,,left,green,1.32,309.6158549785614,,,1,,3,1,lightness,readingArea,realistic,75,2023-03-17_12h49.09.231,tripletExp_regina_11082022,2022.2.4,120.33544588883692,
13,6,4,0,0.111111111111111,3.10526315789474,0,0.027777777777778,1.0,0,0.694444444444444,0.298245614035088,ReadingArea_rsl0-rcl11-esl310-rsm0-rcm2-esm100-rsr0-rcr69-esr29,exr/ReadingArea_rsl0-rcl11-esl310-rsm0-rcm2-esm100-rsr0-rcr69-esr29.exr,ReadingArea_rsl0-rcl11-esl310-rsm0-rcm2-esm100-rsr0-rcr69-esr29.npz,,,,,0,9,9,328,,right,red,3.63,315.2080628871918,,,1,,3,1,lightness,readingArea,realistic,75,2023-03-17_12h49.09.231,tripletExp_regina_11082022,2022.2.4,120.33544588883692,
10,8,11,0,0.694444444444444,1.0,0,0.25,1.0,0,1.0,1.0,ReadingArea_rsl0-rcl69-esl100-rsm0-rcm25-esm100-rsr0-rcr100-esr100,exr/ReadingArea_rsl0-rcl69-esl100-rsm0-rcm25-esm100-rsr0-rcr100-esr100.exr,ReadingArea_rsl0-rcl69-esl100-rsm0-rcm25-esm100-rsr0-rcr100-esr100.npz,,,,,0,10,10,578,,left,green,4.29,320.79900789260864,321.2563500404358,,1,,3,1,lightness,readingArea,realistic,75,2023-03-17_12h49.09.231,tripletExp_regina_11082022,2022.2.4,120.33544588883692,
14,0,3,0,0.25,3.10526315789474,0,0.027777777777778,0.298245614035088,0,0.444444444444444,0.298245614035088,ReadingArea_rsl0-rcl25-esl310-rsm0-rcm2-esm29-rsr0-rcr44-esr29,exr/ReadingArea_rsl0-rcl25-esl310-rsm0-rcm2-esm29-rsr0-rcr44-esr29.exr,ReadingArea_rsl0-rcl25-esl310-rsm0-rcm2-esm29-rsr0-rcr44-esr29.npz,,,,,0,11,11,75,,right,red,1.55,322.9769649505615,323.32760286331177,,1,,3,1,lightness,readingArea,realistic,75,2023-03-17_12h49.09.231,tripletExp_regina_11082022,2022.2.4,120.33544588883692,
14,7,13,0,0.25,3.10526315789474,0,0.111111111111111,1.0,0,0.111111111111111,3.10526315789474,ReadingArea_rsl0-rcl25-esl310-rsm0-rcm11-esm100-rsr0-rcr11-esr310,exr/ReadingArea_rsl0-rcl25-esl310-rsm0-rcm11-esm100-rsr0-rcr11-esr310.exr,ReadingArea_rsl0-rcl25-esl310-rsm0-rcm11-esm100-rsr0-rcr11-esr310.npz,,,,,0,12,12,358,,right,red,1.92,326.8066608905792,327.1586730480194,,1,,3,1,lightness,readingArea,realistic,75,2023-03-17_12h49.09.231,tripletExp_regina_11082022,2022.2.4,120.33544588883692,
6,12,7,0,0.027777777777778,1.0,0,0.027777777777778,3.10526315789474,0,0.111111111111111,1.0,ReadingArea_rsl0-rcl2-esl100-rsm0-rcm2-esm310-rsr0-rcr11-esr100,exr/ReadingArea_rsl0-rcl2-esl100-rsm0-rcm2-esm310-rsr0-rcr11-esr100.exr,ReadingArea_rsl0-rcl2-esl100-rsm0-rcm2-esm310-rsr0-rcr11-esr100.npz,,,,,0,13,13,157,,right,red,2.75,330.6124758720398,330.9749710559845,,1,,3,1,lightness,readingArea,realistic,75,2023-03-17_12h49.09.231,tripletExp_regina_11082022,2022.2.4,120.33544588883692,
5,4,10,0,1.0,0.298245614035088,0,0.694444444444444,0.298245614035088,0,0.694444444444444,1.0,ReadingArea_rsl0-rcl100-esl29-rsm0-rcm69-esm29-rsr0-rcr69-esr100,exr/ReadingArea_rsl0-rcl100-esl29-rsm0-rcm69-esm29-rsr0-rcr69-esr100.exr,ReadingArea_rsl0-rcl100-esl29-rsm0-rcm69-esm29-rsr0-rcr69-esr100.npz,,,,,0,14,14,536,,left,green,1.45,332.66193985939026,333.0950849056244,,1,,3,1,lightness,readingArea,realistic,75,2023-03-17_12h49.09.231,tripletExp_regina_11082022,2022.2.4,120.33544588883692,
7,3,5,0,0.111111111111111,1.0,0,0.444444444444444,0.298245614035088,0,1.0,0.298245614035088,ReadingArea_rsl0-rcl11-esl100-rsm0-rcm44-esm29-rsr0-rcr100-esr29,exr/ReadingArea_rsl0-rcl11-esl100-rsm0-rcm44-esm29-rsr0-rcr100-esr29.exr,ReadingArea_rsl0-rcl11-esl100-rsm0-rcm44-esm29-rsr0-rcr100-esr29.npz,,,,,0,15,15,589,,,green,1.45,338.31460404396057,338.87681889534,,1,337.93325073719024,3,1,lightness,readingArea,realistic,75,2023-03-17_12h49.09.231,tripletExp_regina_11082022,2022.2.4,120.33544588883692,
9,7,10,0,0.444444444444444,1.0,0,0.111111111111111,1.0,0,0.694444444444444,1.0,ReadingArea_rsl0-rcl44-esl100-rsm0-rcm11-esm100-rsr0-rcr69-esr100,exr/ReadingArea_rsl0-rcl44-esl100-rsm0-rcm11-esm100-rsr0-rcr69-esr100.exr,ReadingArea_rsl0-rcl44-esl100-rsm0-rcm11-esm100-rsr0-rcr69-esr100.npz,,,,,0,16,16,508,,left,green,3.25,342.3013768196106,342.6429178714752,,1,,3,1,lightness,readingArea,realistic,75,2023-03-17_12h49.09.231,tripletExp_regina_11082022,2022.2.4,120.33544588883692,
3,10,9,0,0.444444444444444,0.298245614035088,0,0.694444444444444,1.0,0,0.444444444444444,1.0,ReadingArea_rsl0-rcl44-esl29-rsm0-rcm69-esm100-rsr0-rcr44-esr100,exr/ReadingArea_rsl0-rcl44-esl29-rsm0-rcm69-esm100-rsr0-rcr44-esr100.exr,ReadingArea_rsl0-rcl44-esl29-rsm0-rcm69-esm100-rsr0-rcr44-esr100.npz,,,,,0,17,17,222,,left,green,2.61,346.1111469268799,346.45841693878174,,1,,3,1,lightness,readingArea,realistic,75,2023-03-17_12h49.09.231,tripletExp_regina_11082022,2022.2.4,120.33544588883692,
0,5,6,0,0.027777777777778,0.298245614035088,0,1.0,0.298245614035088,0,0.027777777777778,1.0,ReadingArea_rsl0-rcl2-esl29-rsm0-rcm100-esm29-rsr0-rcr2-esr100,exr/ReadingArea_rsl0-rcl2-esl29-rsm0-rcm100-esm29-rsr0-rcr2-esr100.exr,ReadingArea_rsl0-rcl2-esl29-rsm0-rcm100-esm29-rsr0-rcr2-esr100.npz,,,,,0,18,18,374,,right,red,2.03,349.94711995124817,,,1,,3,1,lightness,readingArea,realistic,75,2023-03-17_12h49.09.231,tripletExp_regina_11082022,2022.2.4,120.33544588883692,
5,1,4,0,1.0,0.298245614035088,0,0.111111111111111,0.298245614035088,0,0.694444444444444,0.298245614035088,ReadingArea_rsl0-rcl100-esl29-rsm0-rcm11-esm29-rsr0-rcr69-esr29,exr/ReadingArea_rsl0-rcl100-esl29-rsm0-rcm11-esm29-rsr0-rcr69-esr29.exr,ReadingArea_rsl0-rcl100-esl29-rsm0-rcm11-esm29-rsr0-rcr69-esr29.npz,,,,,0,19,19,287,,right,red,2.41,353.7771518230438,354.1307809352875,,1,,3,1,lightness,readingArea,realistic,75,2023-03-17_12h49.09.231,tripletExp_regina_11082022,2022.2.4,120.33544588883692,
5,2,0,0,1.0,0.298245614035088,0,0.25,0.298245614035088,0,0.027777777777778,0.298245614035088,ReadingArea_rsl0-rcl100-esl29-rsm0-rcm25-esm29-rsr0-rcr2-esr29,exr/ReadingArea_rsl0-rcl100-esl29-rsm0-rcm25-esm29-rsr0-rcr2-esr29.exr,ReadingArea_rsl0-rcl100-esl29-rsm0-rcm25-esm29-rsr0-rcr2-esr29.npz,,,,,0,20,20,476,,left,green,4.63,359.371798992157,359.8469660282135,,1,,3,1,lightness,readingArea,realistic,75,2023-03-17_12h49.09.231,tripletExp_regina_11082022,2022.2.4,120.33544588883692,
3,6,5,0,0.444444444444444,0.298245614035088,0,0.027777777777778,1.0,0,1.0,0.298245614035088,ReadingArea_rsl0-rcl44-esl29-rsm0-rcm2-esm100-rsr0-rcr100-esr29,exr/ReadingArea_rsl0-rcl44-esl29-rsm0-rcm2-esm100-rsr0-rcr100-esr29.exr,ReadingArea_rsl0-rcl44-esl29-rsm0-rcm2-esm100-rsr0-rcr100-esr29.npz,,,,,0,21,21,274,,left,green,2.71,363.3032939434052,363.6897330284119,,1,,3,1,lightness,readingArea,realistic,75,2023-03-17_12h49.09.231,tripletExp_regina_11082022,2022.2.4,120.33544588883692,
6,12,8,0,0.027777777777778,1.0,0,0.027777777777778,3.10526315789474,0,0.25,1.0,ReadingArea_rsl0-rcl2-esl100-rsm0-rcm2-esm310-rsr0-rcr25-esr100,exr/ReadingArea_rsl0-rcl2-esl100-rsm0-rcm2-esm310-rsr0-rcr25-esr100.exr,ReadingArea_rsl0-rcl2-esl100-rsm0-rcm2-esm310-rsr0-rcr25-esr100.npz,,,,,0,22,22,186,,left,green,4.25,368.9167740345001,,,1,,3,1,lightness,readingArea,realistic,75,2023-03-17_12h49.09.231,tripletExp_regina_11082022,2022.2.4,120.33544588883692,
13,6,10,0,0.111111111111111,3.10526315789474,0,0.027777777777778,1.0,0,0.694444444444444,1.0,ReadingArea_rsl0-rcl11-esl310-rsm0-rcm2-esm100-rsr0-rcr69-esr100,exr/ReadingArea_rsl0-rcl11-esl310-rsm0-rcm2-esm100-rsr0-rcr69-esr100.exr,ReadingArea_rsl0-rcl11-esl310-rsm0-rcm2-esm100-rsr0-rcr69-esr100.npz,,,,,0,23,23,593,,left,green,2.12,372.7213020324707,373.09974002838135,,1,,3,1,lightness,readingArea,realistic,75,2023-03-17_12h49.09.231,tripletExp_regina_11082022,2022.2.4,120.33544588883692,
10,5,13,0,0.694444444444444,1.0,0,1.0,0.298245614035088,0,0.111111111111111,3.10526315789474,ReadingArea_rsl0-rcl69-esl100-rsm0-rcm100-esm29-rsr0-rcr11-esr310,exr/ReadingArea_rsl0-rcl69-esl100-rsm0-rcm100-esm29-rsr0-rcr11-esr310.exr,ReadingArea_rsl0-rcl69-esl100-rsm0-rcm100-esm29-rsr0-rcr11-esr310.npz,,,,,0,24,24,478,,right,red,2.32,376.5563910007477,376.90275502204895,,1,,3,1,lightness,readingArea,realistic,75,2023-03-17_12h49.09.231,tripletExp_regina_11082022,2022.2.4,120.33544588883692,
5,13,7,0,1.0,0.298245614035088,0,0.111111111111111,3.10526315789474,0,0.111111111111111,1.0,ReadingArea_rsl0-rcl100-esl29-rsm0-rcm11-esm310-rsr0-rcr11-esr100,exr/ReadingArea_rsl0-rcl100-esl29-rsm0-rcm11-esm310-rsr0-rcr11-esr100.exr,ReadingArea_rsl0-rcl100-esl29-rsm0-rcm11-esm310-rsr0-rcr11-esr100.npz,,,,,0,25,25,189,,left,green,2.92,380.41236782073975,380.8490149974823,,1,,3,1,lightness,readingArea,realistic,75,2023-03-17_12h49.09.231,tripletExp_regina_11082022,2022.2.4,120.33544588883692,
6,11,8,0,0.027777777777778,1.0,0,1.0,1.0,0,0.25,1.0,ReadingArea_rsl0-rcl2-esl100-rsm0-rcm100-esm100-rsr0-rcr25-esr100,exr/ReadingArea_rsl0-rcl2-esl100-rsm0-rcm100-esm100-rsr0-rcr25-esr100.exr,ReadingArea_rsl0-rcl2-esl100-rsm0-rcm100-esm100-rsr0-rcr25-esr100.npz,,,,,0,26,26,176,,right,red,2.19,384.3238339424133,384.689190864563,,1,,3,1,lightness,readingArea,realistic,75,2023-03-17_12h49.09.231,tripletExp_regina_11082022,2022.2.4,120.33544588883692,
10,0,11,0,0.694444444444444,1.0,0,0.027777777777778,0.298245614035088,0,1.0,1.0,ReadingArea_rsl0-rcl69-esl100-rsm0-rcm2-esm29-rsr0-rcr100-esr100,exr/ReadingArea_rsl0-rcl69-esl100-rsm0-rcm2-esm29-rsr0-rcr100-esr100.exr,ReadingArea_rsl0-rcl69-esl100-rsm0-rcm2-esm29-rsr0-rcr100-esr100.npz,,,,,0,27,27,573,,left,green,2.49,388.147922039032,388.4984788894653,,1,,3,1,lightness,readingArea,realistic,75,2023-03-17_12h49.09.231,tripletExp_regina_11082022,2022.2.4,120.33544588883692,
10,0,14,0,0.694444444444444,1.0,0,0.027777777777778,0.298245614035088,0,0.25,3.10526315789474,ReadingArea_rsl0-rcl69-esl100-rsm0-rcm2-esm29-rsr0-rcr25-esr310,exr/ReadingArea_rsl0-rcl69-esl100-rsm0-rcm2-esm29-rsr0-rcr25-esr310.exr,ReadingArea_rsl0-rcl69-esl100-rsm0-rcm2-esm29-rsr0-rcr25-esr310.npz,,,,,0,28,28,95,,right,red,4.16,393.7367889881134,394.092602968216,,1,,3,1,lightness,readingArea,realistic,75,2023-03-17_12h49.09.231,tripletExp_regina_11082022,2022.2.4,120.33544588883692,
2,5,14,0,0.25,0.298245614035088,0,1.0,0.298245614035088,0,0.25,3.10526315789474,ReadingArea_rsl0-rcl25-esl29-rsm0-rcm100-esm29-rsr0-rcr25-esr310,exr/ReadingArea_rsl0-rcl25-esl29-rsm0-rcm100-esm29-rsr0-rcr25-esr310.exr,ReadingArea_rsl0-rcl25-esl29-rsm0-rcm100-esm29-rsr0-rcr25-esr310.npz,,,,,0,29,29,390,,right,red,4.01,399.3212149143219,,,1,,3,1,lightness,readingArea,realistic,75,2023-03-17_12h49.09.231,tripletExp_regina_11082022,2022.2.4,120.33544588883692,
2,11,8,0,0.25,0.298245614035088,0,1.0,1.0,0,0.25,1.0,ReadingArea_rsl0-rcl25-esl29-rsm0-rcm100-esm100-rsr0-rcr25-esr100,exr/ReadingArea_rsl0-rcl25-esl29-rsm0-rcm100-esm100-rsr0-rcr25-esr100.exr,ReadingArea_rsl0-rcl25-esl29-rsm0-rcm100-esm100-rsr0-rcr25-esr100.npz,,,,,0,30,30,364,,right,red,2.26,403.13508105278015,403.4819169044495,,1,,3,1,lightness,readingArea,realistic,75,2023-03-17_12h49.09.231,tripletExp_regina_11082022,2022.2.4,120.33544588883692,
6,12,0,0,0.027777777777778,1.0,0,0.027777777777778,3.10526315789474,0,0.027777777777778,0.298245614035088,ReadingArea_rsl0-rcl2-esl100-rsm0-rcm2-esm310-rsr0-rcr2-esr29,exr/ReadingArea_rsl0-rcl2-esl100-rsm0-rcm2-esm310-rsr0-rcr2-esr29.exr,ReadingArea_rsl0-rcl2-esl100-rsm0-rcm2-esm310-rsr0-rcr2-esr29.npz,,,,,0,31,31,23,,left,green,2.21,406.964026927948,,,1,,3,1,lightness,readingArea,realistic,75,2023-03-17_12h49.09.231,tripletExp_regina_11082022,2022.2.4,120.33544588883692,
5,9,0,0,1.0,0.298245614035088,0,0.444444444444444,1.0,0,0.027777777777778,0.298245614035088,ReadingArea_rsl0-rcl100-esl29-rsm0-rcm44-esm100-rsr0-rcr2-esr29,exr/ReadingArea_rsl0-rcl100-esl29-rsm0-rcm44-esm100-rsr0-rcr2-esr29.exr,ReadingArea_rsl0-rcl100-esl29-rsm0-rcm44-esm100-rsr0-rcr2-esr29.npz,,,,,0,32,32,575,,left,green,2.7,410.7906968593597,411.168872833252,,1,,3,1,lightness,readingArea,realistic,75,2023-03-17_12h49.09.231,tripletExp_regina_11082022,2022.2.4,120.33544588883692,
3,5,7,0,0.444444444444444,0.298245614035088,0,1.0,0.298245614035088,0,0.111111111111111,1.0,ReadingArea_rsl0-rcl44-esl29-rsm0-rcm100-esm29-rsr0-rcr11-esr100,exr/ReadingArea_rsl0-rcl44-esl29-rsm0-rcm100-esm29-rsr0-rcr11-esr100.exr,ReadingArea_rsl0-rcl44-esl29-rsm0-rcm100-esm29-rsr0-rcr11-esr100.npz,,,,,0,33,33,474,,left,green,4.43,416.4326708316803,,,1,,3,1,lightness,readingArea,realistic,75,2023-03-17_12h49.09.231,tripletExp_regina_11082022,2022.2.4,120.33544588883692,
5,0,6,0,1.0,0.298245614035088,0,0.027777777777778,0.298245614035088,0,0.027777777777778,1.0,ReadingArea_rsl0-rcl100-esl29-rsm0-rcm2-esm29-rsr0-rcr2-esr100,exr/ReadingArea_rsl0-rcl100-esl29-rsm0-rcm2-esm29-rsr0-rcr2-esr100.exr,ReadingArea_rsl0-rcl100-esl29-rsm0-rcm2-esm29-rsr0-rcr2-esr100.npz,,,,,0,34,34,1,,right,red,2.17,420.2346658706665,420.5878639221192,,1,,3,1,lightness,readingArea,realistic,75,2023-03-17_12h49.09.231,tripletExp_regina_11082022,2022.2.4,120.33544588883692,
3,4,0,0,0.444444444444444,0.298245614035088,0,0.694444444444444,0.298245614035088,0,0.027777777777778,0.298245614035088,ReadingArea_rsl0-rcl44-esl29-rsm0-rcm69-esm29-rsr0-rcr2-esr29,exr/ReadingArea_rsl0-rcl44-esl29-rsm0-rcm69-esm29-rsr0-rcr2-esr29.exr,ReadingArea_rsl0-rcl44-esl29-rsm0-rcm69-esm29-rsr0-rcr2-esr29.npz,,,,,0,35,35,130,,left,green,3.13,424.0260269641876,424.3879029750824,,1,,3,1,lightness,readingArea,realistic,75,2023-03-17_12h49.09.231,tripletExp_regina_11082022,2022.2.4,120.33544588883692,
7,9,8,0,0.111111111111111,1.0,0,0.444444444444444,1.0,0,0.25,1.0,ReadingArea_rsl0-rcl11-esl100-rsm0-rcm44-esm100-rsr0-rcr25-esr100,exr/ReadingArea_rsl0-rcl11-esl100-rsm0-rcm44-esm100-rsr0-rcr25-esr100.exr,ReadingArea_rsl0-rcl11-esl100-rsm0-rcm44-esm100-rsr0-rcr25-esr100.npz,,,,,0,36,36,515,,right,red,3.94,429.6349759101868,430.004362821579,,1,,3,1,lightness,readingArea,realistic,75,2023-03-17_12h49.09.231,tripletExp_regina_11082022,2022.2.4,120.33544588883692,
4,8,10,0,0.694444444444444,0.298245614035088,0,0.25,1.0,0,0.694444444444444,1.0,ReadingArea_rsl0-rcl69-esl29-rsm0-rcm25-esm100-rsr0-rcr69-esr100,exr/ReadingArea_rsl0-rcl69-esl29-rsm0-rcm25-esm100-rsr0-rcr69-esr100.exr,ReadingArea_rsl0-rcl69-esl29-rsm0-rcm25-esm100-rsr0-rcr69-esr100.npz,,,,,0,37,37,221,,left,green,4.25,435.2253499031067,435.6640989780426,,1,,3,1,lightness,readingArea,realistic,75,2023-03-17_12h49.09.231,tripletExp_regina_11082022,2022.2.4,120.33544588883692,
4,12,2,0,0.694444444444444,0.298245614035088,0,0.027777777777778,3.10526315789474,0,0.25,0.298245614035088,ReadingArea_rsl0-rcl69-esl29-rsm0-rcm2-esm310-rsr0-rcr25-esr29,exr/ReadingArea_rsl0-rcl69-esl29-rsm0-rcm2-esm310-rsr0-rcr25-esr29.exr,ReadingArea_rsl0-rcl69-esl29-rsm0-rcm2-esm310-rsr0-rcr25-esr29.npz,,,,,0,38,38,543,,right,red,2.75,439.1522040367127,439.49530482292175,,1,,3,1,lightness,readingArea,realistic,75,2023-03-17_12h49.09.231,tripletExp_regina_11082022,2022.2.4,120.33544588883692,
1,8,5,0,0.111111111111111,0.298245614035088,0,0.25,1.0,0,1.0,0.298245614035088,ReadingArea_rsl0-rcl11-esl29-rsm0-rcm25-esm100-rsr0-rcr100-esr29,exr/ReadingArea_rsl0-rcl11-esl29-rsm0-rcm25-esm100-rsr0-rcr100-esr29.exr,ReadingArea_rsl0-rcl11-esl29-rsm0-rcm25-esm100-rsr0-rcr100-esr29.npz,,,,,0,39,39,445,,right,red,3.92,444.7287828922272,,,1,,3,1,lightness,readingArea,realistic,75,2023-03-17_12h49.09.231,tripletExp_regina_11082022,2022.2.4,120.33544588883692,
1,3,12,0,0.111111111111111,0.298245614035088,0,0.444444444444444,0.298245614035088,0,0.027777777777778,3.10526315789474,ReadingArea_rsl0-rcl11-esl29-rsm0-rcm44-esm29-rsr0-rcr2-esr310,exr/ReadingArea_rsl0-rcl11-esl29-rsm0-rcm44-esm29-rsr0-rcr2-esr310.exr,ReadingArea_rsl0-rcl11-esl29-rsm0-rcm44-esm29-rsr0-rcr2-esr310.npz,,,,,0,40,40,323,,right,red,4.25,450.3412079811096,450.7532448768616,,1,,3,1,lightness,readingArea,realistic,75,2023-03-17_12h49.09.231,tripletExp_regina_11082022,2022.2.4,120.33544588883692,
2,11,14,0,0.25,0.298245614035088,0,1.0,1.0,0,0.25,3.10526315789474,ReadingArea_rsl0-rcl25-esl29-rsm0-rcm100-esm100-rsr0-rcr25-esr310,exr/ReadingArea_rsl0-rcl25-esl29-rsm0-rcm100-esm100-rsr0-rcr25-esr310.exr,ReadingArea_rsl0-rcl25-esl29-rsm0-rcm100-esm100-rsr0-rcr25-esr310.npz,,,,,0,41,41,534,,right,red,2.53,454.2402038574219,454.5875689983368,,1,,3,1,lightness,readingArea,realistic,75,2023-03-17_12h49.09.231,tripletExp_regina_11082022,2022.2.4,120.33544588883692,
14,2,7,0,0.25,3.10526315789474,0,0.25,0.298245614035088,0,0.111111111111111,1.0,ReadingArea_rsl0-rcl25-esl310-rsm0-rcm25-esm29-rsr0-rcr11-esr100,exr/ReadingArea_rsl0-rcl25-esl310-rsm0-rcm25-esm29-rsr0-rcr11-esr100.exr,ReadingArea_rsl0-rcl25-esl310-rsm0-rcm25-esm29-rsr0-rcr11-esr100.npz,,,,,0,42,42,569,,right,red,2.75,458.0790328979492,458.4108018875122,,1,,3,1,lightness,readingArea,realistic,75,2023-03-17_12h49.09.231,tripletExp_regina_11082022,2022.2.4,120.33544588883692,
2,5,0,0,0.25,0.298245614035088,0,1.0,0.298245614035088,0,0.027777777777778,0.298245614035088,ReadingArea_rsl0-rcl25-esl29-rsm0-rcm100-esm29-rsr0-rcr2-esr29,exr/ReadingArea_rsl0-rcl25-esl29-rsm0-rcm100-esm29-rsr0-rcr2-esr29.exr,ReadingArea_rsl0-rcl25-esl29-rsm0-rcm100-esm29-rsr0-rcr2-esr29.npz,,,,,0,43,43,414,,left,green,4.38,463.6594259738922,464.0161058902741,,1,,3,1,lightness,readingArea,realistic,75,2023-03-17_12h49.09.231,tripletExp_regina_11082022,2022.2.4,120.33544588883692,
1,12,6,0,0.111111111111111,0.298245614035088,0,0.027777777777778,3.10526315789474,0,0.027777777777778,1.0,ReadingArea_rsl0-rcl11-esl29-rsm0-rcm2-esm310-rsr0-rcr2-esr100,exr/ReadingArea_rsl0-rcl11-esl29-rsm0-rcm2-esm310-rsr0-rcr2-esr100.exr,ReadingArea_rsl0-rcl11-esl29-rsm0-rcm2-esm310-rsr0-rcr2-esr100.npz,,,,,0,44,44,277,,left,green,4.22,469.2762298583984,469.7040729522705,,1,,3,1,lightness,readingArea,realistic,75,2023-03-17_12h49.09.231,tripletExp_regina_11082022,2022.2.4,120.33544588883692,
10,14,1,0,0.694444444444444,1.0,0,0.25,3.10526315789474,0,0.111111111111111,0.298245614035088,ReadingArea_rsl0-rcl69-esl100-rsm0-rcm25-esm310-rsr0-rcr11-esr29,exr/ReadingArea_rsl0-rcl69-esl100-rsm0-rcm25-esm310-rsr0-rcr11-esr29.exr,ReadingArea_rsl0-rcl69-esl100-rsm0-rcm25-esm310-rsr0-rcr11-esr29.npz,,,,,0,45,45,544,,left,green,2.46,473.1867039203644,473.5344269275665,,1,,3,1,lightness,readingArea,realistic,75,2023-03-17_12h49.09.231,tripletExp_regina_11082022,2022.2.4,120.33544588883692,
12,8,9,0,0.027777777777778,3.10526315789474,0,0.25,1.0,0,0.444444444444444,1.0,ReadingArea_rsl0-rcl2-esl310-rsm0-rcm25-esm100-rsr0-rcr44-esr100,exr/ReadingArea_rsl0-rcl2-esl310-rsm0-rcm25-esm100-rsr0-rcr44-esr100.exr,ReadingArea_rsl0-rcl2-esl310-rsm0-rcm25-esm100-rsr0-rcr44-esr100.npz,,,,,0,46,46,517,,right,red,4.41,478.775869846344,,,1,,3,1,lightness,readingArea,realistic,75,2023-03-17_12h49.09.231,tripletExp_regina_11082022,2022.2.4,120.33544588883692,
4,3,10,0,0.694444444444444,0.298245614035088,0,0.444444444444444,0.298245614035088,0,0.694444444444444,1.0,ReadingArea_rsl0-rcl69-esl29-rsm0-rcm44-esm29-rsr0-rcr69-esr100,exr/ReadingArea_rsl0-rcl69-esl29-rsm0-rcm44-esm29-rsr0-rcr69-esr100.exr,ReadingArea_rsl0-rcl69-esl29-rsm0-rcm44-esm29-rsr0-rcr69-esr100.npz,,,,,0,47,47,371,,left,green,2.12,482.61208391189575,482.965029001236,,1,,3,1,lightness,readingArea,realistic,75,2023-03-17_12h49.09.231,tripletExp_regina_11082022,2022.2.4,120.33544588883692,
10,6,13,0,0.694444444444444,1.0,0,0.027777777777778,1.0,0,0.111111111111111,3.10526315789474,ReadingArea_rsl0-rcl69-esl100-rsm0-rcm2-esm100-rsr0-rcr11-esr310,exr/ReadingArea_rsl0-rcl69-esl100-rsm0-rcm2-esm100-rsr0-rcr11-esr310.exr,ReadingArea_rsl0-rcl69-esl100-rsm0-rcm2-esm100-rsr0-rcr11-esr310.npz,,,,,0,48,48,41,,right,red,1.32,484.6611559391022,485.0463328361511,,1,,3,1,lightness,readingArea,realistic,75,2023-03-17_12h49.09.231,tripletExp_regina_11082022,2022.2.4,120.33544588883692,
3,11,2,0,0.444444444444444,0.298245614035088,0,1.0,1.0,0,0.25,0.298245614035088,ReadingArea_rsl0-rcl44-esl29-rsm0-rcm100-esm100-rsr0-rcr25-esr29,exr/ReadingArea_rsl0-rcl44-esl29-rsm0-rcm100-esm100-rsr0-rcr25-esr29.exr,ReadingArea_rsl0-rcl44-esl29-rsm0-rcm100-esm100-rsr0-rcr25-esr29.npz,,,,,0,49,49,220,,left,green,4.21,490.3122520446777,490.685665845871,,1,,3,1,lightness,readingArea,realistic,75,2023-03-17_12h49.09.231,tripletExp_regina_11082022,2022.2.4,120.33544588883692,
2,6,0,0,0.25,0.298245614035088,0,0.027777777777778,1.0,0,0.027777777777778,0.298245614035088,ReadingArea_rsl0-rcl25-esl29-rsm0-rcm2-esm100-rsr0-rcr2-esr29,exr/ReadingArea_rsl0-rcl25-esl29-rsm0-rcm2-esm100-rsr0-rcr2-esr29.exr,ReadingArea_rsl0-rcl25-esl29-rsm0-rcm2-esm100-rsr0-rcr2-esr29.npz,,,,,0,50,50,525,,right,red,4.7,495.9703090190888,,,1,,3,1,lightness,readingArea,realistic,75,2023-03-17_12h49.09.231,tripletExp_regina_11082022,2022.2.4,120.33544588883692,
3,7,8,0,0.444444444444444,0.298245614035088,0,0.111111111111111,1.0,0,0.25,1.0,ReadingArea_rsl0-rcl44-esl29-rsm0-rcm11-esm100-rsr0-rcr25-esr100,exr/ReadingArea_rsl0-rcl44-esl29-rsm0-rcm11-esm100-rsr0-rcr25-esr100.exr,ReadingArea_rsl0-rcl44-esl29-rsm0-rcm11-esm100-rsr0-rcr25-esr100.npz,,,,,0,51,51,246,,left,green,1.17,498.0282759666443,,,1,,3,1,lightness,readingArea,realistic,75,2023-03-17_12h49.09.231,tripletExp_regina_11082022,2022.2.4,120.33544588883692,
12,10,6,0,0.027777777777778,3.10526315789474,0,0.694444444444444,1.0,0,0.027777777777778,1.0,ReadingArea_rsl0-rcl2-esl310-rsm0-rcm69-esm100-rsr0-rcr2-esr100,exr/ReadingArea_rsl0-rcl2-esl310-rsm0-rcm69-esm100-rsr0-rcr2-esr100.exr,ReadingArea_rsl0-rcl2-esl310-rsm0-rcm69-esm100-rsr0-rcr2-esr100.npz,,,,,0,52,52,273,,left,green,3.84,503.60193395614624,503.95320987701416,,1,,3,1,lightness,readingArea,realistic,75,2023-03-17_12h49.09.231,tripletExp_regina_11082022,2022.2.4,120.33544588883692,
2,6,13,0,0.25,0.298245614035088,0,0.027777777777778,1.0,0,0.111111111111111,3.10526315789474,ReadingArea_rsl0-rcl25-esl29-rsm0-rcm2-esm100-rsr0-rcr11-esr310,exr/ReadingArea_rsl0-rcl25-esl29-rsm0-rcm2-esm100-rsr0-rcr11-esr310.exr,ReadingArea_rsl0-rcl25-esl29-rsm0-rcm2-esm100-rsr0-rcr11-esr310.npz,,,,,0,53,53,388,,left,green,2.61,507.4304239749909,,,1,,3,1,lightness,readingArea,realistic,75,2023-03-17_12h49.09.231,tripletExp_regina_11082022,2022.2.4,120.33544588883692,
1,6,11,0,0.111111111111111,0.298245614035088,0,0.027777777777778,1.0,0,1.0,1.0,ReadingArea_rsl0-rcl11-esl29-rsm0-rcm2-esm100-rsr0-rcr100-esr100,exr/ReadingArea_rsl0-rcl11-esl29-rsm0-rcm2-esm100-rsr0-rcr100-esr100.exr,ReadingArea_rsl0-rcl11-esl29-rsm0-rcm2-esm100-rsr0-rcr100-esr100.npz,,,,,0,54,54,39,,left,green,2.1,511.3077640533447,511.6586549282074,,1,,3,1,lightness,readingArea,realistic,75,2023-03-17_12h49.09.231,tripletExp_regina_11082022,2022.2.4,120.33544588883692,
12,7,1,0,0.027777777777778,3.10526315789474,0,0.111111111111111,1.0,0,0.111111111111111,0.298245614035088,ReadingArea_rsl0-rcl2-esl310-rsm0-rcm11-esm100-rsr0-rcr11-esr29,exr/ReadingArea_rsl0-rcl2-esl310-rsm0-rcm11-esm100-rsr0-rcr11-esr29.exr,ReadingArea_rsl0-rcl2-esl310-rsm0-rcm11-esm100-rsr0-rcr11-esr29.npz,,,,,0,55,55,264,,left,green,2.25,515.1624429225922,515.5088849067688,,1,,3,1,lightness,readingArea,realistic,75,2023-03-17_12h49.09.231,tripletExp_regina_11082022,2022.2.4,120.33544588883692,
0,11,9,0,0.027777777777778,0.298245614035088,0,1.0,1.0,0,0.444444444444444,1.0,ReadingArea_rsl0-rcl2-esl29-rsm0-rcm100-esm100-rsr0-rcr44-esr100,exr/ReadingArea_rsl0-rcl2-esl29-rsm0-rcm100-esm100-rsr0-rcr44-esr100.exr,ReadingArea_rsl0-rcl2-esl29-rsm0-rcm100-esm100-rsr0-rcr44-esr100.npz,,,,,0,56,56,32,,right,red,0.85,517.2006340026855,517.5467009544373,,1,,3,1,lightness,readingArea,realistic,75,2023-03-17_12h49.09.231,tripletExp_regina_11082022,2022.2.4,120.33544588883692,
14,6,5,0,0.25,3.10526315789474,0,0.027777777777778,1.0,0,1.0,0.298245614035088,ReadingArea_rsl0-rcl25-esl310-rsm0-rcm2-esm100-rsr0-rcr100-esr29,exr/ReadingArea_rsl0-rcl25-esl310-rsm0-rcm2-esm100-rsr0-rcr100-esr29.exr,ReadingArea_rsl0-rcl25-esl310-rsm0-rcm2-esm100-rsr0-rcr100-esr29.npz,,,,,0,57,57,297,,right,red,2.37,521.027107000351,521.3740479946136,,1,,3,1,lightness,readingArea,realistic,75,2023-03-17_12h49.09.231,tripletExp_regina_11082022,2022.2.4,120.33544588883692,
11,5,2,0,1.0,1.0,0,1.0,0.298245614035088,0,0.25,0.298245614035088,ReadingArea_rsl0-rcl100-esl100-rsm0-rcm100-esm29-rsr0-rcr25-esr29,exr/ReadingArea_rsl0-rcl100-esl100-rsm0-rcm100-esm29-rsr0-rcr25-esr29.exr,ReadingArea_rsl0-rcl100-esl100-rsm0-rcm100-esm29-rsr0-rcr25-esr29.npz,,,,,0,58,58,596,,right,red,4.58,526.6086118221283,526.9756038188934,,1,,3,1,lightness,readingArea,realistic,75,2023-03-17_12h49.09.231,tripletExp_regina_11082022,2022.2.4,120.33544588883692,
8,1,14,0,0.25,1.0,0,0.111111111111111,0.298245614035088,0,0.25,3.10526315789474,ReadingArea_rsl0-rcl25-esl100-rsm0-rcm11-esm29-rsr0-rcr25-esr310,exr/ReadingArea_rsl0-rcl25-esl100-rsm0-rcm11-esm29-rsr0-rcr25-esr310.exr,ReadingArea_rsl0-rcl25-esl100-rsm0-rcm11-esm29-rsr0-rcr25-esr310.npz,,,,,0,59,59,500,,left,green,2.7,530.4302558898926,530.7821249961853,,1,,3,1,lightness,readingArea,realistic,75,2023-03-17_12h49.09.231,tripletExp_regina_11082022,2022.2.4,120.33544588883692,
3,9,10,0,0.444444444444444,0.298245614035088,0,0.444444444444444,1.0,0,0.694444444444444,1.0,ReadingArea_rsl0-rcl44-esl29-rsm0-rcm44-esm100-rsr0-rcr69-esr100,exr/ReadingArea_rsl0-rcl44-esl29-rsm0-rcm44-esm100-rsr0-rcr69-esr100.exr,ReadingArea_rsl0-rcl44-esl29-rsm0-rcm44-esm100-rsr0-rcr69-esr100.npz,,,,,0,60,60,581,,right,red,2.89,534.2738108634949,534.639860868454,,1,,3,1,lightness,readingArea,realistic,75,2023-03-17_12h49.09.231,tripletExp_regina_11082022,2022.2.4,120.33544588883692,
0,14,11,0,0.027777777777778,0.298245614035088,0,0.25,3.10526315789474,0,1.0,1.0,ReadingArea_rsl0-rcl2-esl29-rsm0-rcm25-esm310-rsr0-rcr100-esr100,exr/ReadingArea_rsl0-rcl2-esl29-rsm0-rcm25-esm310-rsr0-rcr100-esr100.exr,ReadingArea_rsl0-rcl2-esl29-rsm0-rcm25-esm310-rsr0-rcr100-esr100.npz,,,,,0,61,61,557,,right,red,2.51,538.1014828681946,,,1,,3,1,lightness,readingArea,realistic,75,2023-03-17_12h49.09.231,tripletExp_regina_11082022,2022.2.4,120.33544588883692,
11,5,1,0,1.0,1.0,0,1.0,0.298245614035088,0,0.111111111111111,0.298245614035088,ReadingArea_rsl0-rcl100-esl100-rsm0-rcm100-esm29-rsr0-rcr11-esr29,exr/ReadingArea_rsl0-rcl100-esl100-rsm0-rcm100-esm29-rsr0-rcr11-esr29.exr,ReadingArea_rsl0-rcl100-esl100-rsm0-rcm100-esm29-rsr0-rcr11-esr29.npz,,,,,0,62,62,48,,left,green,2.33,541.9337139129639,542.2876310348511,,1,,3,1,lightness,readingArea,realistic,75,2023-03-17_12h49.09.231,tripletExp_regina_11082022,2022.2.4,120.33544588883692,
7,13,6,0,0.111111111111111,1.0,0,0.111111111111111,3.10526315789474,0,0.027777777777778,1.0,ReadingArea_rsl0-rcl11-esl100-rsm0-rcm11-esm310-rsr0-rcr2-esr100,exr/ReadingArea_rsl0-rcl11-esl100-rsm0-rcm11-esm310-rsr0-rcr2-esr100.exr,ReadingArea_rsl0-rcl11-esl100-rsm0-rcm11-esm310-rsr0-rcr2-esr100.npz,,,,,0,63,63,73,,left,green,1.46,543.9935638904572,544.3444199562073,,1,,3,1,lightness,readingArea,realistic,75,2023-03-17_12h49.09.231,tripletExp_regina_11082022,2022.2.4,120.33544588883692,
2,12,6,0,0.25,0.298245614035088,0,0.027777777777778,3.10526315789474,0,0.027777777777778,1.0,ReadingArea_rsl0-rcl25-esl29-rsm0-rcm2-esm310-rsr0-rcr2-esr100,exr/ReadingArea_rsl0-rcl25-esl29-rsm0-rcm2-esm310-rsr0-rcr2-esr100.exr,ReadingArea_rsl0-rcl25-esl29-rsm0-rcm2-esm310-rsr0-rcr2-esr100.npz,,,,,0,64,64,400,,left,green,1.28,546.0630679130554,546.4243519306183,,1,,3,1,lightness,readingArea,realistic,75,2023-03-17_12h49.09.231,tripletExp_regina_11082022,2022.2.4,120.33544588883692,
14,10,5,0,0.25,3.10526315789474,0,0.694444444444444,1.0,0,1.0,0.298245614035088,ReadingArea_rsl0-rcl25-esl310-rsm0-rcm69-esm100-rsr0-rcr100-esr29,exr/ReadingArea_rsl0-rcl25-esl310-rsm0-rcm69-esm100-rsr0-rcr100-esr29.exr,ReadingArea_rsl0-rcl25-esl310-rsm0-rcm69-esm100-rsr0-rcr100-esr29.npz,,,,,0,65,65,96,,left,green,3.9,551.6844298839569,552.0470678806305,,1,,3,1,lightness,readingArea,realistic,75,2023-03-17_12h49.09.231,tripletExp_regina_11082022,2022.2.4,120.33544588883692,
8,6,5,0,0.25,1.0,0,0.027777777777778,1.0,0,1.0,0.298245614035088,ReadingArea_rsl0-rcl25-esl100-rsm0-rcm2-esm100-rsr0-rcr100-esr29,exr/ReadingArea_rsl0-rcl25-esl100-rsm0-rcm2-esm100-rsr0-rcr100-esr29.exr,ReadingArea_rsl0-rcl25-esl100-rsm0-rcm2-esm100-rsr0-rcr100-esr29.npz,,,,,0,66,66,241,,left,green,4.51,557.329274892807,,,1,,3,1,lightness,readingArea,realistic,75,2023-03-17_12h49.09.231,tripletExp_regina_11082022,2022.2.4,120.33544588883692,
12,11,6,0,0.027777777777778,3.10526315789474,0,1.0,1.0,0,0.027777777777778,1.0,ReadingArea_rsl0-rcl2-esl310-rsm0-rcm100-esm100-rsr0-rcr2-esr100,exr/ReadingArea_rsl0-rcl2-esl310-rsm0-rcm100-esm100-rsr0-rcr2-esr100.exr,ReadingArea_rsl0-rcl2-esl310-rsm0-rcm100-esm100-rsr0-rcr2-esr100.npz,,,,,0,67,67,163,,left,green,2.2,561.2633459568024,,,1,,3,1,lightness,readingArea,realistic,75,2023-03-17_12h49.09.231,tripletExp_regina_11082022,2022.2.4,120.33544588883692,
7,13,12,0,0.111111111111111,1.0,0,0.111111111111111,3.10526315789474,0,0.027777777777778,3.10526315789474,ReadingArea_rsl0-rcl11-esl100-rsm0-rcm11-esm310-rsr0-rcr2-esr310,exr/ReadingArea_rsl0-rcl11-esl100-rsm0-rcm11-esm310-rsr0-rcr2-esr310.exr,ReadingArea_rsl0-rcl11-esl100-rsm0-rcm11-esm310-rsr0-rcr2-esr310.npz,,,,,0,68,68,438,,left,green,2.73,565.0861158370972,565.4247159957886,,1,,3,1,lightness,readingArea,realistic,75,2023-03-17_12h49.09.231,tripletExp_regina_11082022,2022.2.4,120.33544588883692,
12,6,7,0,0.027777777777778,3.10526315789474,0,0.027777777777778,1.0,0,0.111111111111111,1.0,ReadingArea_rsl0-rcl2-esl310-rsm0-rcm2-esm100-rsr0-rcr11-esr100,exr/ReadingArea_rsl0-rcl2-esl310-rsm0-rcm2-esm100-rsr0-rcr11-esr100.exr,ReadingArea_rsl0-rcl2-esl310-rsm0-rcm2-esm100-rsr0-rcr11-esr100.npz,,,,,0,69,69,308,,right,red,2.62,568.9077599048615,569.2603628635406,,1,,3,1,lightness,readingArea,realistic,75,2023-03-17_12h49.09.231,tripletExp_regina_11082022,2022.2.4,120.33544588883692,
9,3,0,0,0.444444444444444,1.0,0,0.444444444444444,0.298245614035088,0,0.027777777777778,0.298245614035088,ReadingArea_rsl0-rcl44-esl100-rsm0-rcm44-esm29-rsr0-rcr2-esr29,exr/ReadingArea_rsl0-rcl44-esl100-rsm0-rcm44-esm29-rsr0-rcr2-esr29.exr,ReadingArea_rsl0-rcl44-esl100-rsm0-rcm44-esm29-rsr0-rcr2-esr29.npz,,,,,0,70,70,120,,left,green,3.88,574.4959008693695,574.8487508296967,,1,,3,1,lightness,readingArea,realistic,75,2023-03-17_12h49.09.231,tripletExp_regina_11082022,2022.2.4,120.33544588883692,
4,12,5,0,0.694444444444444,0.298245614035088,0,0.027777777777778,3.10526315789474,0,1.0,0.298245614035088,ReadingArea_rsl0-rcl69-esl29-rsm0-rcm2-esm310-rsr0-rcr100-esr29,exr/ReadingArea_rsl0-rcl69-esl29-rsm0-rcm2-esm310-rsr0-rcr100-esr29.exr,ReadingArea_rsl0-rcl69-esl29-rsm0-rcm2-esm310-rsr0-rcr100-esr29.npz,,,,,0,71,71,296,,left,green,4.59,580.1060149669647,580.5580668449402,,1,,3,1,lightness,readingArea,realistic,75,2023-03-17_12h49.09.231,tripletExp_regina_11082022,2022.2.4,120.33544588883692,
4,7,1,0,0.694444444444444,0.298245614035088,0,0.111111111111111,1.0,0,0.111111111111111,0.298245614035088,ReadingArea_rsl0-rcl69-esl29-rsm0-rcm11-esm100-rsr0-rcr11-esr29,exr/ReadingArea_rsl0-rcl69-esl29-rsm0-rcm11-esm100-rsr0-rcr11-esr29.exr,ReadingArea_rsl0-rcl69-esl29-rsm0-rcm11-esm100-rsr0-rcr11-esr29.npz,,,,,0,72,72,33,,left,green,2.56,584.0551059246063,584.4046740531921,,1,,3,1,lightness,readingArea,realistic,75,2023-03-17_12h49.09.231,tripletExp_regina_11082022,2022.2.4,120.33544588883692,
13,7,11,0,0.111111111111111,3.10526315789474,0,0.111111111111111,1.0,0,1.0,1.0,ReadingArea_rsl0-rcl11-esl310-rsm0-rcm11-esm100-rsr0-rcr100-esr100,exr/ReadingArea_rsl0-rcl11-esl310-rsm0-rcm11-esm100-rsr0-rcr100-esr100.exr,ReadingArea_rsl0-rcl11-esl310-rsm0-rcm11-esm100-rsr0-rcr100-esr100.npz,,,,,0,73,73,121,,left,green,2.07,587.8673529624939,,,1,,3,1,lightness,readingArea,realistic,75,2023-03-17_12h49.09.231,tripletExp_regina_11082022,2022.2.4,120.33544588883692,
13,11,10,0,0.111111111111111,3.10526315789474,0,1.0,1.0,0,0.694444444444444,1.0,ReadingArea_rsl0-rcl11-esl310-rsm0-rcm100-esm100-rsr0-rcr69-esr100,exr/ReadingArea_rsl0-rcl11-esl310-rsm0-rcm100-esm100-rsr0-rcr69-esr100.exr,ReadingArea_rsl0-rcl11-esl310-rsm0-rcm100-esm100-rsr0-rcr69-esr100.npz,,,,,0,74,74,577,,right,red,2.39,591.6981220245361,591.9003398418427,,1,,3,1,lightness,readingArea,realistic,75,2023-03-17_12h49.09.231,tripletExp_regina_11082022,2022.2.4,120.33544588883692,
3,12,4,0,0.444444444444444,0.298245614035088,0,0.027777777777778,3.10526315789474,0,0.694444444444444,0.298245614035088,ReadingArea_rsl0-rcl44-esl29-rsm0-rcm2-esm310-rsr0-rcr69-esr29,exr/ReadingArea_rsl0-rcl44-esl29-rsm0-rcm2-esm310-rsr0-rcr69-esr29.exr,ReadingArea_rsl0-rcl44-esl29-rsm0-rcm2-esm310-rsr0-rcr69-esr29.npz,,,,,0,75,75,426,,left,green,1.37,627.6423718929291,628.091817855835,,2,,3,1,lightness,readingArea,realistic,75,2023-03-17_12h49.09.231,tripletExp_regina_11082022,2022.2.4,120.33544588883692,
4,7,10,0,0.694444444444444,0.298245614035088,0,0.111111111111111,1.0,0,0.694444444444444,1.0,ReadingArea_rsl0-rcl69-esl29-rsm0-rcm11-esm100-rsr0-rcr69-esr100,exr/ReadingArea_rsl0-rcl69-esl29-rsm0-rcm11-esm100-rsr0-rcr69-esr100.exr,ReadingArea_rsl0-rcl69-esl29-rsm0-rcm11-esm100-rsr0-rcr69-esr100.npz,,,,,0,76,76,8,,left,green,1.37,629.7979190349579,630.1476490497589,,2,,3,1,lightness,readingArea,realistic,75,2023-03-17_12h49.09.231,tripletExp_regina_11082022,2022.2.4,120.33544588883692,
13,3,14,0,0.111111111111111,3.10526315789474,0,0.444444444444444,0.298245614035088,0,0.25,3.10526315789474,ReadingArea_rsl0-rcl11-esl310-rsm0-rcm44-esm29-rsr0-rcr25-esr310,exr/ReadingArea_rsl0-rcl11-esl310-rsm0-rcm44-esm29-rsr0-rcr25-esr310.exr,ReadingArea_rsl0-rcl11-esl310-rsm0-rcm44-esm29-rsr0-rcr25-esr310.npz,,,,,0,77,77,38,,left,green,1.15,631.8540389537811,632.2566268444061,,2,,3,1,lightness,readingArea,realistic,75,2023-03-17_12h49.09.231,tripletExp_regina_11082022,2022.2.4,120.33544588883692,
3,13,12,0,0.444444444444444,0.298245614035088,0,0.111111111111111,3.10526315789474,0,0.027777777777778,3.10526315789474,ReadingArea_rsl0-rcl44-esl29-rsm0-rcm11-esm310-rsr0-rcr2-esr310,exr/ReadingArea_rsl0-rcl44-esl29-rsm0-rcm11-esm310-rsr0-rcr2-esr310.exr,ReadingArea_rsl0-rcl44-esl29-rsm0-rcm11-esm310-rsr0-rcr2-esr310.npz,,,,,0,78,78,34,,left,green,1.19,633.9531269073486,634.3077478408813,,2,,3,1,lightness,readingArea,realistic,75,2023-03-17_12h49.09.231,tripletExp_regina_11082022,2022.2.4,120.33544588883692,
10,4,9,0,0.694444444444444,1.0,0,0.694444444444444,0.298245614035088,0,0.444444444444444,1.0,ReadingArea_rsl0-rcl69-esl100-rsm0-rcm69-esm29-rsr0-rcr44-esr100,exr/ReadingArea_rsl0-rcl69-esl100-rsm0-rcm69-esm29-rsr0-rcr44-esr100.exr,ReadingArea_rsl0-rcl69-esl100-rsm0-rcm69-esm29-rsr0-rcr44-esr100.npz,,,,,0,79,79,452,,right,red,1.44,636.0083620548248,,,2,,3,1,lightness,readingArea,realistic,75,2023-03-17_12h49.09.231,tripletExp_regina_11082022,2022.2.4,120.33544588883692,
14,10,13,0,0.25,3.10526315789474,0,0.694444444444444,1.0,0,0.111111111111111,3.10526315789474,ReadingArea_rsl0-rcl25-esl310-rsm0-rcm69-esm100-rsr0-rcr11-esr310,exr/ReadingArea_rsl0-rcl25-esl310-rsm0-rcm69-esm100-rsr0-rcr11-esr310.exr,ReadingArea_rsl0-rcl25-esl310-rsm0-rcm69-esm100-rsr0-rcr11-esr310.npz,,,,,0,80,80,204,,left,green,1.1,638.0568268299103,638.4047758579254,,2,,3,1,lightness,readingArea,realistic,75,2023-03-17_12h49.09.231,tripletExp_regina_11082022,2022.2.4,120.33544588883692,
0,10,14,0,0.027777777777778,0.298245614035088,0,0.694444444444444,1.0,0,0.25,3.10526315789474,ReadingArea_rsl0-rcl2-esl29-rsm0-rcm69-esm100-rsr0-rcr25-esr310,exr/ReadingArea_rsl0-rcl2-esl29-rsm0-rcm69-esm100-rsr0-rcr25-esr310.exr,ReadingArea_rsl0-rcl2-esl29-rsm0-rcm69-esm100-rsr0-rcr25-esr310.npz,,,,,0,81,81,31,,right,red,1.08,640.1276738643646,640.4857239723206,,2,,3,1,lightness,readingArea,realistic,75,2023-03-17_12h49.09.231,tripletExp_regina_11082022,2022.2.4,120.33544588883692,
7,6,11,0,0.111111111111111,1.0,0,0.027777777777778,1.0,0,1.0,1.0,ReadingArea_rsl0-rcl11-esl100-rsm0-rcm2-esm100-rsr0-rcr100-esr100,exr/ReadingArea_rsl0-rcl11-esl100-rsm0-rcm2-esm100-rsr0-rcr100-esr100.exr,ReadingArea_rsl0-rcl11-esl100-rsm0-rcm2-esm100-rsr0-rcr100-esr100.npz,,,,,0,82,82,84,,left,green,1.31,642.2032248973846,642.5586669445038,,2,,3,1,lightness,readingArea,realistic,75,2023-03-17_12h49.09.231,tripletExp_regina_11082022,2022.2.4,120.33544588883692,
13,12,11,0,0.111111111111111,3.10526315789474,0,0.027777777777778,3.10526315789474,0,1.0,1.0,ReadingArea_rsl0-rcl11-esl310-rsm0-rcm2-esm310-rsr0-rcr100-esr100,exr/ReadingArea_rsl0-rcl11-esl310-rsm0-rcm2-esm310-rsr0-rcr100-esr100.exr,ReadingArea_rsl0-rcl11-esl310-rsm0-rcm2-esm310-rsr0-rcr100-esr100.npz,,,,,0,83,83,441,,left,green,2.45,646.055685043335,646.4078619480133,,2,,3,1,lightness,readingArea,realistic,75,2023-03-17_12h49.09.231,tripletExp_regina_11082022,2022.2.4,120.33544588883692,
12,9,13,0,0.027777777777778,3.10526315789474,0,0.444444444444444,1.0,0,0.111111111111111,3.10526315789474,ReadingArea_rsl0-rcl2-esl310-rsm0-rcm44-esm100-rsr0-rcr11-esr310,exr/ReadingArea_rsl0-rcl2-esl310-rsm0-rcm44-esm100-rsr0-rcr11-esr310.exr,ReadingArea_rsl0-rcl2-esl310-rsm0-rcm44-esm100-rsr0-rcr11-esr310.npz,,,,,0,84,84,529,,right,red,1.02,648.1021468639374,,,2,,3,1,lightness,readingArea,realistic,75,2023-03-17_12h49.09.231,tripletExp_regina_11082022,2022.2.4,120.33544588883692,
1,7,8,0,0.111111111111111,0.298245614035088,0,0.111111111111111,1.0,0,0.25,1.0,ReadingArea_rsl0-rcl11-esl29-rsm0-rcm11-esm100-rsr0-rcr25-esr100,exr/ReadingArea_rsl0-rcl11-esl29-rsm0-rcm11-esm100-rsr0-rcr25-esr100.exr,ReadingArea_rsl0-rcl11-esl29-rsm0-rcm11-esm100-rsr0-rcr25-esr100.npz,,,,,0,85,85,260,,right,red,1.15,650.1528148651123,,,2,,3,1,lightness,readingArea,realistic,75,2023-03-17_12h49.09.231,tripletExp_regina_11082022,2022.2.4,120.33544588883692,
1,2,12,0,0.111111111111111,0.298245614035088,0,0.25,0.298245614035088,0,0.027777777777778,3.10526315789474,ReadingArea_rsl0-rcl11-esl29-rsm0-rcm25-esm29-rsr0-rcr2-esr310,exr/ReadingArea_rsl0-rcl11-esl29-rsm0-rcm25-esm29-rsr0-rcr2-esr310.exr,ReadingArea_rsl0-rcl11-esl29-rsm0-rcm25-esm29-rsr0-rcr2-esr310.npz,,,,,0,86,86,229,,right,red,1.39,652.2230360507965,652.6145868301392,,2,,3,1,lightness,readingArea,realistic,75,2023-03-17_12h49.09.231,tripletExp_regina_11082022,2022.2.4,120.33544588883692,
1,12,11,0,0.111111111111111,0.298245614035088,0,0.027777777777778,3.10526315789474,0,1.0,1.0,ReadingArea_rsl0-rcl11-esl29-rsm0-rcm2-esm310-rsr0-rcr100-esr100,exr/ReadingArea_rsl0-rcl11-esl29-rsm0-rcm2-esm310-rsr0-rcr100-esr100.exr,ReadingArea_rsl0-rcl11-esl29-rsm0-rcm2-esm310-rsr0-rcr100-esr100.npz,,,,,0,87,87,178,,left,green,3.91,657.8579318523407,658.2915639877319,,2,,3,1,lightness,readingArea,realistic,75,2023-03-17_12h49.09.231,tripletExp_regina_11082022,2022.2.4,120.33544588883692,
6,7,3,0,0.027777777777778,1.0,0,0.111111111111111,1.0,0,0.444444444444444,0.298245614035088,ReadingArea_rsl0-rcl2-esl100-rsm0-rcm11-esm100-rsr0-rcr44-esr29,exr/ReadingArea_rsl0-rcl2-esl100-rsm0-rcm11-esm100-rsr0-rcr44-esr29.exr,ReadingArea_rsl0-rcl2-esl100-rsm0-rcm11-esm100-rsr0-rcr44-esr29.npz,,,,,0,88,88,47,,right,red,0.82,659.9878170490265,660.3561289310455,,2,,3,1,lightness,readingArea,realistic,75,2023-03-17_12h49.09.231,tripletExp_regina_11082022,2022.2.4,120.33544588883692,
2,13,3,0,0.25,0.298245614035088,0,0.111111111111111,3.10526315789474,0,0.444444444444444,0.298245614035088,ReadingArea_rsl0-rcl25-esl29-rsm0-rcm11-esm310-rsr0-rcr44-esr29,exr/ReadingArea_rsl0-rcl25-esl29-rsm0-rcm11-esm310-rsr0-rcr44-esr29.exr,ReadingArea_rsl0-rcl25-esl29-rsm0-rcm11-esm310-rsr0-rcr44-esr29.npz,,,,,0,89,89,473,,right,red,2.45,663.8181028366089,664.2148609161377,,2,,3,1,lightness,readingArea,realistic,75,2023-03-17_12h49.09.231,tripletExp_regina_11082022,2022.2.4,120.33544588883692,
14,12,10,0,0.25,3.10526315789474,0,0.027777777777778,3.10526315789474,0,0.694444444444444,1.0,ReadingArea_rsl0-rcl25-esl310-rsm0-rcm2-esm310-rsr0-rcr69-esr100,exr/ReadingArea_rsl0-rcl25-esl310-rsm0-rcm2-esm310-rsr0-rcr69-esr100.exr,ReadingArea_rsl0-rcl25-esl310-rsm0-rcm2-esm310-rsr0-rcr69-esr100.npz,,,,,0,90,90,331,,right,red,4.55,669.4310648441315,670.0752489566803,,2,,3,1,lightness,readingArea,realistic,75,2023-03-17_12h49.09.231,tripletExp_regina_11082022,2022.2.4,120.33544588883692,
9,12,0,0,0.444444444444444,1.0,0,0.027777777777778,3.10526315789474,0,0.027777777777778,0.298245614035088,ReadingArea_rsl0-rcl44-esl100-rsm0-rcm2-esm310-rsr0-rcr2-esr29,exr/ReadingArea_rsl0-rcl44-esl100-rsm0-rcm2-esm310-rsr0-rcr2-esr29.exr,ReadingArea_rsl0-rcl44-esl100-rsm0-rcm2-esm310-rsr0-rcr2-esr29.npz,,,,,0,91,91,175,,,red,4.55,675.3026859760284,675.7164869308472,,2,674.7963338613511,3,1,lightness,readingArea,realistic,75,2023-03-17_12h49.09.231,tripletExp_regina_11082022,2022.2.4,120.33544588883692,
8,4,1,0,0.25,1.0,0,0.694444444444444,0.298245614035088,0,0.111111111111111,0.298245614035088,ReadingArea_rsl0-rcl25-esl100-rsm0-rcm69-esm29-rsr0-rcr11-esr29,exr/ReadingArea_rsl0-rcl25-esl100-rsm0-rcm69-esm29-rsr0-rcr11-esr29.exr,ReadingArea_rsl0-rcl25-esl100-rsm0-rcm69-esm29-rsr0-rcr11-esr29.npz,,,,,0,92,92,286,,left,green,1.06,677.4324200153351,677.7865929603577,,2,,3,1,lightness,readingArea,realistic,75,2023-03-17_12h49.09.231,tripletExp_regina_11082022,2022.2.4,120.33544588883692,
14,11,4,0,0.25,3.10526315789474,0,1.0,1.0,0,0.694444444444444,0.298245614035088,ReadingArea_rsl0-rcl25-esl310-rsm0-rcm100-esm100-rsr0-rcr69-esr29,exr/ReadingArea_rsl0-rcl25-esl310-rsm0-rcm100-esm100-rsr0-rcr69-esr29.exr,ReadingArea_rsl0-rcl25-esl310-rsm0-rcm100-esm100-rsr0-rcr69-esr29.npz,,,,,0,93,93,370,,left,green,1.26,679.482766866684,679.9298579692841,,2,,3,1,lightness,readingArea,realistic,75,2023-03-17_12h49.09.231,tripletExp_regina_11082022,2022.2.4,120.33544588883692,
1,9,8,0,0.111111111111111,0.298245614035088,0,0.444444444444444,1.0,0,0.25,1.0,ReadingArea_rsl0-rcl11-esl29-rsm0-rcm44-esm100-rsr0-rcr25-esr100,exr/ReadingArea_rsl0-rcl11-esl29-rsm0-rcm44-esm100-rsr0-rcr25-esr100.exr,ReadingArea_rsl0-rcl11-esl29-rsm0-rcm44-esm100-rsr0-rcr25-esr100.npz,,,,,0,94,94,268,,right,red,1.25,681.6336178779602,681.990592956543,,2,,3,1,lightness,readingArea,realistic,75,2023-03-17_12h49.09.231,tripletExp_regina_11082022,2022.2.4,120.33544588883692,
4,9,13,0,0.694444444444444,0.298245614035088,0,0.444444444444444,1.0,0,0.111111111111111,3.10526315789474,ReadingArea_rsl0-rcl69-esl29-rsm0-rcm44-esm100-rsr0-rcr11-esr310,exr/ReadingArea_rsl0-rcl69-esl29-rsm0-rcm44-esm100-rsr0-rcr11-esr310.exr,ReadingArea_rsl0-rcl69-esl29-rsm0-rcm44-esm100-rsr0-rcr11-esr310.npz,,,,,0,95,95,488,,right,red,3.93,687.2101159095764,687.5688860416412,,2,,3,1,lightness,readingArea,realistic,75,2023-03-17_12h49.09.231,tripletExp_regina_11082022,2022.2.4,120.33544588883692,
11,12,4,0,1.0,1.0,0,0.027777777777778,3.10526315789474,0,0.694444444444444,0.298245614035088,ReadingArea_rsl0-rcl100-esl100-rsm0-rcm2-esm310-rsr0-rcr69-esr29,exr/ReadingArea_rsl0-rcl100-esl100-rsm0-rcm2-esm310-rsr0-rcr69-esr29.exr,ReadingArea_rsl0-rcl100-esl100-rsm0-rcm2-esm310-rsr0-rcr69-esr29.npz,,,,,0,96,96,250,,right,red,1.31,689.2663168907166,689.6182918548584,,2,,3,1,lightness,readingArea,realistic,75,2023-03-17_12h49.09.231,tripletExp_regina_11082022,2022.2.4,120.33544588883692,
12,7,9,0,0.027777777777778,3.10526315789474,0,0.111111111111111,1.0,0,0.444444444444444,1.0,ReadingArea_rsl0-rcl2-esl310-rsm0-rcm11-esm100-rsr0-rcr44-esr100,exr/ReadingArea_rsl0-rcl2-esl310-rsm0-rcm11-esm100-rsr0-rcr44-esr100.exr,ReadingArea_rsl0-rcl2-esl310-rsm0-rcm11-esm100-rsr0-rcr44-esr100.npz,,,,,0,97,97,124,,left,green,0.96,691.3152139186859,691.6677148342133,,2,,3,1,lightness,readingArea,realistic,75,2023-03-17_12h49.09.231,tripletExp_regina_11082022,2022.2.4,120.33544588883692,
12,14,4,0,0.027777777777778,3.10526315789474,0,0.25,3.10526315789474,0,0.694444444444444,0.298245614035088,ReadingArea_rsl0-rcl2-esl310-rsm0-rcm25-esm310-rsr0-rcr69-esr29,exr/ReadingArea_rsl0-rcl2-esl310-rsm0-rcm25-esm310-rsr0-rcr69-esr29.exr,ReadingArea_rsl0-rcl2-esl310-rsm0-rcm25-esm310-rsr0-rcr69-esr29.npz,,,,,0,98,98,315,,right,red,1.0,693.3748469352722,693.717043876648,,2,,3,1,lightness,readingArea,realistic,75,2023-03-17_12h49.09.231,tripletExp_regina_11082022,2022.2.4,120.33544588883692,
14,7,1,0,0.25,3.10526315789474,0,0.111111111111111,1.0,0,0.111111111111111,0.298245614035088,ReadingArea_rsl0-rcl25-esl310-rsm0-rcm11-esm100-rsr0-rcr11-esr29,exr/ReadingArea_rsl0-rcl25-esl310-rsm0-rcm11-esm100-rsr0-rcr11-esr29.exr,ReadingArea_rsl0-rcl25-esl310-rsm0-rcm11-esm100-rsr0-rcr11-esr29.npz,,,,,0,99,99,298,,right,red,1.45,695.4277648925781,695.7856760025024,,2,,3,1,lightness,readingArea,realistic,75,2023-03-17_12h49.09.231,tripletExp_regina_11082022,2022.2.4,120.33544588883692,
9,0,14,0,0.444444444444444,1.0,0,0.027777777777778,0.298245614035088,0,0.25,3.10526315789474,ReadingArea_rsl0-rcl44-esl100-rsm0-rcm2-esm29-rsr0-rcr25-esr310,exr/ReadingArea_rsl0-rcl44-esl100-rsm0-rcm2-esm29-rsr0-rcr25-esr310.exr,ReadingArea_rsl0-rcl44-esl100-rsm0-rcm2-esm29-rsr0-rcr25-esr310.npz,,,,,0,100,100,550,,left,green,2.5,699.2772738933563,699.6481039524078,,2,,3,1,lightness,readingArea,realistic,75,2023-03-17_12h49.09.231,tripletExp_regina_11082022,2022.2.4,120.33544588883692,
10,11,9,0,0.694444444444444,1.0,0,1.0,1.0,0,0.444444444444444,1.0,ReadingArea_rsl0-rcl69-esl100-rsm0-rcm100-esm100-rsr0-rcr44-esr100,exr/ReadingArea_rsl0-rcl69-esl100-rsm0-rcm100-esm100-rsr0-rcr44-esr100.exr,ReadingArea_rsl0-rcl69-esl100-rsm0-rcm100-esm100-rsr0-rcr44-esr100.npz,,,,,0,101,101,492,,left,green,1.12,701.3708779811859,701.7403168678284,,2,,3,1,lightness,readingArea,realistic,75,2023-03-17_12h49.09.231,tripletExp_regina_11082022,2022.2.4,120.33544588883692,
6,5,11,0,0.027777777777778,1.0,0,1.0,0.298245614035088,0,1.0,1.0,ReadingArea_rsl0-rcl2-esl100-rsm0-rcm100-esm29-rsr0-rcr100-esr100,exr/ReadingArea_rsl0-rcl2-esl100-rsm0-rcm100-esm29-rsr0-rcr100-esr100.exr,ReadingArea_rsl0-rcl2-esl100-rsm0-rcm100-esm29-rsr0-rcr100-esr100.npz,,,,,0,102,102,289,,right,red,2.38,705.2130069732666,705.6713328361511,,2,,3,1,lightness,readingArea,realistic,75,2023-03-17_12h49.09.231,tripletExp_regina_11082022,2022.2.4,120.33544588883692,
10,5,1,0,0.694444444444444,1.0,0,1.0,0.298245614035088,0,0.111111111111111,0.298245614035088,ReadingArea_rsl0-rcl69-esl100-rsm0-rcm100-esm29-rsr0-rcr11-esr29,exr/ReadingArea_rsl0-rcl69-esl100-rsm0-rcm100-esm29-rsr0-rcr11-esr29.exr,ReadingArea_rsl0-rcl69-esl100-rsm0-rcm100-esm29-rsr0-rcr11-esr29.npz,,,,,0,103,103,152,,left,green,0.9,707.3604650497437,707.7135109901428,,2,,3,1,lightness,readingArea,realistic,75,2023-03-17_12h49.09.231,tripletExp_regina_11082022,2022.2.4,120.33544588883692,
0,14,10,0,0.027777777777778,0.298245614035088,0,0.25,3.10526315789474,0,0.694444444444444,1.0,ReadingArea_rsl0-rcl2-esl29-rsm0-rcm25-esm310-rsr0-rcr69-esr100,exr/ReadingArea_rsl0-rcl2-esl29-rsm0-rcm25-esm310-rsr0-rcr69-esr100.exr,ReadingArea_rsl0-rcl2-esl29-rsm0-rcm25-esm310-rsr0-rcr69-esr100.npz,,,,,0,104,104,128,,right,red,0.8,709.417690038681,709.7720868587494,,2,,3,1,lightness,readingArea,realistic,75,2023-03-17_12h49.09.231,tripletExp_regina_11082022,2022.2.4,120.33544588883692,
3,4,5,0,0.444444444444444,0.298245614035088,0,0.694444444444444,0.298245614035088,0,1.0,0.298245614035088,ReadingArea_rsl0-rcl44-esl29-rsm0-rcm69-esm29-rsr0-rcr100-esr29,exr/ReadingArea_rsl0-rcl44-esl29-rsm0-rcm69-esm29-rsr0-rcr100-esr29.exr,ReadingArea_rsl0-rcl44-esl29-rsm0-rcm69-esm29-rsr0-rcr100-esr29.npz,,,,,0,105,105,233,,right,red,0.99,711.4750380516052,711.898206949234,,2,,3,1,lightness,readingArea,realistic,75,2023-03-17_12h49.09.231,tripletExp_regina_11082022,2022.2.4,120.33544588883692,
12,1,2,0,0.027777777777778,3.10526315789474,0,0.111111111111111,0.298245614035088,0,0.25,0.298245614035088,ReadingArea_rsl0-rcl2-esl310-rsm0-rcm11-esm29-rsr0-rcr25-esr29,exr/ReadingArea_rsl0-rcl2-esl310-rsm0-rcm11-esm29-rsr0-rcr25-esr29.exr,ReadingArea_rsl0-rcl2-esl310-rsm0-rcm11-esm29-rsr0-rcr25-esr29.npz,,,,,0,106,106,231,,right,red,2.57,715.3623080253601,715.7168369293213,,2,,3,1,lightness,readingArea,realistic,75,2023-03-17_12h49.09.231,tripletExp_regina_11082022,2022.2.4,120.33544588883692,
7,0,2,0,0.111111111111111,1.0,0,0.027777777777778,0.298245614035088,0,0.25,0.298245614035088,ReadingArea_rsl0-rcl11-esl100-rsm0-rcm2-esm29-rsr0-rcr25-esr29,exr/ReadingArea_rsl0-rcl11-esl100-rsm0-rcm2-esm29-rsr0-rcr25-esr29.exr,ReadingArea_rsl0-rcl11-esl100-rsm0-rcm2-esm29-rsr0-rcr25-esr29.npz,,,,,0,107,107,347,,right,red,2.43,719.1980068683624,719.5543348789215,,2,,3,1,lightness,readingArea,realistic,75,2023-03-17_12h49.09.231,tripletExp_regina_11082022,2022.2.4,120.33544588883692,
2,10,6,0,0.25,0.298245614035088,0,0.694444444444444,1.0,0,0.027777777777778,1.0,ReadingArea_rsl0-rcl25-esl29-rsm0-rcm69-esm100-rsr0-rcr2-esr100,exr/ReadingArea_rsl0-rcl25-esl29-rsm0-rcm69-esm100-rsr0-rcr2-esr100.exr,ReadingArea_rsl0-rcl25-esl29-rsm0-rcm69-esm100-rsr0-rcr2-esr100.npz,,,,,0,108,108,4,,left,green,2.19,723.0127878189087,723.3634748458862,,2,,3,1,lightness,readingArea,realistic,75,2023-03-17_12h49.09.231,tripletExp_regina_11082022,2022.2.4,120.33544588883692,
10,2,0,0,0.694444444444444,1.0,0,0.25,0.298245614035088,0,0.027777777777778,0.298245614035088,ReadingArea_rsl0-rcl69-esl100-rsm0-rcm25-esm29-rsr0-rcr2-esr29,exr/ReadingArea_rsl0-rcl69-esl100-rsm0-rcm25-esm29-rsr0-rcr2-esr29.exr,ReadingArea_rsl0-rcl69-esl100-rsm0-rcm25-esm29-rsr0-rcr2-esr29.npz,,,,,0,109,109,427,,right,red,2.74,726.8401260375977,727.2336249351501,,2,,3,1,lightness,readingArea,realistic,75,2023-03-17_12h49.09.231,tripletExp_regina_11082022,2022.2.4,120.33544588883692,
3,14,5,0,0.444444444444444,0.298245614035088,0,0.25,3.10526315789474,0,1.0,0.298245614035088,ReadingArea_rsl0-rcl44-esl29-rsm0-rcm25-esm310-rsr0-rcr100-esr29,exr/ReadingArea_rsl0-rcl44-esl29-rsm0-rcm25-esm310-rsr0-rcr100-esr29.exr,ReadingArea_rsl0-rcl44-esl29-rsm0-rcm25-esm310-rsr0-rcr100-esr29.npz,,,,,0,110,110,131,,right,red,2.6,730.7333500385284,731.0880320072174,,2,,3,1,lightness,readingArea,realistic,75,2023-03-17_12h49.09.231,tripletExp_regina_11082022,2022.2.4,120.33544588883692,
2,14,1,0,0.25,0.298245614035088,0,0.25,3.10526315789474,0,0.111111111111111,0.298245614035088,ReadingArea_rsl0-rcl25-esl29-rsm0-rcm25-esm310-rsr0-rcr11-esr29,exr/ReadingArea_rsl0-rcl25-esl29-rsm0-rcm25-esm310-rsr0-rcr11-esr29.exr,ReadingArea_rsl0-rcl25-esl29-rsm0-rcm25-esm310-rsr0-rcr11-esr29.npz,,,,,0,111,111,579,,left,green,1.13,732.7821178436279,,,2,,3,1,lightness,readingArea,realistic,75,2023-03-17_12h49.09.231,tripletExp_regina_11082022,2022.2.4,120.33544588883692,
1,13,7,0,0.111111111111111,0.298245614035088,0,0.111111111111111,3.10526315789474,0,0.111111111111111,1.0,ReadingArea_rsl0-rcl11-esl29-rsm0-rcm11-esm310-rsr0-rcr11-esr100,exr/ReadingArea_rsl0-rcl11-esl29-rsm0-rcm11-esm310-rsr0-rcr11-esr100.exr,ReadingArea_rsl0-rcl11-esl29-rsm0-rcm11-esm310-rsr0-rcr11-esr100.npz,,,,,0,112,112,158,,right,red,1.47,734.8822319507599,,,2,,3,1,lightness,readingArea,realistic,75,2023-03-17_12h49.09.231,tripletExp_regina_11082022,2022.2.4,120.33544588883692,
10,6,8,0,0.694444444444444,1.0,0,0.027777777777778,1.0,0,0.25,1.0,ReadingArea_rsl0-rcl69-esl100-rsm0-rcm2-esm100-rsr0-rcr25-esr100,exr/ReadingArea_rsl0-rcl69-esl100-rsm0-rcm2-esm100-rsr0-rcr25-esr100.exr,ReadingArea_rsl0-rcl69-esl100-rsm0-rcm2-esm100-rsr0-rcr25-esr100.npz,,,,,0,113,113,145,,right,red,1.49,736.9535009860992,737.3029758930206,,2,,3,1,lightness,readingArea,realistic,75,2023-03-17_12h49.09.231,tripletExp_regina_11082022,2022.2.4,120.33544588883692,
5,2,8,0,1.0,0.298245614035088,0,0.25,0.298245614035088,0,0.25,1.0,ReadingArea_rsl0-rcl100-esl29-rsm0-rcm25-esm29-rsr0-rcr25-esr100,exr/ReadingArea_rsl0-rcl100-esl29-rsm0-rcm25-esm29-rsr0-rcr25-esr100.exr,ReadingArea_rsl0-rcl100-esl29-rsm0-rcm25-esm29-rsr0-rcr25-esr100.npz,,,,,0,114,114,538,,right,red,2.79,740.7720370292664,741.1245219707489,,2,,3,1,lightness,readingArea,realistic,75,2023-03-17_12h49.09.231,tripletExp_regina_11082022,2022.2.4,120.33544588883692,
7,9,5,0,0.111111111111111,1.0,0,0.444444444444444,1.0,0,1.0,0.298245614035088,ReadingArea_rsl0-rcl11-esl100-rsm0-rcm44-esm100-rsr0-rcr100-esr29,exr/ReadingArea_rsl0-rcl11-esl100-rsm0-rcm44-esm100-rsr0-rcr100-esr29.exr,ReadingArea_rsl0-rcl11-esl100-rsm0-rcm44-esm100-rsr0-rcr100-esr29.npz,,,,,0,115,115,291,,right,red,1.07,742.8243060112,743.1827349662781,,2,,3,1,lightness,readingArea,realistic,75,2023-03-17_12h49.09.231,tripletExp_regina_11082022,2022.2.4,120.33544588883692,
3,4,13,0,0.444444444444444,0.298245614035088,0,0.694444444444444,0.298245614035088,0,0.111111111111111,3.10526315789474,ReadingArea_rsl0-rcl44-esl29-rsm0-rcm69-esm29-rsr0-rcr11-esr310,exr/ReadingArea_rsl0-rcl44-esl29-rsm0-rcm69-esm29-rsr0-rcr11-esr310.exr,ReadingArea_rsl0-rcl44-esl29-rsm0-rcm69-esm29-rsr0-rcr11-esr310.npz,,,,,0,116,116,63,,right,red,1.05,744.8824858665466,745.2370920181274,,2,,3,1,lightness,readingArea,realistic,75,2023-03-17_12h49.09.231,tripletExp_regina_11082022,2022.2.4,120.33544588883692,
11,10,0,0,1.0,1.0,0,0.694444444444444,1.0,0,0.027777777777778,0.298245614035088,ReadingArea_rsl0-rcl100-esl100-rsm0-rcm69-esm100-rsr0-rcr2-esr29,exr/ReadingArea_rsl0-rcl100-esl100-rsm0-rcm69-esm100-rsr0-rcr2-esr29.exr,ReadingArea_rsl0-rcl100-esl100-rsm0-rcm69-esm100-rsr0-rcr2-esr29.npz,,,,,0,117,117,549,,left,green,0.81,746.943990945816,747.2984960079193,,2,,3,1,lightness,readingArea,realistic,75,2023-03-17_12h49.09.231,tripletExp_regina_11082022,2022.2.4,120.33544588883692,
14,1,13,0,0.25,3.10526315789474,0,0.111111111111111,0.298245614035088,0,0.111111111111111,3.10526315789474,ReadingArea_rsl0-rcl25-esl310-rsm0-rcm11-esm29-rsr0-rcr11-esr310,exr/ReadingArea_rsl0-rcl25-esl310-rsm0-rcm11-esm29-rsr0-rcr11-esr310.exr,ReadingArea_rsl0-rcl25-esl310-rsm0-rcm11-esm29-rsr0-rcr11-esr310.npz,,,,,0,118,118,265,,right,red,0.92,749.0098369121552,,,2,,3,1,lightness,readingArea,realistic,75,2023-03-17_12h49.09.231,tripletExp_regina_11082022,2022.2.4,120.33544588883692,
7,2,6,0,0.111111111111111,1.0,0,0.25,0.298245614035088,0,0.027777777777778,1.0,ReadingArea_rsl0-rcl11-esl100-rsm0-rcm25-esm29-rsr0-rcr2-esr100,exr/ReadingArea_rsl0-rcl11-esl100-rsm0-rcm25-esm29-rsr0-rcr2-esr100.exr,ReadingArea_rsl0-rcl11-esl100-rsm0-rcm25-esm29-rsr0-rcr2-esr100.npz,,,,,0,119,119,506,,left,green,0.77,751.0789909362793,751.5409419536591,,2,,3,1,lightness,readingArea,realistic,75,2023-03-17_12h49.09.231,tripletExp_regina_11082022,2022.2.4,120.33544588883692,
8,1,10,0,0.25,1.0,0,0.111111111111111,0.298245614035088,0,0.694444444444444,1.0,ReadingArea_rsl0-rcl25-esl100-rsm0-rcm11-esm29-rsr0-rcr69-esr100,exr/ReadingArea_rsl0-rcl25-esl100-rsm0-rcm11-esm29-rsr0-rcr69-esr100.exr,ReadingArea_rsl0-rcl25-esl100-rsm0-rcm11-esm29-rsr0-rcr69-esr100.npz,,,,,0,120,120,442,,left,green,0.99,753.2498550415039,753.6024098396301,,2,,3,1,lightness,readingArea,realistic,75,2023-03-17_12h49.09.231,tripletExp_regina_11082022,2022.2.4,120.33544588883692,
13,7,6,0,0.111111111111111,3.10526315789474,0,0.111111111111111,1.0,0,0.027777777777778,1.0,ReadingArea_rsl0-rcl11-esl310-rsm0-rcm11-esm100-rsr0-rcr2-esr100,exr/ReadingArea_rsl0-rcl11-esl310-rsm0-rcm11-esm100-rsr0-rcr2-esr100.exr,ReadingArea_rsl0-rcl11-esl310-rsm0-rcm11-esm100-rsr0-rcr2-esr100.npz,,,,,0,121,121,283,,left,green,2.74,757.089056968689,757.4508090019226,,2,,3,1,lightness,readingArea,realistic,75,2023-03-17_12h49.09.231,tripletExp_regina_11082022,2022.2.4,120.33544588883692,
14,7,8,0,0.25,3.10526315789474,0,0.111111111111111,1.0,0,0.25,1.0,ReadingArea_rsl0-rcl25-esl310-rsm0-rcm11-esm100-rsr0-rcr25-esr100,exr/ReadingArea_rsl0-rcl25-esl310-rsm0-rcm11-esm100-rsr0-rcr25-esr100.exr,ReadingArea_rsl0-rcl25-esl310-rsm0-rcm11-esm100-rsr0-rcr25-esr100.npz,,,,,0,122,122,326,,right,red,1.01,759.1542730331421,759.5128610134125,,2,,3,1,lightness,readingArea,realistic,75,2023-03-17_12h49.09.231,tripletExp_regina_11082022,2022.2.4,120.33544588883692,
13,8,5,0,0.111111111111111,3.10526315789474,0,0.25,1.0,0,1.0,0.298245614035088,ReadingArea_rsl0-rcl11-esl310-rsm0-rcm25-esm100-rsr0-rcr100-esr29,exr/ReadingArea_rsl0-rcl11-esl310-rsm0-rcm25-esm100-rsr0-rcr100-esr29.exr,ReadingArea_rsl0-rcl11-esl310-rsm0-rcm25-esm100-rsr0-rcr100-esr29.npz,,,,,0,123,123,209,,left,green,4.64,764.7914509773254,765.1510620117188,,2,,3,1,lightness,readingArea,realistic,75,2023-03-17_12h49.09.231,tripletExp_regina_11082022,2022.2.4,120.33544588883692,
9,6,1,0,0.444444444444444,1.0,0,0.027777777777778,1.0,0,0.111111111111111,0.298245614035088,ReadingArea_rsl0-rcl44-esl100-rsm0-rcm2-esm100-rsr0-rcr11-esr29,exr/ReadingArea_rsl0-rcl44-esl100-rsm0-rcm2-esm100-rsr0-rcr11-esr29.exr,ReadingArea_rsl0-rcl44-esl100-rsm0-rcm2-esm100-rsr0-rcr11-esr29.npz,,,,,0,124,124,526,,right,red,0.92,766.8503348827362,767.2019498348236,,2,,3,1,lightness,readingArea,realistic,75,2023-03-17_12h49.09.231,tripletExp_regina_11082022,2022.2.4,120.33544588883692,
1,14,7,0,0.111111111111111,0.298245614035088,0,0.25,3.10526315789474,0,0.111111111111111,1.0,ReadingArea_rsl0-rcl11-esl29-rsm0-rcm25-esm310-rsr0-rcr11-esr100,exr/ReadingArea_rsl0-rcl11-esl29-rsm0-rcm25-esm310-rsr0-rcr11-esr100.exr,ReadingArea_rsl0-rcl11-esl29-rsm0-rcm25-esm310-rsr0-rcr11-esr100.npz,,,,,0,125,125,583,,right,red,1.19,768.912446975708,,,2,,3,1,lightness,readingArea,realistic,75,2023-03-17_12h49.09.231,tripletExp_regina_11082022,2022.2.4,120.33544588883692,
0,9,10,0,0.027777777777778,0.298245614035088,0,0.444444444444444,1.0,0,0.694444444444444,1.0,ReadingArea_rsl0-rcl2-esl29-rsm0-rcm44-esm100-rsr0-rcr69-esr100,exr/ReadingArea_rsl0-rcl2-esl29-rsm0-rcm44-esm100-rsr0-rcr69-esr100.exr,ReadingArea_rsl0-rcl2-esl29-rsm0-rcm44-esm100-rsr0-rcr69-esr100.npz,,,,,0,126,126,434,,right,red,0.88,770.995237827301,771.3482689857483,,2,,3,1,lightness,readingArea,realistic,75,2023-03-17_12h49.09.231,tripletExp_regina_11082022,2022.2.4,120.33544588883692,
10,6,3,0,0.694444444444444,1.0,0,0.027777777777778,1.0,0,0.444444444444444,0.298245614035088,ReadingArea_rsl0-rcl69-esl100-rsm0-rcm2-esm100-rsr0-rcr44-esr29,exr/ReadingArea_rsl0-rcl69-esl100-rsm0-rcm2-esm100-rsr0-rcr44-esr29.exr,ReadingArea_rsl0-rcl69-esl100-rsm0-rcm2-esm100-rsr0-rcr44-esr29.npz,,,,,0,127,127,0,,right,red,2.25,774.8462798595428,775.1967158317566,,2,,3,1,lightness,readingArea,realistic,75,2023-03-17_12h49.09.231,tripletExp_regina_11082022,2022.2.4,120.33544588883692,
0,13,12,0,0.027777777777778,0.298245614035088,0,0.111111111111111,3.10526315789474,0,0.027777777777778,3.10526315789474,ReadingArea_rsl0-rcl2-esl29-rsm0-rcm11-esm310-rsr0-rcr2-esr310,exr/ReadingArea_rsl0-rcl2-esl29-rsm0-rcm11-esm310-rsr0-rcr2-esr310.exr,ReadingArea_rsl0-rcl2-esl29-rsm0-rcm11-esm310-rsr0-rcr2-esr310.npz,,,,,0,128,128,501,,right,red,0.94,776.9156470298767,777.2866399288177,,2,,3,1,lightness,readingArea,realistic,75,2023-03-17_12h49.09.231,tripletExp_regina_11082022,2022.2.4,120.33544588883692,
0,8,6,0,0.027777777777778,0.298245614035088,0,0.25,1.0,0,0.027777777777778,1.0,ReadingArea_rsl0-rcl2-esl29-rsm0-rcm25-esm100-rsr0-rcr2-esr100,exr/ReadingArea_rsl0-rcl2-esl29-rsm0-rcm25-esm100-rsr0-rcr2-esr100.exr,ReadingArea_rsl0-rcl2-esl29-rsm0-rcm25-esm100-rsr0-rcr2-esr100.npz,,,,,0,129,129,92,,right,red,1.3,778.9884238243103,779.3372688293457,,2,,3,1,lightness,readingArea,realistic,75,2023-03-17_12h49.09.231,tripletExp_regina_11082022,2022.2.4,120.33544588883692,
6,11,14,0,0.027777777777778,1.0,0,1.0,1.0,0,0.25,3.10526315789474,ReadingArea_rsl0-rcl2-esl100-rsm0-rcm100-esm100-rsr0-rcr25-esr310,exr/ReadingArea_rsl0-rcl2-esl100-rsm0-rcm100-esm100-rsr0-rcr25-esr310.exr,ReadingArea_rsl0-rcl2-esl100-rsm0-rcm100-esm100-rsr0-rcr25-esr310.npz,,,,,0,130,130,262,,right,red,1.28,781.053601026535,781.4014630317688,,2,,3,1,lightness,readingArea,realistic,75,2023-03-17_12h49.09.231,tripletExp_regina_11082022,2022.2.4,120.33544588883692,
2,3,9,0,0.25,0.298245614035088,0,0.444444444444444,0.298245614035088,0,0.444444444444444,1.0,ReadingArea_rsl0-rcl25-esl29-rsm0-rcm44-esm29-rsr0-rcr44-esr100,exr/ReadingArea_rsl0-rcl25-esl29-rsm0-rcm44-esm29-rsr0-rcr44-esr100.exr,ReadingArea_rsl0-rcl25-esl29-rsm0-rcm44-esm29-rsr0-rcr44-esr100.npz,,,,,0,131,131,190,,left,green,4.21,786.6766748428345,787.0393860340118,,2,,3,1,lightness,readingArea,realistic,75,2023-03-17_12h49.09.231,tripletExp_regina_11082022,2022.2.4,120.33544588883692,
9,11,3,0,0.444444444444444,1.0,0,1.0,1.0,0,0.444444444444444,0.298245614035088,ReadingArea_rsl0-rcl44-esl100-rsm0-rcm100-esm100-rsr0-rcr44-esr29,exr/ReadingArea_rsl0-rcl44-esl100-rsm0-rcm100-esm100-rsr0-rcr44-esr29.exr,ReadingArea_rsl0-rcl44-esl100-rsm0-rcm100-esm100-rsr0-rcr44-esr29.npz,,,,,0,132,132,348,,left,green,1.05,788.7414109706879,789.2069849967957,,2,,3,1,lightness,readingArea,realistic,75,2023-03-17_12h49.09.231,tripletExp_regina_11082022,2022.2.4,120.33544588883692,
4,1,13,0,0.694444444444444,0.298245614035088,0,0.111111111111111,0.298245614035088,0,0.111111111111111,3.10526315789474,ReadingArea_rsl0-rcl69-esl29-rsm0-rcm11-esm29-rsr0-rcr11-esr310,exr/ReadingArea_rsl0-rcl69-esl29-rsm0-rcm11-esm29-rsr0-rcr11-esr310.exr,ReadingArea_rsl0-rcl69-esl29-rsm0-rcm11-esm29-rsr0-rcr11-esr310.npz,,,,,0,133,133,565,,left,green,3.91,794.4134588241577,794.7673518657684,,2,,3,1,lightness,readingArea,realistic,75,2023-03-17_12h49.09.231,tripletExp_regina_11082022,2022.2.4,120.33544588883692,
10,12,11,0,0.694444444444444,1.0,0,0.027777777777778,3.10526315789474,0,1.0,1.0,ReadingArea_rsl0-rcl69-esl100-rsm0-rcm2-esm310-rsr0-rcr100-esr100,exr/ReadingArea_rsl0-rcl69-esl100-rsm0-rcm2-esm310-rsr0-rcr100-esr100.exr,ReadingArea_rsl0-rcl69-esl100-rsm0-rcm2-esm310-rsr0-rcr100-esr100.npz,,,,,0,134,134,317,,left,green,2.77,798.224310874939,798.5744099617004,,2,,3,1,lightness,readingArea,realistic,75,2023-03-17_12h49.09.231,tripletExp_regina_11082022,2022.2.4,120.33544588883692,
12,6,14,0,0.027777777777778,3.10526315789474,0,0.027777777777778,1.0,0,0.25,3.10526315789474,ReadingArea_rsl0-rcl2-esl310-rsm0-rcm2-esm100-rsr0-rcr25-esr310,exr/ReadingArea_rsl0-rcl2-esl310-rsm0-rcm2-esm100-rsr0-rcr25-esr310.exr,ReadingArea_rsl0-rcl2-esl310-rsm0-rcm2-esm100-rsr0-rcr25-esr310.npz,,,,,0,135,135,218,,left,green,0.85,800.2925448417664,,,2,,3,1,lightness,readingArea,realistic,75,2023-03-17_12h49.09.231,tripletExp_regina_11082022,2022.2.4,120.33544588883692,
7,12,0,0,0.111111111111111,1.0,0,0.027777777777778,3.10526315789474,0,0.027777777777778,0.298245614035088,ReadingArea_rsl0-rcl11-esl100-rsm0-rcm2-esm310-rsr0-rcr2-esr29,exr/ReadingArea_rsl0-rcl11-esl100-rsm0-rcm2-esm310-rsr0-rcr2-esr29.exr,ReadingArea_rsl0-rcl11-esl100-rsm0-rcm2-esm310-rsr0-rcr2-esr29.npz,,,,,0,136,136,425,,left,green,1.08,802.4253828525543,802.7776780128479,,2,,3,1,lightness,readingArea,realistic,75,2023-03-17_12h49.09.231,tripletExp_regina_11082022,2022.2.4,120.33544588883692,
1,14,5,0,0.111111111111111,0.298245614035088,0,0.25,3.10526315789474,0,1.0,0.298245614035088,ReadingArea_rsl0-rcl11-esl29-rsm0-rcm25-esm310-rsr0-rcr100-esr29,exr/ReadingArea_rsl0-rcl11-esl29-rsm0-rcm25-esm310-rsr0-rcr100-esr29.exr,ReadingArea_rsl0-rcl11-esl29-rsm0-rcm25-esm310-rsr0-rcr100-esr29.npz,,,,,0,137,137,509,,right,red,1.14,804.466600894928,804.8220598697662,,2,,3,1,lightness,readingArea,realistic,75,2023-03-17_12h49.09.231,tripletExp_regina_11082022,2022.2.4,120.33544588883692,
3,0,8,0,0.444444444444444,0.298245614035088,0,0.027777777777778,0.298245614035088,0,0.25,1.0,ReadingArea_rsl0-rcl44-esl29-rsm0-rcm2-esm29-rsr0-rcr25-esr100,exr/ReadingArea_rsl0-rcl44-esl29-rsm0-rcm2-esm29-rsr0-rcr25-esr100.exr,ReadingArea_rsl0-rcl44-esl29-rsm0-rcm2-esm29-rsr0-rcr25-esr100.npz,,,,,0,138,138,510,,left,green,2.58,808.268560886383,,,2,,3,1,lightness,readingArea,realistic,75,2023-03-17_12h49.09.231,tripletExp_regina_11082022,2022.2.4,120.33544588883692,
8,10,9,0,0.25,1.0,0,0.694444444444444,1.0,0,0.444444444444444,1.0,ReadingArea_rsl0-rcl25-esl100-rsm0-rcm69-esm100-rsr0-rcr44-esr100,exr/ReadingArea_rsl0-rcl25-esl100-rsm0-rcm69-esm100-rsr0-rcr44-esr100.exr,ReadingArea_rsl0-rcl25-esl100-rsm0-rcm69-esm100-rsr0-rcr44-esr100.npz,,,,,0,139,139,342,,right,red,4.05,813.9012010097504,814.2563920021057,,2,,3,1,lightness,readingArea,realistic,75,2023-03-17_12h49.09.231,tripletExp_regina_11082022,2022.2.4,120.33544588883692,
3,6,4,0,0.444444444444444,0.298245614035088,0,0.027777777777778,1.0,0,0.694444444444444,0.298245614035088,ReadingArea_rsl0-rcl44-esl29-rsm0-rcm2-esm100-rsr0-rcr69-esr29,exr/ReadingArea_rsl0-rcl44-esl29-rsm0-rcm2-esm100-rsr0-rcr69-esr29.exr,ReadingArea_rsl0-rcl44-esl29-rsm0-rcm2-esm100-rsr0-rcr69-esr29.npz,,,,,0,140,140,154,,left,green,2.8,817.7368938922882,,,2,,3,1,lightness,readingArea,realistic,75,2023-03-17_12h49.09.231,tripletExp_regina_11082022,2022.2.4,120.33544588883692,
2,11,7,0,0.25,0.298245614035088,0,1.0,1.0,0,0.111111111111111,1.0,ReadingArea_rsl0-rcl25-esl29-rsm0-rcm100-esm100-rsr0-rcr11-esr100,exr/ReadingArea_rsl0-rcl25-esl29-rsm0-rcm100-esm100-rsr0-rcr11-esr100.exr,ReadingArea_rsl0-rcl25-esl29-rsm0-rcm100-esm100-rsr0-rcr11-esr100.npz,,,,,0,141,141,576,,right,red,4.76,823.3715839385986,,,2,,3,1,lightness,readingArea,realistic,75,2023-03-17_12h49.09.231,tripletExp_regina_11082022,2022.2.4,120.33544588883692,
3,14,12,0,0.444444444444444,0.298245614035088,0,0.25,3.10526315789474,0,0.027777777777778,3.10526315789474,ReadingArea_rsl0-rcl44-esl29-rsm0-rcm25-esm310-rsr0-rcr2-esr310,exr/ReadingArea_rsl0-rcl44-esl29-rsm0-rcm25-esm310-rsr0-rcr2-esr310.exr,ReadingArea_rsl0-rcl44-esl29-rsm0-rcm25-esm310-rsr0-rcr2-esr310.npz,,,,,0,142,142,336,,left,green,2.13,827.2293319702148,827.5874419212341,,2,,3,1,lightness,readingArea,realistic,75,2023-03-17_12h49.09.231,tripletExp_regina_11082022,2022.2.4,120.33544588883692,
11,8,7,0,1.0,1.0,0,0.25,1.0,0,0.111111111111111,1.0,ReadingArea_rsl0-rcl100-esl100-rsm0-rcm25-esm100-rsr0-rcr11-esr100,exr/ReadingArea_rsl0-rcl100-esl100-rsm0-rcm25-esm100-rsr0-rcr11-esr100.exr,ReadingArea_rsl0-rcl100-esl100-rsm0-rcm25-esm100-rsr0-rcr11-esr100.npz,,,,,0,143,143,105,,right,red,1.08,829.3063180446625,829.7733008861542,,2,,3,1,lightness,readingArea,realistic,75,2023-03-17_12h49.09.231,tripletExp_regina_11082022,2022.2.4,120.33544588883692,
4,3,9,0,0.694444444444444,0.298245614035088,0,0.444444444444444,0.298245614035088,0,0.444444444444444,1.0,ReadingArea_rsl0-rcl69-esl29-rsm0-rcm44-esm29-rsr0-rcr44-esr100,exr/ReadingArea_rsl0-rcl69-esl29-rsm0-rcm44-esm29-rsr0-rcr44-esr100.exr,ReadingArea_rsl0-rcl69-esl29-rsm0-rcm44-esm29-rsr0-rcr44-esr100.npz,,,,,0,144,144,451,,left,green,1.3,831.459410905838,831.8191969394684,,2,,3,1,lightness,readingArea,realistic,75,2023-03-17_12h49.09.231,tripletExp_regina_11082022,2022.2.4,120.33544588883692,
9,0,3,0,0.444444444444444,1.0,0,0.027777777777778,0.298245614035088,0,0.444444444444444,0.298245614035088,ReadingArea_rsl0-rcl44-esl100-rsm0-rcm2-esm29-rsr0-rcr44-esr29,exr/ReadingArea_rsl0-rcl44-esl100-rsm0-rcm2-esm29-rsr0-rcr44-esr29.exr,ReadingArea_rsl0-rcl44-esl100-rsm0-rcm2-esm29-rsr0-rcr44-esr29.npz,,,,,0,145,145,2,,right,red,2.14,835.2899718284607,,,2,,3,1,lightness,readingArea,realistic,75,2023-03-17_12h49.09.231,tripletExp_regina_11082022,2022.2.4,120.33544588883692,
2,3,4,0,0.25,0.298245614035088,0,0.444444444444444,0.298245614035088,0,0.694444444444444,0.298245614035088,ReadingArea_rsl0-rcl25-esl29-rsm0-rcm44-esm29-rsr0-rcr69-esr29,exr/ReadingArea_rsl0-rcl25-esl29-rsm0-rcm44-esm29-rsr0-rcr69-esr29.exr,ReadingArea_rsl0-rcl25-esl29-rsm0-rcm44-esm29-rsr0-rcr69-esr29.npz,,,,,0,146,146,61,,right,red,2.56,839.1441400051117,839.5191519260406,,2,,3,1,lightness,readingArea,realistic,75,2023-03-17_12h49.09.231,tripletExp_regina_11082022,2022.2.4,120.33544588883692,
3,2,11,0,0.444444444444444,0.298245614035088,0,0.25,0.298245614035088,0,1.0,1.0,ReadingArea_rsl0-rcl44-esl29-rsm0-rcm25-esm29-rsr0-rcr100-esr100,exr/ReadingArea_rsl0-rcl44-esl29-rsm0-rcm25-esm29-rsr0-rcr100-esr100.exr,ReadingArea_rsl0-rcl44-esl29-rsm0-rcm25-esm29-rsr0-rcr100-esr100.npz,,,,,0,147,147,257,,left,green,2.77,843.0014748573303,843.366024017334,,2,,3,1,lightness,readingArea,realistic,75,2023-03-17_12h49.09.231,tripletExp_regina_11082022,2022.2.4,120.33544588883692,
2,1,10,0,0.25,0.298245614035088,0,0.111111111111111,0.298245614035088,0,0.694444444444444,1.0,ReadingArea_rsl0-rcl25-esl29-rsm0-rcm11-esm29-rsr0-rcr69-esr100,exr/ReadingArea_rsl0-rcl25-esl29-rsm0-rcm11-esm29-rsr0-rcr69-esr100.exr,ReadingArea_rsl0-rcl25-esl29-rsm0-rcm11-esm29-rsr0-rcr69-esr100.npz,,,,,0,148,148,585,,left,green,1.12,845.0882799625397,845.4524478912354,,2,,3,1,lightness,readingArea,realistic,75,2023-03-17_12h49.09.231,tripletExp_regina_11082022,2022.2.4,120.33544588883692,
11,0,10,0,1.0,1.0,0,0.027777777777778,0.298245614035088,0,0.694444444444444,1.0,ReadingArea_rsl0-rcl100-esl100-rsm0-rcm2-esm29-rsr0-rcr69-esr100,exr/ReadingArea_rsl0-rcl100-esl100-rsm0-rcm2-esm29-rsr0-rcr69-esr100.exr,ReadingArea_rsl0-rcl100-esl100-rsm0-rcm2-esm29-rsr0-rcr69-esr100.npz,,,,,0,149,149,259,,right,red,2.89,848.9369249343872,849.1406388282776,,2,,3,1,lightness,readingArea,realistic,75,2023-03-17_12h49.09.231,tripletExp_regina_11082022,2022.2.4,120.33544588883692,
9,13,6,0,0.444444444444444,1.0,0,0.111111111111111,3.10526315789474,0,0.027777777777778,1.0,ReadingArea_rsl0-rcl44-esl100-rsm0-rcm11-esm310-rsr0-rcr2-esr100,exr/ReadingArea_rsl0-rcl44-esl100-rsm0-rcm11-esm310-rsr0-rcr2-esr100.exr,ReadingArea_rsl0-rcl44-esl100-rsm0-rcm11-esm310-rsr0-rcr2-esr100.npz,,,,,0,150,150,13,,left,green,0.9,853.2766890525818,853.6496138572693,,3,,3,1,lightness,readingArea,realistic,75,2023-03-17_12h49.09.231,tripletExp_regina_11082022,2022.2.4,120.33544588883692,
13,6,8,0,0.111111111111111,3.10526315789474,0,0.027777777777778,1.0,0,0.25,1.0,ReadingArea_rsl0-rcl11-esl310-rsm0-rcm2-esm100-rsr0-rcr25-esr100,exr/ReadingArea_rsl0-rcl11-esl310-rsm0-rcm2-esm100-rsr0-rcr25-esr100.exr,ReadingArea_rsl0-rcl11-esl310-rsm0-rcm2-esm100-rsr0-rcr25-esr100.npz,,,,,0,151,151,340,,right,red,1.31,855.3495819568634,855.6911268234253,,3,,3,1,lightness,readingArea,realistic,75,2023-03-17_12h49.09.231,tripletExp_regina_11082022,2022.2.4,120.33544588883692,
6,9,5,0,0.027777777777778,1.0,0,0.444444444444444,1.0,0,1.0,0.298245614035088,ReadingArea_rsl0-rcl2-esl100-rsm0-rcm44-esm100-rsr0-rcr100-esr29,exr/ReadingArea_rsl0-rcl2-esl100-rsm0-rcm44-esm100-rsr0-rcr100-esr29.exr,ReadingArea_rsl0-rcl2-esl100-rsm0-rcm44-esm100-rsr0-rcr100-esr29.npz,,,,,0,152,152,29,,right,red,0.88,857.4090938568115,857.821380853653,,3,,3,1,lightness,readingArea,realistic,75,2023-03-17_12h49.09.231,tripletExp_regina_11082022,2022.2.4,120.33544588883692,
3,13,10,0,0.444444444444444,0.298245614035088,0,0.111111111111111,3.10526315789474,0,0.694444444444444,1.0,ReadingArea_rsl0-rcl44-esl29-rsm0-rcm11-esm310-rsr0-rcr69-esr100,exr/ReadingArea_rsl0-rcl44-esl29-rsm0-rcm11-esm310-rsr0-rcr69-esr100.exr,ReadingArea_rsl0-rcl44-esl29-rsm0-rcm11-esm310-rsr0-rcr69-esr100.npz,,,,,0,153,153,416,,right,red,1.1,859.5397620201111,859.8955829143524,,3,,3,1,lightness,readingArea,realistic,75,2023-03-17_12h49.09.231,tripletExp_regina_11082022,2022.2.4,120.33544588883692,
9,8,0,0,0.444444444444444,1.0,0,0.25,1.0,0,0.027777777777778,0.298245614035088,ReadingArea_rsl0-rcl44-esl100-rsm0-rcm25-esm100-rsr0-rcr2-esr29,exr/ReadingArea_rsl0-rcl44-esl100-rsm0-rcm25-esm100-rsr0-rcr2-esr29.exr,ReadingArea_rsl0-rcl44-esl100-rsm0-rcm25-esm100-rsr0-rcr2-esr29.npz,,,,,0,154,154,66,,left,green,0.98,861.5941369533539,,,3,,3,1,lightness,readingArea,realistic,75,2023-03-17_12h49.09.231,tripletExp_regina_11082022,2022.2.4,120.33544588883692,
13,8,14,0,0.111111111111111,3.10526315789474,0,0.25,1.0,0,0.25,3.10526315789474,ReadingArea_rsl0-rcl11-esl310-rsm0-rcm25-esm100-rsr0-rcr25-esr310,exr/ReadingArea_rsl0-rcl11-esl310-rsm0-rcm25-esm100-rsr0-rcr25-esr310.exr,ReadingArea_rsl0-rcl11-esl310-rsm0-rcm25-esm100-rsr0-rcr25-esr310.npz,,,,,0,155,155,345,,left,green,1.13,863.6768708229065,864.1119649410248,,3,,3,1,lightness,readingArea,realistic,75,2023-03-17_12h49.09.231,tripletExp_regina_11082022,2022.2.4,120.33544588883692,
0,9,11,0,0.027777777777778,0.298245614035088,0,0.444444444444444,1.0,0,1.0,1.0,ReadingArea_rsl0-rcl2-esl29-rsm0-rcm44-esm100-rsr0-rcr100-esr100,exr/ReadingArea_rsl0-rcl2-esl29-rsm0-rcm44-esm100-rsr0-rcr100-esr100.exr,ReadingArea_rsl0-rcl2-esl29-rsm0-rcm44-esm100-rsr0-rcr100-esr100.npz,,,,,0,156,156,448,,right,red,0.88,865.806254863739,866.1622998714447,,3,,3,1,lightness,readingArea,realistic,75,2023-03-17_12h49.09.231,tripletExp_regina_11082022,2022.2.4,120.33544588883692,
7,4,1,0,0.111111111111111,1.0,0,0.694444444444444,0.298245614035088,0,0.111111111111111,0.298245614035088,ReadingArea_rsl0-rcl11-esl100-rsm0-rcm69-esm29-rsr0-rcr11-esr29,exr/ReadingArea_rsl0-rcl11-esl100-rsm0-rcm69-esm29-rsr0-rcr11-esr29.exr,ReadingArea_rsl0-rcl11-esl100-rsm0-rcm69-esm29-rsr0-rcr11-esr29.npz,,,,,0,157,157,369,,left,green,1.08,867.8788058757782,,,3,,3,1,lightness,readingArea,realistic,75,2023-03-17_12h49.09.231,tripletExp_regina_11082022,2022.2.4,120.33544588883692,
14,2,0,0,0.25,3.10526315789474,0,0.25,0.298245614035088,0,0.027777777777778,0.298245614035088,ReadingArea_rsl0-rcl25-esl310-rsm0-rcm25-esm29-rsr0-rcr2-esr29,exr/ReadingArea_rsl0-rcl25-esl310-rsm0-rcm25-esm29-rsr0-rcr2-esr29.exr,ReadingArea_rsl0-rcl25-esl310-rsm0-rcm25-esm29-rsr0-rcr2-esr29.npz,,,,,0,158,158,460,,right,red,2.75,871.7139940261841,872.0644629001617,,3,,3,1,lightness,readingArea,realistic,75,2023-03-17_12h49.09.231,tripletExp_regina_11082022,2022.2.4,120.33544588883692,
13,4,7,0,0.111111111111111,3.10526315789474,0,0.694444444444444,0.298245614035088,0,0.111111111111111,1.0,ReadingArea_rsl0-rcl11-esl310-rsm0-rcm69-esm29-rsr0-rcr11-esr100,exr/ReadingArea_rsl0-rcl11-esl310-rsm0-rcm69-esm29-rsr0-rcr11-esr100.exr,ReadingArea_rsl0-rcl11-esl310-rsm0-rcm69-esm29-rsr0-rcr11-esr100.npz,,,,,0,159,159,282,,left,green,1.3,873.7702209949493,874.1231698989868,,3,,3,1,lightness,readingArea,realistic,75,2023-03-17_12h49.09.231,tripletExp_regina_11082022,2022.2.4,120.33544588883692,
6,0,10,0,0.027777777777778,1.0,0,0.027777777777778,0.298245614035088,0,0.694444444444444,1.0,ReadingArea_rsl0-rcl2-esl100-rsm0-rcm2-esm29-rsr0-rcr69-esr100,exr/ReadingArea_rsl0-rcl2-esl100-rsm0-rcm2-esm29-rsr0-rcr69-esr100.exr,ReadingArea_rsl0-rcl2-esl100-rsm0-rcm2-esm29-rsr0-rcr69-esr100.npz,,,,,0,160,160,532,,left,green,1.01,875.8337030410767,876.1949050426483,,3,,3,1,lightness,readingArea,realistic,75,2023-03-17_12h49.09.231,tripletExp_regina_11082022,2022.2.4,120.33544588883692,
11,4,2,0,1.0,1.0,0,0.694444444444444,0.298245614035088,0,0.25,0.298245614035088,ReadingArea_rsl0-rcl100-esl100-rsm0-rcm69-esm29-rsr0-rcr25-esr29,exr/ReadingArea_rsl0-rcl100-esl100-rsm0-rcm69-esm29-rsr0-rcr25-esr29.exr,ReadingArea_rsl0-rcl100-esl100-rsm0-rcm69-esm29-rsr0-rcr25-esr29.npz,,,,,0,161,161,280,,right,red,2.34,879.6802549362183,,,3,,3,1,lightness,readingArea,realistic,75,2023-03-17_12h49.09.231,tripletExp_regina_11082022,2022.2.4,120.33544588883692,
12,13,10,0,0.027777777777778,3.10526315789474,0,0.111111111111111,3.10526315789474,0,0.694444444444444,1.0,ReadingArea_rsl0-rcl2-esl310-rsm0-rcm11-esm310-rsr0-rcr69-esr100,exr/ReadingArea_rsl0-rcl2-esl310-rsm0-rcm11-esm310-rsr0-rcr69-esr100.exr,ReadingArea_rsl0-rcl2-esl310-rsm0-rcm11-esm310-rsr0-rcr69-esr100.npz,,,,,0,162,162,295,,left,green,3.88,885.2866539955139,885.6444549560547,,3,,3,1,lightness,readingArea,realistic,75,2023-03-17_12h49.09.231,tripletExp_regina_11082022,2022.2.4,120.33544588883692,
10,14,4,0,0.694444444444444,1.0,0,0.25,3.10526315789474,0,0.694444444444444,0.298245614035088,ReadingArea_rsl0-rcl69-esl100-rsm0-rcm25-esm310-rsr0-rcr69-esr29,exr/ReadingArea_rsl0-rcl69-esl100-rsm0-rcm25-esm310-rsr0-rcr69-esr29.exr,ReadingArea_rsl0-rcl69-esl100-rsm0-rcm25-esm310-rsr0-rcr69-esr29.npz,,,,,0,163,163,267,,left,green,1.03,887.3509140014648,887.7265229225159,,3,,3,1,lightness,readingArea,realistic,75,2023-03-17_12h49.09.231,tripletExp_regina_11082022,2022.2.4,120.33544588883692,
14,8,2,0,0.25,3.10526315789474,0,0.25,1.0,0,0.25,0.298245614035088,ReadingArea_rsl0-rcl25-esl310-rsm0-rcm25-esm100-rsr0-rcr25-esr29,exr/ReadingArea_rsl0-rcl25-esl310-rsm0-rcm25-esm100-rsr0-rcr25-esr29.exr,ReadingArea_rsl0-rcl25-esl310-rsm0-rcm25-esm100-rsr0-rcr25-esr29.npz,,,,,0,164,164,251,,left,green,3.83,892.9960930347443,893.35777592659,,3,,3,1,lightness,readingArea,realistic,75,2023-03-17_12h49.09.231,tripletExp_regina_11082022,2022.2.4,120.33544588883692,
1,9,7,0,0.111111111111111,0.298245614035088,0,0.444444444444444,1.0,0,0.111111111111111,1.0,ReadingArea_rsl0-rcl11-esl29-rsm0-rcm44-esm100-rsr0-rcr11-esr100,exr/ReadingArea_rsl0-rcl11-esl29-rsm0-rcm44-esm100-rsr0-rcr11-esr100.exr,ReadingArea_rsl0-rcl11-esl29-rsm0-rcm44-esm100-rsr0-rcr11-esr100.npz,,,,,0,165,165,397,,right,red,2.24,896.8454339504242,897.3070800304413,,3,,3,1,lightness,readingArea,realistic,75,2023-03-17_12h49.09.231,tripletExp_regina_11082022,2022.2.4,120.33544588883692,
9,3,14,0,0.444444444444444,1.0,0,0.444444444444444,0.298245614035088,0,0.25,3.10526315789474,ReadingArea_rsl0-rcl44-esl100-rsm0-rcm44-esm29-rsr0-rcr25-esr310,exr/ReadingArea_rsl0-rcl44-esl100-rsm0-rcm44-esm29-rsr0-rcr25-esr310.exr,ReadingArea_rsl0-rcl44-esl100-rsm0-rcm44-esm29-rsr0-rcr25-esr310.npz,,,,,0,166,166,17,,left,green,2.13,900.8057730197906,901.1674199104308,,3,,3,1,lightness,readingArea,realistic,75,2023-03-17_12h49.09.231,tripletExp_regina_11082022,2022.2.4,120.33544588883692,
11,12,1,0,1.0,1.0,0,0.027777777777778,3.10526315789474,0,0.111111111111111,0.298245614035088,ReadingArea_rsl0-rcl100-esl100-rsm0-rcm2-esm310-rsr0-rcr11-esr29,exr/ReadingArea_rsl0-rcl100-esl100-rsm0-rcm2-esm310-rsr0-rcr11-esr29.exr,ReadingArea_rsl0-rcl100-esl100-rsm0-rcm2-esm310-rsr0-rcr11-esr29.npz,,,,,0,167,167,140,,right,red,0.89,902.8762819766998,903.2684750556946,,3,,3,1,lightness,readingArea,realistic,75,2023-03-17_12h49.09.231,tripletExp_regina_11082022,2022.2.4,120.33544588883692,
13,11,8,0,0.111111111111111,3.10526315789474,0,1.0,1.0,0,0.25,1.0,ReadingArea_rsl0-rcl11-esl310-rsm0-rcm100-esm100-rsr0-rcr25-esr100,exr/ReadingArea_rsl0-rcl11-esl310-rsm0-rcm100-esm100-rsr0-rcr25-esr100.exr,ReadingArea_rsl0-rcl11-esl310-rsm0-rcm100-esm100-rsr0-rcr25-esr100.npz,,,,,0,168,168,410,,left,green,3.96,908.5321719646454,908.896185874939,,3,,3,1,lightness,readingArea,realistic,75,2023-03-17_12h49.09.231,tripletExp_regina_11082022,2022.2.4,120.33544588883692,
1,13,14,0,0.111111111111111,0.298245614035088,0,0.111111111111111,3.10526315789474,0,0.25,3.10526315789474,ReadingArea_rsl0-rcl11-esl29-rsm0-rcm11-esm310-rsr0-rcr25-esr310,exr/ReadingArea_rsl0-rcl11-esl29-rsm0-rcm11-esm310-rsr0-rcr25-esr310.exr,ReadingArea_rsl0-rcl11-esl29-rsm0-rcm11-esm310-rsr0-rcr25-esr310.npz,,,,,0,169,169,183,,right,red,2.68,912.3843870162964,912.7413668632508,,3,,3,1,lightness,readingArea,realistic,75,2023-03-17_12h49.09.231,tripletExp_regina_11082022,2022.2.4,120.33544588883692,
6,0,11,0,0.027777777777778,1.0,0,0.027777777777778,0.298245614035088,0,1.0,1.0,ReadingArea_rsl0-rcl2-esl100-rsm0-rcm2-esm29-rsr0-rcr100-esr100,exr/ReadingArea_rsl0-rcl2-esl100-rsm0-rcm2-esm29-rsr0-rcr100-esr100.exr,ReadingArea_rsl0-rcl2-esl100-rsm0-rcm2-esm29-rsr0-rcr100-esr100.npz,,,,,0,170,170,245,,left,green,2.48,916.2321920394896,916.5988228321075,,3,,3,1,lightness,readingArea,realistic,75,2023-03-17_12h49.09.231,tripletExp_regina_11082022,2022.2.4,120.33544588883692,
9,11,5,0,0.444444444444444,1.0,0,1.0,1.0,0,1.0,0.298245614035088,ReadingArea_rsl0-rcl44-esl100-rsm0-rcm100-esm100-rsr0-rcr100-esr29,exr/ReadingArea_rsl0-rcl44-esl100-rsm0-rcm100-esm100-rsr0-rcr100-esr29.exr,ReadingArea_rsl0-rcl44-esl100-rsm0-rcm100-esm100-rsr0-rcr100-esr29.npz,,,,,0,171,171,142,,left,green,1.13,918.2993760108948,918.6602530479432,,3,,3,1,lightness,readingArea,realistic,75,2023-03-17_12h49.09.231,tripletExp_regina_11082022,2022.2.4,120.33544588883692,
4,3,1,0,0.694444444444444,0.298245614035088,0,0.444444444444444,0.298245614035088,0,0.111111111111111,0.298245614035088,ReadingArea_rsl0-rcl69-esl29-rsm0-rcm44-esm29-rsr0-rcr11-esr29,exr/ReadingArea_rsl0-rcl69-esl29-rsm0-rcm44-esm29-rsr0-rcr11-esr29.exr,ReadingArea_rsl0-rcl69-esl29-rsm0-rcm44-esm29-rsr0-rcr11-esr29.npz,,,,,0,172,172,60,,left,green,0.95,920.3802409172058,920.7390768527983,,3,,3,1,lightness,readingArea,realistic,75,2023-03-17_12h49.09.231,tripletExp_regina_11082022,2022.2.4,120.33544588883692,
4,7,5,0,0.694444444444444,0.298245614035088,0,0.111111111111111,1.0,0,1.0,0.298245614035088,ReadingArea_rsl0-rcl69-esl29-rsm0-rcm11-esm100-rsr0-rcr100-esr29,exr/ReadingArea_rsl0-rcl69-esl29-rsm0-rcm11-esm100-rsr0-rcr100-esr29.exr,ReadingArea_rsl0-rcl69-esl29-rsm0-rcm11-esm100-rsr0-rcr100-esr29.npz,,,,,0,173,173,195,,left,green,4.5,926.0033218860626,926.4772188663484,,3,,3,1,lightness,readingArea,realistic,75,2023-03-17_12h49.09.231,tripletExp_regina_11082022,2022.2.4,120.33544588883692,
8,1,9,0,0.25,1.0,0,0.111111111111111,0.298245614035088,0,0.444444444444444,1.0,ReadingArea_rsl0-rcl25-esl100-rsm0-rcm11-esm29-rsr0-rcr44-esr100,exr/ReadingArea_rsl0-rcl25-esl100-rsm0-rcm11-esm29-rsr0-rcr44-esr100.exr,ReadingArea_rsl0-rcl25-esl100-rsm0-rcm11-esm29-rsr0-rcr44-esr100.npz,,,,,0,174,174,432,,left,green,2.23,929.9507648944856,930.3122069835664,,3,,3,1,lightness,readingArea,realistic,75,2023-03-17_12h49.09.231,tripletExp_regina_11082022,2022.2.4,120.33544588883692,
11,7,9,0,1.0,1.0,0,0.111111111111111,1.0,0,0.444444444444444,1.0,ReadingArea_rsl0-rcl100-esl100-rsm0-rcm11-esm100-rsr0-rcr44-esr100,exr/ReadingArea_rsl0-rcl100-esl100-rsm0-rcm11-esm100-rsr0-rcr44-esr100.exr,ReadingArea_rsl0-rcl100-esl100-rsm0-rcm11-esm100-rsr0-rcr44-esr100.npz,,,,,0,175,175,521,,right,red,1.02,932.0146780014038,932.3835518360138,,3,,3,1,lightness,readingArea,realistic,75,2023-03-17_12h49.09.231,tripletExp_regina_11082022,2022.2.4,120.33544588883692,
10,8,1,0,0.694444444444444,1.0,0,0.25,1.0,0,0.111111111111111,0.298245614035088,ReadingArea_rsl0-rcl69-esl100-rsm0-rcm25-esm100-rsr0-rcr11-esr29,exr/ReadingArea_rsl0-rcl69-esl100-rsm0-rcm25-esm100-rsr0-rcr11-esr29.exr,ReadingArea_rsl0-rcl69-esl100-rsm0-rcm25-esm100-rsr0-rcr11-esr29.npz,,,,,0,176,176,247,,left,green,2.18,935.86634683609,936.2294669151306,,3,,3,1,lightness,readingArea,realistic,75,2023-03-17_12h49.09.231,tripletExp_regina_11082022,2022.2.4,120.33544588883692,
11,2,8,0,1.0,1.0,0,0.25,0.298245614035088,0,0.25,1.0,ReadingArea_rsl0-rcl100-esl100-rsm0-rcm25-esm29-rsr0-rcr25-esr100,exr/ReadingArea_rsl0-rcl100-esl100-rsm0-rcm25-esm29-rsr0-rcr25-esr100.exr,ReadingArea_rsl0-rcl100-esl100-rsm0-rcm25-esm29-rsr0-rcr25-esr100.npz,,,,,0,177,177,214,,right,red,2.07,939.712947845459,940.0775220394136,,3,,3,1,lightness,readingArea,realistic,75,2023-03-17_12h49.09.231,tripletExp_regina_11082022,2022.2.4,120.33544588883692,
0,12,7,0,0.027777777777778,0.298245614035088,0,0.027777777777778,3.10526315789474,0,0.111111111111111,1.0,ReadingArea_rsl0-rcl2-esl29-rsm0-rcm2-esm310-rsr0-rcr11-esr100,exr/ReadingArea_rsl0-rcl2-esl29-rsm0-rcm2-esm310-rsr0-rcr11-esr100.exr,ReadingArea_rsl0-rcl2-esl29-rsm0-rcm2-esm310-rsr0-rcr11-esr100.npz,,,,,0,178,178,481,,right,red,3.12,943.5704569816588,943.9386918544768,,3,,3,1,lightness,readingArea,realistic,75,2023-03-17_12h49.09.231,tripletExp_regina_11082022,2022.2.4,120.33544588883692,
10,1,13,0,0.694444444444444,1.0,0,0.111111111111111,0.298245614035088,0,0.111111111111111,3.10526315789474,ReadingArea_rsl0-rcl69-esl100-rsm0-rcm11-esm29-rsr0-rcr11-esr310,exr/ReadingArea_rsl0-rcl69-esl100-rsm0-rcm11-esm29-rsr0-rcr11-esr310.exr,ReadingArea_rsl0-rcl69-esl100-rsm0-rcm11-esm29-rsr0-rcr11-esr310.npz,,,,,0,179,179,45,,right,red,1.06,945.630688905716,945.9983909130096,,3,,3,1,lightness,readingArea,realistic,75,2023-03-17_12h49.09.231,tripletExp_regina_11082022,2022.2.4,120.33544588883692,
4,2,5,0,0.694444444444444,0.298245614035088,0,0.25,0.298245614035088,0,1.0,0.298245614035088,ReadingArea_rsl0-rcl69-esl29-rsm0-rcm25-esm29-rsr0-rcr100-esr29,exr/ReadingArea_rsl0-rcl69-esl29-rsm0-rcm25-esm29-rsr0-rcr100-esr29.exr,ReadingArea_rsl0-rcl69-esl29-rsm0-rcm25-esm29-rsr0-rcr100-esr29.npz,,,,,0,180,180,101,,left,green,2.15,949.4847688674928,949.8529000282288,,3,,3,1,lightness,readingArea,realistic,75,2023-03-17_12h49.09.231,tripletExp_regina_11082022,2022.2.4,120.33544588883692,
11,7,8,0,1.0,1.0,0,0.111111111111111,1.0,0,0.25,1.0,ReadingArea_rsl0-rcl100-esl100-rsm0-rcm11-esm100-rsr0-rcr25-esr100,exr/ReadingArea_rsl0-rcl100-esl100-rsm0-rcm11-esm100-rsr0-rcr25-esr100.exr,ReadingArea_rsl0-rcl100-esl100-rsm0-rcm11-esm100-rsr0-rcr25-esr100.npz,,,,,0,181,181,37,,right,red,1.09,951.563027858734,951.9630210399628,,3,,3,1,lightness,readingArea,realistic,75,2023-03-17_12h49.09.231,tripletExp_regina_11082022,2022.2.4,120.33544588883692,
9,8,7,0,0.444444444444444,1.0,0,0.25,1.0,0,0.111111111111111,1.0,ReadingArea_rsl0-rcl44-esl100-rsm0-rcm25-esm100-rsr0-rcr11-esr100,exr/ReadingArea_rsl0-rcl44-esl100-rsm0-rcm25-esm100-rsr0-rcr11-esr100.exr,ReadingArea_rsl0-rcl44-esl100-rsm0-rcm25-esm100-rsr0-rcr11-esr100.npz,,,,,0,182,182,368,,left,green,4.28,957.2044129371644,957.6492810249327,,3,,3,1,lightness,readingArea,realistic,75,2023-03-17_12h49.09.231,tripletExp_regina_11082022,2022.2.4,120.33544588883692,
13,0,4,0,0.111111111111111,3.10526315789474,0,0.027777777777778,0.298245614035088,0,0.694444444444444,0.298245614035088,ReadingArea_rsl0-rcl11-esl310-rsm0-rcm2-esm29-rsr0-rcr69-esr29,exr/ReadingArea_rsl0-rcl11-esl310-rsm0-rcm2-esm29-rsr0-rcr69-esr29.exr,ReadingArea_rsl0-rcl11-esl310-rsm0-rcm2-esm29-rsr0-rcr69-esr29.npz,,,,,0,183,183,270,,right,red,2.41,961.1036329269408,961.49880194664,,3,,3,1,lightness,readingArea,realistic,75,2023-03-17_12h49.09.231,tripletExp_regina_11082022,2022.2.4,120.33544588883692,
14,7,0,0,0.25,3.10526315789474,0,0.111111111111111,1.0,0,0.027777777777778,0.298245614035088,ReadingArea_rsl0-rcl25-esl310-rsm0-rcm11-esm100-rsr0-rcr2-esr29,exr/ReadingArea_rsl0-rcl25-esl310-rsm0-rcm11-esm100-rsr0-rcr2-esr29.exr,ReadingArea_rsl0-rcl25-esl310-rsm0-rcm11-esm100-rsr0-rcr2-esr29.npz,,,,,0,184,184,412,,right,red,3.92,966.7391719818116,967.1080198287964,,3,,3,1,lightness,readingArea,realistic,75,2023-03-17_12h49.09.231,tripletExp_regina_11082022,2022.2.4,120.33544588883692,
7,4,6,0,0.111111111111111,1.0,0,0.694444444444444,0.298245614035088,0,0.027777777777778,1.0,ReadingArea_rsl0-rcl11-esl100-rsm0-rcm69-esm29-rsr0-rcr2-esr100,exr/ReadingArea_rsl0-rcl11-esl100-rsm0-rcm69-esm29-rsr0-rcr2-esr100.exr,ReadingArea_rsl0-rcl11-esl100-rsm0-rcm69-esm29-rsr0-rcr2-esr100.npz,,,,,0,185,185,528,,left,green,1.25,968.8107869625092,,,3,,3,1,lightness,readingArea,realistic,75,2023-03-17_12h49.09.231,tripletExp_regina_11082022,2022.2.4,120.33544588883692,
13,0,14,0,0.111111111111111,3.10526315789474,0,0.027777777777778,0.298245614035088,0,0.25,3.10526315789474,ReadingArea_rsl0-rcl11-esl310-rsm0-rcm2-esm29-rsr0-rcr25-esr310,exr/ReadingArea_rsl0-rcl11-esl310-rsm0-rcm2-esm29-rsr0-rcr25-esr310.exr,ReadingArea_rsl0-rcl11-esl310-rsm0-rcm2-esm29-rsr0-rcr25-esr310.npz,,,,,0,186,186,278,,left,green,1.41,970.8923578262328,971.253114938736,,3,,3,1,lightness,readingArea,realistic,75,2023-03-17_12h49.09.231,tripletExp_regina_11082022,2022.2.4,120.33544588883692,
8,3,12,0,0.25,1.0,0,0.444444444444444,0.298245614035088,0,0.027777777777778,3.10526315789474,ReadingArea_rsl0-rcl25-esl100-rsm0-rcm44-esm29-rsr0-rcr2-esr310,exr/ReadingArea_rsl0-rcl25-esl100-rsm0-rcm44-esm29-rsr0-rcr2-esr310.exr,ReadingArea_rsl0-rcl25-esl100-rsm0-rcm44-esm29-rsr0-rcr2-esr310.npz,,,,,0,187,187,22,,left,green,2.53,974.7380559444427,975.1070818901062,,3,,3,1,lightness,readingArea,realistic,75,2023-03-17_12h49.09.231,tripletExp_regina_11082022,2022.2.4,120.33544588883692,
10,9,6,0,0.694444444444444,1.0,0,0.444444444444444,1.0,0,0.027777777777778,1.0,ReadingArea_rsl0-rcl69-esl100-rsm0-rcm44-esm100-rsr0-rcr2-esr100,exr/ReadingArea_rsl0-rcl69-esl100-rsm0-rcm44-esm100-rsr0-rcr2-esr100.exr,ReadingArea_rsl0-rcl69-esl100-rsm0-rcm44-esm100-rsr0-rcr2-esr100.npz,,,,,0,188,188,35,,left,green,0.97,976.8250558376312,977.184221982956,,3,,3,1,lightness,readingArea,realistic,75,2023-03-17_12h49.09.231,tripletExp_regina_11082022,2022.2.4,120.33544588883692,
2,8,7,0,0.25,0.298245614035088,0,0.25,1.0,0,0.111111111111111,1.0,ReadingArea_rsl0-rcl25-esl29-rsm0-rcm25-esm100-rsr0-rcr11-esr100,exr/ReadingArea_rsl0-rcl25-esl29-rsm0-rcm25-esm100-rsr0-rcr11-esr100.exr,ReadingArea_rsl0-rcl25-esl29-rsm0-rcm25-esm100-rsr0-rcr11-esr100.npz,,,,,0,189,189,393,,right,red,2.46,980.6745159626008,981.045518875122,,3,,3,1,lightness,readingArea,realistic,75,2023-03-17_12h49.09.231,tripletExp_regina_11082022,2022.2.4,120.33544588883692,
2,1,13,0,0.25,0.298245614035088,0,0.111111111111111,0.298245614035088,0,0.111111111111111,3.10526315789474,ReadingArea_rsl0-rcl25-esl29-rsm0-rcm11-esm29-rsr0-rcr11-esr310,exr/ReadingArea_rsl0-rcl25-esl29-rsm0-rcm11-esm29-rsr0-rcr11-esr310.exr,ReadingArea_rsl0-rcl25-esl29-rsm0-rcm11-esm29-rsr0-rcr11-esr310.npz,,,,,0,190,190,290,,left,green,3.96,986.3390438556672,986.7056729793547,,3,,3,1,lightness,readingArea,realistic,75,2023-03-17_12h49.09.231,tripletExp_regina_11082022,2022.2.4,120.33544588883692,
6,4,13,0,0.027777777777778,1.0,0,0.694444444444444,0.298245614035088,0,0.111111111111111,3.10526315789474,ReadingArea_rsl0-rcl2-esl100-rsm0-rcm69-esm29-rsr0-rcr11-esr310,exr/ReadingArea_rsl0-rcl2-esl100-rsm0-rcm69-esm29-rsr0-rcr11-esr310.exr,ReadingArea_rsl0-rcl2-esl100-rsm0-rcm69-esm29-rsr0-rcr11-esr310.npz,,,,,0,191,191,202,,right,red,0.87,988.4195408821106,988.7805700302124,,3,,3,1,lightness,readingArea,realistic,75,2023-03-17_12h49.09.231,tripletExp_regina_11082022,2022.2.4,120.33544588883692,
9,11,13,0,0.444444444444444,1.0,0,1.0,1.0,0,0.111111111111111,3.10526315789474,ReadingArea_rsl0-rcl44-esl100-rsm0-rcm100-esm100-rsr0-rcr11-esr310,exr/ReadingArea_rsl0-rcl44-esl100-rsm0-rcm100-esm100-rsr0-rcr11-esr310.exr,ReadingArea_rsl0-rcl44-esl100-rsm0-rcm100-esm100-rsr0-rcr11-esr310.npz,,,,,0,192,192,254,,left,green,2.71,992.2490239143372,992.6169910430908,,3,,3,1,lightness,readingArea,realistic,75,2023-03-17_12h49.09.231,tripletExp_regina_11082022,2022.2.4,120.33544588883692,
5,10,12,0,1.0,0.298245614035088,0,0.694444444444444,1.0,0,0.027777777777778,3.10526315789474,ReadingArea_rsl0-rcl100-esl29-rsm0-rcm69-esm100-rsr0-rcr2-esr310,exr/ReadingArea_rsl0-rcl100-esl29-rsm0-rcm69-esm100-rsr0-rcr2-esr310.exr,ReadingArea_rsl0-rcl100-esl29-rsm0-rcm69-esm100-rsr0-rcr2-esr310.npz,,,,,0,193,193,587,,left,green,0.97,994.3219349384308,994.767415046692,,3,,3,1,lightness,readingArea,realistic,75,2023-03-17_12h49.09.231,tripletExp_regina_11082022,2022.2.4,120.33544588883692,
11,13,8,0,1.0,1.0,0,0.111111111111111,3.10526315789474,0,0.25,1.0,ReadingArea_rsl0-rcl100-esl100-rsm0-rcm11-esm310-rsr0-rcr25-esr100,exr/ReadingArea_rsl0-rcl100-esl100-rsm0-rcm11-esm310-rsr0-rcr25-esr100.exr,ReadingArea_rsl0-rcl100-esl100-rsm0-rcm11-esm310-rsr0-rcr25-esr100.npz,,,,,0,194,194,198,,right,red,2.27,998.256989955902,,,3,,3,1,lightness,readingArea,realistic,75,2023-03-17_12h49.09.231,tripletExp_regina_11082022,2022.2.4,120.33544588883692,
6,0,4,0,0.027777777777778,1.0,0,0.027777777777778,0.298245614035088,0,0.694444444444444,0.298245614035088,ReadingArea_rsl0-rcl2-esl100-rsm0-rcm2-esm29-rsr0-rcr69-esr29,exr/ReadingArea_rsl0-rcl2-esl100-rsm0-rcm2-esm29-rsr0-rcr69-esr29.exr,ReadingArea_rsl0-rcl2-esl100-rsm0-rcm2-esm29-rsr0-rcr69-esr29.npz,,,,,0,195,195,555,,left,green,0.94,1000.3395910263062,1000.7889850139618,,3,,3,1,lightness,readingArea,realistic,75,2023-03-17_12h49.09.231,tripletExp_regina_11082022,2022.2.4,120.33544588883692,
9,0,11,0,0.444444444444444,1.0,0,0.027777777777778,0.298245614035088,0,1.0,1.0,ReadingArea_rsl0-rcl44-esl100-rsm0-rcm2-esm29-rsr0-rcr100-esr100,exr/ReadingArea_rsl0-rcl44-esl100-rsm0-rcm2-esm29-rsr0-rcr100-esr100.exr,ReadingArea_rsl0-rcl44-esl100-rsm0-rcm2-esm29-rsr0-rcr100-esr100.npz,,,,,0,196,196,319,,left,green,1.47,1002.4926810264589,1002.8636519908904,,3,,3,1,lightness,readingArea,realistic,75,2023-03-17_12h49.09.231,tripletExp_regina_11082022,2022.2.4,120.33544588883692,
2,3,6,0,0.25,0.298245614035088,0,0.444444444444444,0.298245614035088,0,0.027777777777778,1.0,ReadingArea_rsl0-rcl25-esl29-rsm0-rcm44-esm29-rsr0-rcr2-esr100,exr/ReadingArea_rsl0-rcl25-esl29-rsm0-rcm44-esm29-rsr0-rcr2-esr100.exr,ReadingArea_rsl0-rcl25-esl29-rsm0-rcm44-esm29-rsr0-rcr2-esr100.npz,,,,,0,197,197,357,,left,green,1.4,1004.5730159282684,1004.921452999115,,3,,3,1,lightness,readingArea,realistic,75,2023-03-17_12h49.09.231,tripletExp_regina_11082022,2022.2.4,120.33544588883692,
12,6,3,0,0.027777777777778,3.10526315789474,0,0.027777777777778,1.0,0,0.444444444444444,0.298245614035088,ReadingArea_rsl0-rcl2-esl310-rsm0-rcm2-esm100-rsr0-rcr44-esr29,exr/ReadingArea_rsl0-rcl2-esl310-rsm0-rcm2-esm100-rsr0-rcr44-esr29.exr,ReadingArea_rsl0-rcl2-esl310-rsm0-rcm2-esm100-rsr0-rcr44-esr29.npz,,,,,0,198,198,139,,left,green,1.26,1006.629956960678,1007.0051689147948,,3,,3,1,lightness,readingArea,realistic,75,2023-03-17_12h49.09.231,tripletExp_regina_11082022,2022.2.4,120.33544588883692,
9,6,14,0,0.444444444444444,1.0,0,0.027777777777778,1.0,0,0.25,3.10526315789474,ReadingArea_rsl0-rcl44-esl100-rsm0-rcm2-esm100-rsr0-rcr25-esr310,exr/ReadingArea_rsl0-rcl44-esl100-rsm0-rcm2-esm100-rsr0-rcr25-esr310.exr,ReadingArea_rsl0-rcl44-esl100-rsm0-rcm2-esm100-rsr0-rcr25-esr310.npz,,,,,0,199,199,213,,left,green,1.2,1008.6997339725494,1009.061863899231,,3,,3,1,lightness,readingArea,realistic,75,2023-03-17_12h49.09.231,tripletExp_regina_11082022,2022.2.4,120.33544588883692,
8,6,11,0,0.25,1.0,0,0.027777777777778,1.0,0,1.0,1.0,ReadingArea_rsl0-rcl25-esl100-rsm0-rcm2-esm100-rsr0-rcr100-esr100,exr/ReadingArea_rsl0-rcl25-esl100-rsm0-rcm2-esm100-rsr0-rcr100-esr100.exr,ReadingArea_rsl0-rcl25-esl100-rsm0-rcm2-esm100-rsr0-rcr100-esr100.npz,,,,,0,200,200,236,,left,green,0.95,1010.7589960098268,,,3,,3,1,lightness,readingArea,realistic,75,2023-03-17_12h49.09.231,tripletExp_regina_11082022,2022.2.4,120.33544588883692,
5,3,0,0,1.0,0.298245614035088,0,0.444444444444444,0.298245614035088,0,0.027777777777778,0.298245614035088,ReadingArea_rsl0-rcl100-esl29-rsm0-rcm44-esm29-rsr0-rcr2-esr29,exr/ReadingArea_rsl0-rcl100-esl29-rsm0-rcm44-esm29-rsr0-rcr2-esr29.exr,ReadingArea_rsl0-rcl100-esl29-rsm0-rcm44-esm29-rsr0-rcr2-esr29.npz,,,,,0,201,201,303,,left,green,2.28,1014.572813987732,1014.9346809387208,,3,,3,1,lightness,readingArea,realistic,75,2023-03-17_12h49.09.231,tripletExp_regina_11082022,2022.2.4,120.33544588883692,
6,1,2,0,0.027777777777778,1.0,0,0.111111111111111,0.298245614035088,0,0.25,0.298245614035088,ReadingArea_rsl0-rcl2-esl100-rsm0-rcm11-esm29-rsr0-rcr25-esr29,exr/ReadingArea_rsl0-rcl2-esl100-rsm0-rcm11-esm29-rsr0-rcr25-esr29.exr,ReadingArea_rsl0-rcl2-esl100-rsm0-rcm11-esm29-rsr0-rcr25-esr29.npz,,,,,0,202,202,68,,left,green,2.72,1018.4036660194396,1018.767550945282,,3,,3,1,lightness,readingArea,realistic,75,2023-03-17_12h49.09.231,tripletExp_regina_11082022,2022.2.4,120.33544588883692,
2,14,7,0,0.25,0.298245614035088,0,0.25,3.10526315789474,0,0.111111111111111,1.0,ReadingArea_rsl0-rcl25-esl29-rsm0-rcm25-esm310-rsr0-rcr11-esr100,exr/ReadingArea_rsl0-rcl25-esl29-rsm0-rcm25-esm310-rsr0-rcr11-esr100.exr,ReadingArea_rsl0-rcl25-esl29-rsm0-rcm25-esm310-rsr0-rcr11-esr100.npz,,,,,0,203,203,310,,right,red,2.53,1022.232719898224,1022.589157819748,,3,,3,1,lightness,readingArea,realistic,75,2023-03-17_12h49.09.231,tripletExp_regina_11082022,2022.2.4,120.33544588883692,
