index_left,index_middle,index_right,reflectance_surround_left,reflectance_center_left,emission_spot_left,reflectance_surround_middle,reflectance_center_middle,emission_spot_middle,reflectance_surround_right,reflectance_center_right,emission_spot_right,ImageName,ImageExr,ImageNpy,trials_2.thisRepN,trials_2.thisTrialN,trials_2.thisN,trials_2.thisIndex,trials.thisRepN,trials.thisTrialN,trials.thisN,trials.thisIndex,sound_1.started,BB_Trial.resp,BB_Trial.color,BB_Trial.rt,text.started,text.stopped,block,participant,session,L/B,scene,condition,nTrialsPerBlock,date,expName,psychopyVersion,frameRate,Unnamed: 40
5,0,11,2,1.0,0.298245614035088,2,0.027777777777778,0.298245614035088,2,1.0,1.0,ReadingArea_rsl2-rcl100-esl29-rsm2-rcm2-esm29-rsr2-rcr100-esr100,exr/ReadingArea_rsl2-rcl100-esl29-rsm2-rcm2-esm29-rsr2-rcr100-esr100.exr,ReadingArea_rsl2-rcl100-esl29-rsm2-rcm2-esm29-rsr2-rcr100-esr100.npz,,,,,0,0,0,547,827.8183447122574,left,green,1.55,843.1493711471558,843.540384054184,1,6,2,lightness,readingArea,realistic,75,2023-03-22_16h15.06.502,tripletExp_regina_11082022,2022.2.4,119.65026087799924,
3,4,5,2,0.444444444444444,0.298245614035088,2,0.694444444444444,0.298245614035088,2,1.0,0.298245614035088,ReadingArea_rsl2-rcl44-esl29-rsm2-rcm69-esm29-rsr2-rcr100-esr29,exr/ReadingArea_rsl2-rcl44-esl29-rsm2-rcm69-esm29-rsr2-rcr100-esr29.exr,ReadingArea_rsl2-rcl44-esl29-rsm2-rcm69-esm29-rsr2-rcr100-esr29.npz,,,,,0,1,1,233,,right,red,1.45,845.2603271007538,845.6582450866699,1,6,2,lightness,readingArea,realistic,75,2023-03-22_16h15.06.502,tripletExp_regina_11082022,2022.2.4,119.65026087799924,
3,7,0,2,0.444444444444444,0.298245614035088,2,0.111111111111111,1.0,2,0.027777777777778,0.298245614035088,ReadingArea_rsl2-rcl44-esl29-rsm2-rcm11-esm100-rsr2-rcr2-esr29,exr/ReadingArea_rsl2-rcl44-esl29-rsm2-rcm11-esm100-rsr2-rcr2-esr29.exr,ReadingArea_rsl2-rcl44-esl29-rsm2-rcm11-esm100-rsr2-rcr2-esr29.npz,,,,,0,2,2,327,,left,green,1.04,847.342973947525,847.6848740577698,1,6,2,lightness,readingArea,realistic,75,2023-03-22_16h15.06.502,tripletExp_regina_11082022,2022.2.4,119.65026087799924,
4,10,9,2,0.694444444444444,0.298245614035088,2,0.694444444444444,1.0,2,0.444444444444444,1.0,ReadingArea_rsl2-rcl69-esl29-rsm2-rcm69-esm100-rsr2-rcr44-esr100,exr/ReadingArea_rsl2-rcl69-esl29-rsm2-rcm69-esm100-rsr2-rcr44-esr100.exr,ReadingArea_rsl2-rcl69-esl29-rsm2-rcm69-esm100-rsr2-rcr44-esr100.npz,,,,,0,3,3,516,,right,red,0.91,849.3943130970001,849.7334930896759,1,6,2,lightness,readingArea,realistic,75,2023-03-22_16h15.06.502,tripletExp_regina_11082022,2022.2.4,119.65026087799924,
4,14,1,2,0.694444444444444,0.298245614035088,2,0.25,3.10526315789474,2,0.111111111111111,0.298245614035088,ReadingArea_rsl2-rcl69-esl29-rsm2-rcm25-esm310-rsr2-rcr11-esr29,exr/ReadingArea_rsl2-rcl69-esl29-rsm2-rcm25-esm310-rsr2-rcr11-esr29.exr,ReadingArea_rsl2-rcl69-esl29-rsm2-rcm25-esm310-rsr2-rcr11-esr29.npz,,,,,0,4,4,477,,left,green,1.06,851.4317059516907,851.7769551277161,1,6,2,lightness,readingArea,realistic,75,2023-03-22_16h15.06.502,tripletExp_regina_11082022,2022.2.4,119.65026087799924,
14,0,3,2,0.25,3.10526315789474,2,0.027777777777778,0.298245614035088,2,0.444444444444444,0.298245614035088,ReadingArea_rsl2-rcl25-esl310-rsm2-rcm2-esm29-rsr2-rcr44-esr29,exr/ReadingArea_rsl2-rcl25-esl310-rsm2-rcm2-esm29-rsr2-rcr44-esr29.exr,ReadingArea_rsl2-rcl25-esl310-rsm2-rcm2-esm29-rsr2-rcr44-esr29.npz,,,,,0,5,5,75,,right,red,1.66,853.481742143631,853.829038143158,1,6,2,lightness,readingArea,realistic,75,2023-03-22_16h15.06.502,tripletExp_regina_11082022,2022.2.4,119.65026087799924,
4,7,5,2,0.694444444444444,0.298245614035088,2,0.111111111111111,1.0,2,1.0,0.298245614035088,ReadingArea_rsl2-rcl69-esl29-rsm2-rcm11-esm100-rsr2-rcr100-esr29,exr/ReadingArea_rsl2-rcl69-esl29-rsm2-rcm11-esm100-rsr2-rcr100-esr29.exr,ReadingArea_rsl2-rcl69-esl29-rsm2-rcm11-esm100-rsr2-rcr100-esr29.npz,,,,,0,6,6,195,,left,green,1.4,855.5162129402161,855.8597090244293,1,6,2,lightness,readingArea,realistic,75,2023-03-22_16h15.06.502,tripletExp_regina_11082022,2022.2.4,119.65026087799924,
1,6,11,2,0.111111111111111,0.298245614035088,2,0.027777777777778,1.0,2,1.0,1.0,ReadingArea_rsl2-rcl11-esl29-rsm2-rcm2-esm100-rsr2-rcr100-esr100,exr/ReadingArea_rsl2-rcl11-esl29-rsm2-rcm2-esm100-rsr2-rcr100-esr100.exr,ReadingArea_rsl2-rcl11-esl29-rsm2-rcm2-esm100-rsr2-rcr100-esr100.npz,,,,,0,7,7,39,,left,green,1.27,857.5797221660614,857.9282400608063,1,6,2,lightness,readingArea,realistic,75,2023-03-22_16h15.06.502,tripletExp_regina_11082022,2022.2.4,119.65026087799924,
14,8,3,2,0.25,3.10526315789474,2,0.25,1.0,2,0.444444444444444,0.298245614035088,ReadingArea_rsl2-rcl25-esl310-rsm2-rcm25-esm100-rsr2-rcr44-esr29,exr/ReadingArea_rsl2-rcl25-esl310-rsm2-rcm25-esm100-rsr2-rcr44-esr29.exr,ReadingArea_rsl2-rcl25-esl310-rsm2-rcm25-esm100-rsr2-rcr44-esr29.npz,,,,,0,8,8,100,,right,red,1.07,859.6422920227051,859.9887139797211,1,6,2,lightness,readingArea,realistic,75,2023-03-22_16h15.06.502,tripletExp_regina_11082022,2022.2.4,119.65026087799924,
2,6,10,2,0.25,0.298245614035088,2,0.027777777777778,1.0,2,0.694444444444444,1.0,ReadingArea_rsl2-rcl25-esl29-rsm2-rcm2-esm100-rsr2-rcr69-esr100,exr/ReadingArea_rsl2-rcl25-esl29-rsm2-rcm2-esm100-rsr2-rcr69-esr100.exr,ReadingArea_rsl2-rcl25-esl29-rsm2-rcm2-esm100-rsr2-rcr69-esr100.npz,,,,,0,9,9,42,,left,green,1.03,861.7150580883026,862.0704300403595,1,6,2,lightness,readingArea,realistic,75,2023-03-22_16h15.06.502,tripletExp_regina_11082022,2022.2.4,119.65026087799924,
13,0,10,2,0.111111111111111,3.10526315789474,2,0.027777777777778,0.298245614035088,2,0.694444444444444,1.0,ReadingArea_rsl2-rcl11-esl310-rsm2-rcm2-esm29-rsr2-rcr69-esr100,exr/ReadingArea_rsl2-rcl11-esl310-rsm2-rcm2-esm29-rsr2-rcr69-esr100.exr,ReadingArea_rsl2-rcl11-esl310-rsm2-rcm2-esm29-rsr2-rcr69-esr100.npz,,,,,0,10,10,505,,left,green,1.33,863.7873711585999,864.1289789676666,1,6,2,lightness,readingArea,realistic,75,2023-03-22_16h15.06.502,tripletExp_regina_11082022,2022.2.4,119.65026087799924,
0,10,12,2,0.027777777777778,0.298245614035088,2,0.694444444444444,1.0,2,0.027777777777778,3.10526315789474,ReadingArea_rsl2-rcl2-esl29-rsm2-rcm69-esm100-rsr2-rcr2-esr310,exr/ReadingArea_rsl2-rcl2-esl29-rsm2-rcm69-esm100-rsr2-rcr2-esr310.exr,ReadingArea_rsl2-rcl2-esl29-rsm2-rcm69-esm100-rsr2-rcr2-esr310.npz,,,,,0,11,11,531,,right,red,1.42,865.8456070423126,866.1878440380096,1,6,2,lightness,readingArea,realistic,75,2023-03-22_16h15.06.502,tripletExp_regina_11082022,2022.2.4,119.65026087799924,
11,1,4,2,1.0,1.0,2,0.111111111111111,0.298245614035088,2,0.694444444444444,0.298245614035088,ReadingArea_rsl2-rcl100-esl100-rsm2-rcm11-esm29-rsr2-rcr69-esr29,exr/ReadingArea_rsl2-rcl100-esl100-rsm2-rcm11-esm29-rsr2-rcr69-esr29.exr,ReadingArea_rsl2-rcl100-esl100-rsm2-rcm11-esm29-rsr2-rcr69-esr29.npz,,,,,0,12,12,110,,right,red,1.21,867.9069421291351,868.2567789554596,1,6,2,lightness,readingArea,realistic,75,2023-03-22_16h15.06.502,tripletExp_regina_11082022,2022.2.4,119.65026087799924,
13,0,14,2,0.111111111111111,3.10526315789474,2,0.027777777777778,0.298245614035088,2,0.25,3.10526315789474,ReadingArea_rsl2-rcl11-esl310-rsm2-rcm2-esm29-rsr2-rcr25-esr310,exr/ReadingArea_rsl2-rcl11-esl310-rsm2-rcm2-esm29-rsr2-rcr25-esr310.exr,ReadingArea_rsl2-rcl11-esl310-rsm2-rcm2-esm29-rsr2-rcr25-esr310.npz,,,,,0,13,13,278,,left,green,1.16,869.9787800312042,870.3213860988617,1,6,2,lightness,readingArea,realistic,75,2023-03-22_16h15.06.502,tripletExp_regina_11082022,2022.2.4,119.65026087799924,
11,0,10,2,1.0,1.0,2,0.027777777777778,0.298245614035088,2,0.694444444444444,1.0,ReadingArea_rsl2-rcl100-esl100-rsm2-rcm2-esm29-rsr2-rcr69-esr100,exr/ReadingArea_rsl2-rcl100-esl100-rsm2-rcm2-esm29-rsr2-rcr69-esr100.exr,ReadingArea_rsl2-rcl100-esl100-rsm2-rcm2-esm29-rsr2-rcr69-esr100.npz,,,,,0,14,14,259,,right,red,1.25,872.0263950824738,872.3722960948944,1,6,2,lightness,readingArea,realistic,75,2023-03-22_16h15.06.502,tripletExp_regina_11082022,2022.2.4,119.65026087799924,
8,12,3,2,0.25,1.0,2,0.027777777777778,3.10526315789474,2,0.444444444444444,0.298245614035088,ReadingArea_rsl2-rcl25-esl100-rsm2-rcm2-esm310-rsr2-rcr44-esr29,exr/ReadingArea_rsl2-rcl25-esl100-rsm2-rcm2-esm310-rsr2-rcr44-esr29.exr,ReadingArea_rsl2-rcl25-esl100-rsm2-rcm2-esm310-rsr2-rcr44-esr29.npz,,,,,0,15,15,6,,right,red,0.96,874.0821430683136,,1,6,2,lightness,readingArea,realistic,75,2023-03-22_16h15.06.502,tripletExp_regina_11082022,2022.2.4,119.65026087799924,
2,6,0,2,0.25,0.298245614035088,2,0.027777777777778,1.0,2,0.027777777777778,0.298245614035088,ReadingArea_rsl2-rcl25-esl29-rsm2-rcm2-esm100-rsr2-rcr2-esr29,exr/ReadingArea_rsl2-rcl25-esl29-rsm2-rcm2-esm100-rsr2-rcr2-esr29.exr,ReadingArea_rsl2-rcl25-esl29-rsm2-rcm2-esm100-rsr2-rcr2-esr29.npz,,,,,0,16,16,525,,right,red,1.53,876.1439559459686,876.4889941215515,1,6,2,lightness,readingArea,realistic,75,2023-03-22_16h15.06.502,tripletExp_regina_11082022,2022.2.4,119.65026087799924,
11,9,4,2,1.0,1.0,2,0.444444444444444,1.0,2,0.694444444444444,0.298245614035088,ReadingArea_rsl2-rcl100-esl100-rsm2-rcm44-esm100-rsr2-rcr69-esr29,exr/ReadingArea_rsl2-rcl100-esl100-rsm2-rcm44-esm100-rsr2-rcr69-esr29.exr,ReadingArea_rsl2-rcl100-esl100-rsm2-rcm44-esm100-rsr2-rcr69-esr29.npz,,,,,0,17,17,26,,right,red,1.15,878.2109611034393,878.5649521350861,1,6,2,lightness,readingArea,realistic,75,2023-03-22_16h15.06.502,tripletExp_regina_11082022,2022.2.4,119.65026087799924,
5,0,6,2,1.0,0.298245614035088,2,0.027777777777778,0.298245614035088,2,0.027777777777778,1.0,ReadingArea_rsl2-rcl100-esl29-rsm2-rcm2-esm29-rsr2-rcr2-esr100,exr/ReadingArea_rsl2-rcl100-esl29-rsm2-rcm2-esm29-rsr2-rcr2-esr100.exr,ReadingArea_rsl2-rcl100-esl29-rsm2-rcm2-esm29-rsr2-rcr2-esr100.npz,,,,,0,18,18,1,,right,red,0.93,880.2580330371857,,1,6,2,lightness,readingArea,realistic,75,2023-03-22_16h15.06.502,tripletExp_regina_11082022,2022.2.4,119.65026087799924,
4,10,11,2,0.694444444444444,0.298245614035088,2,0.694444444444444,1.0,2,1.0,1.0,ReadingArea_rsl2-rcl69-esl29-rsm2-rcm69-esm100-rsr2-rcr100-esr100,exr/ReadingArea_rsl2-rcl69-esl29-rsm2-rcm69-esm100-rsr2-rcr100-esr100.exr,ReadingArea_rsl2-rcl69-esl29-rsm2-rcm69-esm100-rsr2-rcr100-esr100.npz,,,,,0,19,19,180,,right,red,1.6,882.3268661499023,882.6735019683838,1,6,2,lightness,readingArea,realistic,75,2023-03-22_16h15.06.502,tripletExp_regina_11082022,2022.2.4,119.65026087799924,
7,0,2,2,0.111111111111111,1.0,2,0.027777777777778,0.298245614035088,2,0.25,0.298245614035088,ReadingArea_rsl2-rcl11-esl100-rsm2-rcm2-esm29-rsr2-rcr25-esr29,exr/ReadingArea_rsl2-rcl11-esl100-rsm2-rcm2-esm29-rsr2-rcr25-esr29.exr,ReadingArea_rsl2-rcl11-esl100-rsm2-rcm2-esm29-rsr2-rcr25-esr29.npz,,,,,0,20,20,347,,right,red,1.35,884.3975191116333,884.7407839298248,1,6,2,lightness,readingArea,realistic,75,2023-03-22_16h15.06.502,tripletExp_regina_11082022,2022.2.4,119.65026087799924,
11,5,8,2,1.0,1.0,2,1.0,0.298245614035088,2,0.25,1.0,ReadingArea_rsl2-rcl100-esl100-rsm2-rcm100-esm29-rsr2-rcr25-esr100,exr/ReadingArea_rsl2-rcl100-esl100-rsm2-rcm100-esm29-rsr2-rcr25-esr100.exr,ReadingArea_rsl2-rcl100-esl100-rsm2-rcm100-esm29-rsr2-rcr25-esr100.npz,,,,,0,21,21,86,,right,red,1.29,886.4339771270752,,1,6,2,lightness,readingArea,realistic,75,2023-03-22_16h15.06.502,tripletExp_regina_11082022,2022.2.4,119.65026087799924,
11,0,12,2,1.0,1.0,2,0.027777777777778,0.298245614035088,2,0.027777777777778,3.10526315789474,ReadingArea_rsl2-rcl100-esl100-rsm2-rcm2-esm29-rsr2-rcr2-esr310,exr/ReadingArea_rsl2-rcl100-esl100-rsm2-rcm2-esm29-rsr2-rcr2-esr310.exr,ReadingArea_rsl2-rcl100-esl100-rsm2-rcm2-esm29-rsr2-rcr2-esr310.npz,,,,,0,22,22,166,,right,red,1.73,888.4970710277557,888.8409080505371,1,6,2,lightness,readingArea,realistic,75,2023-03-22_16h15.06.502,tripletExp_regina_11082022,2022.2.4,119.65026087799924,
11,3,12,2,1.0,1.0,2,0.444444444444444,0.298245614035088,2,0.027777777777778,3.10526315789474,ReadingArea_rsl2-rcl100-esl100-rsm2-rcm44-esm29-rsr2-rcr2-esr310,exr/ReadingArea_rsl2-rcl100-esl100-rsm2-rcm44-esm29-rsr2-rcr2-esr310.exr,ReadingArea_rsl2-rcl100-esl100-rsm2-rcm44-esm29-rsr2-rcr2-esr310.npz,,,,,0,23,23,355,,right,red,1.49,890.5624189376831,890.907909154892,1,6,2,lightness,readingArea,realistic,75,2023-03-22_16h15.06.502,tripletExp_regina_11082022,2022.2.4,119.65026087799924,
0,4,7,2,0.027777777777778,0.298245614035088,2,0.694444444444444,0.298245614035088,2,0.111111111111111,1.0,ReadingArea_rsl2-rcl2-esl29-rsm2-rcm69-esm29-rsr2-rcr11-esr100,exr/ReadingArea_rsl2-rcl2-esl29-rsm2-rcm69-esm29-rsr2-rcr11-esr100.exr,ReadingArea_rsl2-rcl2-esl29-rsm2-rcm69-esm29-rsr2-rcr11-esr100.npz,,,,,0,24,24,200,,right,red,1.24,892.6262540817261,,1,6,2,lightness,readingArea,realistic,75,2023-03-22_16h15.06.502,tripletExp_regina_11082022,2022.2.4,119.65026087799924,
12,6,14,2,0.027777777777778,3.10526315789474,2,0.027777777777778,1.0,2,0.25,3.10526315789474,ReadingArea_rsl2-rcl2-esl310-rsm2-rcm2-esm100-rsr2-rcr25-esr310,exr/ReadingArea_rsl2-rcl2-esl310-rsm2-rcm2-esm100-rsr2-rcr25-esr310.exr,ReadingArea_rsl2-rcl2-esl310-rsm2-rcm2-esm100-rsr2-rcr25-esr310.npz,,,,,0,25,25,218,,left,green,1.0,894.7080340385437,895.068029165268,1,6,2,lightness,readingArea,realistic,75,2023-03-22_16h15.06.502,tripletExp_regina_11082022,2022.2.4,119.65026087799924,
5,3,0,2,1.0,0.298245614035088,2,0.444444444444444,0.298245614035088,2,0.027777777777778,0.298245614035088,ReadingArea_rsl2-rcl100-esl29-rsm2-rcm44-esm29-rsr2-rcr2-esr29,exr/ReadingArea_rsl2-rcl100-esl29-rsm2-rcm44-esm29-rsr2-rcr2-esr29.exr,ReadingArea_rsl2-rcl100-esl29-rsm2-rcm44-esm29-rsr2-rcr2-esr29.npz,,,,,0,26,26,303,,left,green,0.98,896.7750940322876,897.117870092392,1,6,2,lightness,readingArea,realistic,75,2023-03-22_16h15.06.502,tripletExp_regina_11082022,2022.2.4,119.65026087799924,
6,1,10,2,0.027777777777778,1.0,2,0.111111111111111,0.298245614035088,2,0.694444444444444,1.0,ReadingArea_rsl2-rcl2-esl100-rsm2-rcm11-esm29-rsr2-rcr69-esr100,exr/ReadingArea_rsl2-rcl2-esl100-rsm2-rcm11-esm29-rsr2-rcr69-esr100.exr,ReadingArea_rsl2-rcl2-esl100-rsm2-rcm11-esm29-rsr2-rcr69-esr100.npz,,,,,0,27,27,561,,left,green,0.8,898.8410501480103,899.1885161399841,1,6,2,lightness,readingArea,realistic,75,2023-03-22_16h15.06.502,tripletExp_regina_11082022,2022.2.4,119.65026087799924,
5,2,0,2,1.0,0.298245614035088,2,0.25,0.298245614035088,2,0.027777777777778,0.298245614035088,ReadingArea_rsl2-rcl100-esl29-rsm2-rcm25-esm29-rsr2-rcr2-esr29,exr/ReadingArea_rsl2-rcl100-esl29-rsm2-rcm25-esm29-rsr2-rcr2-esr29.exr,ReadingArea_rsl2-rcl100-esl29-rsm2-rcm25-esm29-rsr2-rcr2-esr29.npz,,,,,0,28,28,476,,left,green,1.08,900.898029088974,901.2447891235352,1,6,2,lightness,readingArea,realistic,75,2023-03-22_16h15.06.502,tripletExp_regina_11082022,2022.2.4,119.65026087799924,
12,1,2,2,0.027777777777778,3.10526315789474,2,0.111111111111111,0.298245614035088,2,0.25,0.298245614035088,ReadingArea_rsl2-rcl2-esl310-rsm2-rcm11-esm29-rsr2-rcr25-esr29,exr/ReadingArea_rsl2-rcl2-esl310-rsm2-rcm11-esm29-rsr2-rcr25-esr29.exr,ReadingArea_rsl2-rcl2-esl310-rsm2-rcm11-esm29-rsr2-rcr25-esr29.npz,,,,,0,29,29,231,,right,red,1.33,902.9389090538024,903.2880289554596,1,6,2,lightness,readingArea,realistic,75,2023-03-22_16h15.06.502,tripletExp_regina_11082022,2022.2.4,119.65026087799924,
13,0,8,2,0.111111111111111,3.10526315789474,2,0.027777777777778,0.298245614035088,2,0.25,1.0,ReadingArea_rsl2-rcl11-esl310-rsm2-rcm2-esm29-rsr2-rcr25-esr100,exr/ReadingArea_rsl2-rcl11-esl310-rsm2-rcm2-esm29-rsr2-rcr25-esr100.exr,ReadingArea_rsl2-rcl11-esl310-rsm2-rcm2-esm29-rsr2-rcr25-esr100.npz,,,,,0,30,30,249,,right,red,1.56,905.0098631381989,905.3550591468812,1,6,2,lightness,readingArea,realistic,75,2023-03-22_16h15.06.502,tripletExp_regina_11082022,2022.2.4,119.65026087799924,
4,2,9,2,0.694444444444444,0.298245614035088,2,0.25,0.298245614035088,2,0.444444444444444,1.0,ReadingArea_rsl2-rcl69-esl29-rsm2-rcm25-esm29-rsr2-rcr44-esr100,exr/ReadingArea_rsl2-rcl69-esl29-rsm2-rcm25-esm29-rsr2-rcr44-esr100.exr,ReadingArea_rsl2-rcl69-esl29-rsm2-rcm25-esm29-rsr2-rcr44-esr100.npz,,,,,0,31,31,479,,left,green,1.42,907.0421919822692,907.3885049819946,1,6,2,lightness,readingArea,realistic,75,2023-03-22_16h15.06.502,tripletExp_regina_11082022,2022.2.4,119.65026087799924,
13,6,1,2,0.111111111111111,3.10526315789474,2,0.027777777777778,1.0,2,0.111111111111111,0.298245614035088,ReadingArea_rsl2-rcl11-esl310-rsm2-rcm2-esm100-rsr2-rcr11-esr29,exr/ReadingArea_rsl2-rcl11-esl310-rsm2-rcm2-esm100-rsr2-rcr11-esr29.exr,ReadingArea_rsl2-rcl11-esl310-rsm2-rcm2-esm100-rsr2-rcr11-esr29.npz,,,,,0,32,32,486,,right,red,1.42,909.1105539798735,909.4539890289308,1,6,2,lightness,readingArea,realistic,75,2023-03-22_16h15.06.502,tripletExp_regina_11082022,2022.2.4,119.65026087799924,
13,1,3,2,0.111111111111111,3.10526315789474,2,0.111111111111111,0.298245614035088,2,0.444444444444444,0.298245614035088,ReadingArea_rsl2-rcl11-esl310-rsm2-rcm11-esm29-rsr2-rcr44-esr29,exr/ReadingArea_rsl2-rcl11-esl310-rsm2-rcm11-esm29-rsr2-rcr44-esr29.exr,ReadingArea_rsl2-rcl11-esl310-rsm2-rcm11-esm29-rsr2-rcr44-esr29.npz,,,,,0,33,33,588,,right,red,1.68,911.1659519672394,911.51358294487,1,6,2,lightness,readingArea,realistic,75,2023-03-22_16h15.06.502,tripletExp_regina_11082022,2022.2.4,119.65026087799924,
10,7,4,2,0.694444444444444,1.0,2,0.111111111111111,1.0,2,0.694444444444444,0.298245614035088,ReadingArea_rsl2-rcl69-esl100-rsm2-rcm11-esm100-rsr2-rcr69-esr29,exr/ReadingArea_rsl2-rcl69-esl100-rsm2-rcm11-esm100-rsr2-rcr69-esr29.exr,ReadingArea_rsl2-rcl69-esl100-rsm2-rcm11-esm100-rsr2-rcr69-esr29.npz,,,,,0,34,34,223,,right,red,2.08,914.9938459396362,915.3401401042938,1,6,2,lightness,readingArea,realistic,75,2023-03-22_16h15.06.502,tripletExp_regina_11082022,2022.2.4,119.65026087799924,
7,10,4,2,0.111111111111111,1.0,2,0.694444444444444,1.0,2,0.694444444444444,0.298245614035088,ReadingArea_rsl2-rcl11-esl100-rsm2-rcm69-esm100-rsr2-rcr69-esr29,exr/ReadingArea_rsl2-rcl11-esl100-rsm2-rcm69-esm100-rsr2-rcr69-esr29.exr,ReadingArea_rsl2-rcl11-esl100-rsm2-rcm69-esm100-rsr2-rcr69-esr29.npz,,,,,0,35,35,46,,right,red,1.14,917.03000497818,,1,6,2,lightness,readingArea,realistic,75,2023-03-22_16h15.06.502,tripletExp_regina_11082022,2022.2.4,119.65026087799924,
11,14,9,2,1.0,1.0,2,0.25,3.10526315789474,2,0.444444444444444,1.0,ReadingArea_rsl2-rcl100-esl100-rsm2-rcm25-esm310-rsr2-rcr44-esr100,exr/ReadingArea_rsl2-rcl100-esl100-rsm2-rcm25-esm310-rsr2-rcr44-esr100.exr,ReadingArea_rsl2-rcl100-esl100-rsm2-rcm25-esm310-rsr2-rcr44-esr100.npz,,,,,0,36,36,43,,right,red,2.81,920.8766860961914,921.2244520187378,1,6,2,lightness,readingArea,realistic,75,2023-03-22_16h15.06.502,tripletExp_regina_11082022,2022.2.4,119.65026087799924,
2,8,11,2,0.25,0.298245614035088,2,0.25,1.0,2,1.0,1.0,ReadingArea_rsl2-rcl25-esl29-rsm2-rcm25-esm100-rsr2-rcr100-esr100,exr/ReadingArea_rsl2-rcl25-esl29-rsm2-rcm25-esm100-rsr2-rcr100-esr100.exr,ReadingArea_rsl2-rcl25-esl29-rsm2-rcm25-esm100-rsr2-rcr100-esr100.npz,,,,,0,37,37,225,,left,green,2.59,924.6870269775392,925.0347621440887,1,6,2,lightness,readingArea,realistic,75,2023-03-22_16h15.06.502,tripletExp_regina_11082022,2022.2.4,119.65026087799924,
12,11,6,2,0.027777777777778,3.10526315789474,2,1.0,1.0,2,0.027777777777778,1.0,ReadingArea_rsl2-rcl2-esl310-rsm2-rcm100-esm100-rsr2-rcr2-esr100,exr/ReadingArea_rsl2-rcl2-esl310-rsm2-rcm100-esm100-rsr2-rcr2-esr100.exr,ReadingArea_rsl2-rcl2-esl310-rsm2-rcm100-esm100-rsr2-rcr2-esr100.npz,,,,,0,38,38,163,,left,green,1.27,926.7212290763856,927.0653030872344,1,6,2,lightness,readingArea,realistic,75,2023-03-22_16h15.06.502,tripletExp_regina_11082022,2022.2.4,119.65026087799924,
1,9,8,2,0.111111111111111,0.298245614035088,2,0.444444444444444,1.0,2,0.25,1.0,ReadingArea_rsl2-rcl11-esl29-rsm2-rcm44-esm100-rsr2-rcr25-esr100,exr/ReadingArea_rsl2-rcl11-esl29-rsm2-rcm44-esm100-rsr2-rcr25-esr100.exr,ReadingArea_rsl2-rcl11-esl29-rsm2-rcm44-esm100-rsr2-rcr25-esr100.npz,,,,,0,39,39,268,,right,red,1.24,928.7605669498444,929.1095089912416,1,6,2,lightness,readingArea,realistic,75,2023-03-22_16h15.06.502,tripletExp_regina_11082022,2022.2.4,119.65026087799924,
10,5,1,2,0.694444444444444,1.0,2,1.0,0.298245614035088,2,0.111111111111111,0.298245614035088,ReadingArea_rsl2-rcl69-esl100-rsm2-rcm100-esm29-rsr2-rcr11-esr29,exr/ReadingArea_rsl2-rcl69-esl100-rsm2-rcm100-esm29-rsr2-rcr11-esr29.exr,ReadingArea_rsl2-rcl69-esl100-rsm2-rcm100-esm29-rsr2-rcr11-esr29.npz,,,,,0,40,40,152,,left,green,2.7,932.6163749694824,,1,6,2,lightness,readingArea,realistic,75,2023-03-22_16h15.06.502,tripletExp_regina_11082022,2022.2.4,119.65026087799924,
4,5,9,2,0.694444444444444,0.298245614035088,2,1.0,0.298245614035088,2,0.444444444444444,1.0,ReadingArea_rsl2-rcl69-esl29-rsm2-rcm100-esm29-rsr2-rcr44-esr100,exr/ReadingArea_rsl2-rcl69-esl29-rsm2-rcm100-esm29-rsr2-rcr44-esr100.exr,ReadingArea_rsl2-rcl69-esl29-rsm2-rcm100-esm29-rsr2-rcr44-esr100.npz,,,,,0,41,41,211,,right,red,1.31,934.7039079666138,935.0519700050354,1,6,2,lightness,readingArea,realistic,75,2023-03-22_16h15.06.502,tripletExp_regina_11082022,2022.2.4,119.65026087799924,
3,4,0,2,0.444444444444444,0.298245614035088,2,0.694444444444444,0.298245614035088,2,0.027777777777778,0.298245614035088,ReadingArea_rsl2-rcl44-esl29-rsm2-rcm69-esm29-rsr2-rcr2-esr29,exr/ReadingArea_rsl2-rcl44-esl29-rsm2-rcm69-esm29-rsr2-rcr2-esr29.exr,ReadingArea_rsl2-rcl44-esl29-rsm2-rcm69-esm29-rsr2-rcr2-esr29.npz,,,,,0,42,42,130,,left,green,1.32,936.741336107254,,1,6,2,lightness,readingArea,realistic,75,2023-03-22_16h15.06.502,tripletExp_regina_11082022,2022.2.4,119.65026087799924,
1,11,12,2,0.111111111111111,0.298245614035088,2,1.0,1.0,2,0.027777777777778,3.10526315789474,ReadingArea_rsl2-rcl11-esl29-rsm2-rcm100-esm100-rsr2-rcr2-esr310,exr/ReadingArea_rsl2-rcl11-esl29-rsm2-rcm100-esm100-rsr2-rcr2-esr310.exr,ReadingArea_rsl2-rcl11-esl29-rsm2-rcm100-esm100-rsr2-rcr2-esr310.npz,,,,,0,43,43,288,,right,red,1.46,938.7881979942322,939.137120962143,1,6,2,lightness,readingArea,realistic,75,2023-03-22_16h15.06.502,tripletExp_regina_11082022,2022.2.4,119.65026087799924,
1,4,7,2,0.111111111111111,0.298245614035088,2,0.694444444444444,0.298245614035088,2,0.111111111111111,1.0,ReadingArea_rsl2-rcl11-esl29-rsm2-rcm69-esm29-rsr2-rcr11-esr100,exr/ReadingArea_rsl2-rcl11-esl29-rsm2-rcm69-esm29-rsr2-rcr11-esr100.exr,ReadingArea_rsl2-rcl11-esl29-rsm2-rcm69-esm29-rsr2-rcr11-esr100.npz,,,,,0,44,44,522,,right,red,1.48,940.8563079833984,941.2063851356506,1,6,2,lightness,readingArea,realistic,75,2023-03-22_16h15.06.502,tripletExp_regina_11082022,2022.2.4,119.65026087799924,
8,12,4,2,0.25,1.0,2,0.027777777777778,3.10526315789474,2,0.694444444444444,0.298245614035088,ReadingArea_rsl2-rcl25-esl100-rsm2-rcm2-esm310-rsr2-rcr69-esr29,exr/ReadingArea_rsl2-rcl25-esl100-rsm2-rcm2-esm310-rsr2-rcr69-esr29.exr,ReadingArea_rsl2-rcl25-esl100-rsm2-rcm2-esm310-rsr2-rcr69-esr29.npz,,,,,0,45,45,30,,right,red,2.91,944.669711112976,945.01966714859,1,6,2,lightness,readingArea,realistic,75,2023-03-22_16h15.06.502,tripletExp_regina_11082022,2022.2.4,119.65026087799924,
12,5,4,2,0.027777777777778,3.10526315789474,2,1.0,0.298245614035088,2,0.694444444444444,0.298245614035088,ReadingArea_rsl2-rcl2-esl310-rsm2-rcm100-esm29-rsr2-rcr69-esr29,exr/ReadingArea_rsl2-rcl2-esl310-rsm2-rcm100-esm29-rsr2-rcr69-esr29.exr,ReadingArea_rsl2-rcl2-esl310-rsm2-rcm100-esm29-rsr2-rcr69-esr29.npz,,,,,0,46,46,566,,right,red,1.14,946.7064831256866,947.0554809570312,1,6,2,lightness,readingArea,realistic,75,2023-03-22_16h15.06.502,tripletExp_regina_11082022,2022.2.4,119.65026087799924,
7,6,11,2,0.111111111111111,1.0,2,0.027777777777778,1.0,2,1.0,1.0,ReadingArea_rsl2-rcl11-esl100-rsm2-rcm2-esm100-rsr2-rcr100-esr100,exr/ReadingArea_rsl2-rcl11-esl100-rsm2-rcm2-esm100-rsr2-rcr100-esr100.exr,ReadingArea_rsl2-rcl11-esl100-rsm2-rcm2-esm100-rsr2-rcr100-esr100.npz,,,,,0,47,47,84,,left,green,2.87,950.5106699466704,,1,6,2,lightness,readingArea,realistic,75,2023-03-22_16h15.06.502,tripletExp_regina_11082022,2022.2.4,119.65026087799924,
13,9,6,2,0.111111111111111,3.10526315789474,2,0.444444444444444,1.0,2,0.027777777777778,1.0,ReadingArea_rsl2-rcl11-esl310-rsm2-rcm44-esm100-rsr2-rcr2-esr100,exr/ReadingArea_rsl2-rcl11-esl310-rsm2-rcm44-esm100-rsr2-rcr2-esr100.exr,ReadingArea_rsl2-rcl11-esl310-rsm2-rcm44-esm100-rsr2-rcr2-esr100.npz,,,,,0,48,48,19,,left,green,2.54,954.3470180034636,954.6995279788972,1,6,2,lightness,readingArea,realistic,75,2023-03-22_16h15.06.502,tripletExp_regina_11082022,2022.2.4,119.65026087799924,
5,11,8,2,1.0,0.298245614035088,2,1.0,1.0,2,0.25,1.0,ReadingArea_rsl2-rcl100-esl29-rsm2-rcm100-esm100-rsr2-rcr25-esr100,exr/ReadingArea_rsl2-rcl100-esl29-rsm2-rcm100-esm100-rsr2-rcr25-esr100.exr,ReadingArea_rsl2-rcl100-esl29-rsm2-rcm100-esm100-rsr2-rcr25-esr100.npz,,,,,0,49,49,548,,left,green,3.0,958.1604371070862,958.504676103592,1,6,2,lightness,readingArea,realistic,75,2023-03-22_16h15.06.502,tripletExp_regina_11082022,2022.2.4,119.65026087799924,
10,8,11,2,0.694444444444444,1.0,2,0.25,1.0,2,1.0,1.0,ReadingArea_rsl2-rcl69-esl100-rsm2-rcm25-esm100-rsr2-rcr100-esr100,exr/ReadingArea_rsl2-rcl69-esl100-rsm2-rcm25-esm100-rsr2-rcr100-esr100.exr,ReadingArea_rsl2-rcl69-esl100-rsm2-rcm25-esm100-rsr2-rcr100-esr100.npz,,,,,0,50,50,578,,left,green,2.63,962.0032751560212,962.348482131958,1,6,2,lightness,readingArea,realistic,75,2023-03-22_16h15.06.502,tripletExp_regina_11082022,2022.2.4,119.65026087799924,
10,7,11,2,0.694444444444444,1.0,2,0.111111111111111,1.0,2,1.0,1.0,ReadingArea_rsl2-rcl69-esl100-rsm2-rcm11-esm100-rsr2-rcr100-esr100,exr/ReadingArea_rsl2-rcl69-esl100-rsm2-rcm11-esm100-rsr2-rcr100-esr100.exr,ReadingArea_rsl2-rcl69-esl100-rsm2-rcm11-esm100-rsr2-rcr100-esr100.npz,,,,,0,51,51,542,,left,green,1.1,964.043125152588,964.3888790607452,1,6,2,lightness,readingArea,realistic,75,2023-03-22_16h15.06.502,tripletExp_regina_11082022,2022.2.4,119.65026087799924,
13,8,5,2,0.111111111111111,3.10526315789474,2,0.25,1.0,2,1.0,0.298245614035088,ReadingArea_rsl2-rcl11-esl310-rsm2-rcm25-esm100-rsr2-rcr100-esr29,exr/ReadingArea_rsl2-rcl11-esl310-rsm2-rcm25-esm100-rsr2-rcr100-esr29.exr,ReadingArea_rsl2-rcl11-esl310-rsm2-rcm25-esm100-rsr2-rcr100-esr29.npz,,,,,0,52,52,209,,right,red,0.99,966.1075961589812,966.4564671516418,1,6,2,lightness,readingArea,realistic,75,2023-03-22_16h15.06.502,tripletExp_regina_11082022,2022.2.4,119.65026087799924,
6,1,2,2,0.027777777777778,1.0,2,0.111111111111111,0.298245614035088,2,0.25,0.298245614035088,ReadingArea_rsl2-rcl2-esl100-rsm2-rcm11-esm29-rsr2-rcr25-esr29,exr/ReadingArea_rsl2-rcl2-esl100-rsm2-rcm11-esm29-rsr2-rcr25-esr29.exr,ReadingArea_rsl2-rcl2-esl100-rsm2-rcm11-esm29-rsr2-rcr25-esr29.npz,,,,,0,53,53,68,,right,red,1.4,968.1484389305116,968.499174118042,1,6,2,lightness,readingArea,realistic,75,2023-03-22_16h15.06.502,tripletExp_regina_11082022,2022.2.4,119.65026087799924,
8,10,6,2,0.25,1.0,2,0.694444444444444,1.0,2,0.027777777777778,1.0,ReadingArea_rsl2-rcl25-esl100-rsm2-rcm69-esm100-rsr2-rcr2-esr100,exr/ReadingArea_rsl2-rcl25-esl100-rsm2-rcm69-esm100-rsr2-rcr2-esr100.exr,ReadingArea_rsl2-rcl25-esl100-rsm2-rcm69-esm100-rsr2-rcr2-esr100.npz,,,,,0,54,54,129,,left,green,2.51,971.9549250602722,972.3002271652222,1,6,2,lightness,readingArea,realistic,75,2023-03-22_16h15.06.502,tripletExp_regina_11082022,2022.2.4,119.65026087799924,
6,0,1,2,0.027777777777778,1.0,2,0.027777777777778,0.298245614035088,2,0.111111111111111,0.298245614035088,ReadingArea_rsl2-rcl2-esl100-rsm2-rcm2-esm29-rsr2-rcr11-esr29,exr/ReadingArea_rsl2-rcl2-esl100-rsm2-rcm2-esm29-rsr2-rcr11-esr29.exr,ReadingArea_rsl2-rcl2-esl100-rsm2-rcm2-esm29-rsr2-rcr11-esr29.npz,,,,,0,55,55,302,,left,green,2.51,975.786369085312,976.1350221633912,1,6,2,lightness,readingArea,realistic,75,2023-03-22_16h15.06.502,tripletExp_regina_11082022,2022.2.4,119.65026087799924,
4,12,2,2,0.694444444444444,0.298245614035088,2,0.027777777777778,3.10526315789474,2,0.25,0.298245614035088,ReadingArea_rsl2-rcl69-esl29-rsm2-rcm2-esm310-rsr2-rcr25-esr29,exr/ReadingArea_rsl2-rcl69-esl29-rsm2-rcm2-esm310-rsr2-rcr25-esr29.exr,ReadingArea_rsl2-rcl69-esl29-rsm2-rcm2-esm310-rsr2-rcr25-esr29.npz,,,,,0,56,56,543,,right,red,1.44,977.833083152771,978.1833181381226,1,6,2,lightness,readingArea,realistic,75,2023-03-22_16h15.06.502,tripletExp_regina_11082022,2022.2.4,119.65026087799924,
3,0,8,2,0.444444444444444,0.298245614035088,2,0.027777777777778,0.298245614035088,2,0.25,1.0,ReadingArea_rsl2-rcl44-esl29-rsm2-rcm2-esm29-rsr2-rcr25-esr100,exr/ReadingArea_rsl2-rcl44-esl29-rsm2-rcm2-esm29-rsr2-rcr25-esr100.exr,ReadingArea_rsl2-rcl44-esl29-rsm2-rcm2-esm29-rsr2-rcr25-esr100.npz,,,,,0,57,57,510,,left,green,3.29,981.6951580047609,982.0433089733124,1,6,2,lightness,readingArea,realistic,75,2023-03-22_16h15.06.502,tripletExp_regina_11082022,2022.2.4,119.65026087799924,
6,11,1,2,0.027777777777778,1.0,2,1.0,1.0,2,0.111111111111111,0.298245614035088,ReadingArea_rsl2-rcl2-esl100-rsm2-rcm100-esm100-rsr2-rcr11-esr29,exr/ReadingArea_rsl2-rcl2-esl100-rsm2-rcm100-esm100-rsr2-rcr11-esr29.exr,ReadingArea_rsl2-rcl2-esl100-rsm2-rcm100-esm100-rsr2-rcr11-esr29.npz,,,,,0,58,58,436,,left,green,2.83,985.4961259365082,985.8450450897216,1,6,2,lightness,readingArea,realistic,75,2023-03-22_16h15.06.502,tripletExp_regina_11082022,2022.2.4,119.65026087799924,
4,2,13,2,0.694444444444444,0.298245614035088,2,0.25,0.298245614035088,2,0.111111111111111,3.10526315789474,ReadingArea_rsl2-rcl69-esl29-rsm2-rcm25-esm29-rsr2-rcr11-esr310,exr/ReadingArea_rsl2-rcl69-esl29-rsm2-rcm25-esm29-rsr2-rcr11-esr310.exr,ReadingArea_rsl2-rcl69-esl29-rsm2-rcm25-esm29-rsr2-rcr11-esr310.npz,,,,,0,59,59,304,,left,green,1.54,987.5449750423433,987.897031068802,1,6,2,lightness,readingArea,realistic,75,2023-03-22_16h15.06.502,tripletExp_regina_11082022,2022.2.4,119.65026087799924,
9,4,11,2,0.444444444444444,1.0,2,0.694444444444444,0.298245614035088,2,1.0,1.0,ReadingArea_rsl2-rcl44-esl100-rsm2-rcm69-esm29-rsr2-rcr100-esr100,exr/ReadingArea_rsl2-rcl44-esl100-rsm2-rcm69-esm29-rsr2-rcr100-esr100.exr,ReadingArea_rsl2-rcl44-esl100-rsm2-rcm69-esm29-rsr2-rcr100-esr100.npz,,,,,0,60,60,133,,left,green,2.96,991.3597600460052,991.7140440940856,1,6,2,lightness,readingArea,realistic,75,2023-03-22_16h15.06.502,tripletExp_regina_11082022,2022.2.4,119.65026087799924,
13,2,9,2,0.111111111111111,3.10526315789474,2,0.25,0.298245614035088,2,0.444444444444444,1.0,ReadingArea_rsl2-rcl11-esl310-rsm2-rcm25-esm29-rsr2-rcr44-esr100,exr/ReadingArea_rsl2-rcl11-esl310-rsm2-rcm25-esm29-rsr2-rcr44-esr100.exr,ReadingArea_rsl2-rcl11-esl310-rsm2-rcm25-esm29-rsr2-rcr44-esr100.npz,,,,,0,61,61,457,,left,green,3.03,995.1752350330352,995.522791147232,1,6,2,lightness,readingArea,realistic,75,2023-03-22_16h15.06.502,tripletExp_regina_11082022,2022.2.4,119.65026087799924,
9,6,8,2,0.444444444444444,1.0,2,0.027777777777778,1.0,2,0.25,1.0,ReadingArea_rsl2-rcl44-esl100-rsm2-rcm2-esm100-rsr2-rcr25-esr100,exr/ReadingArea_rsl2-rcl44-esl100-rsm2-rcm2-esm100-rsr2-rcr25-esr100.exr,ReadingArea_rsl2-rcl44-esl100-rsm2-rcm2-esm100-rsr2-rcr25-esr100.npz,,,,,0,62,62,312,,right,red,1.57,997.231852054596,997.58131814003,1,6,2,lightness,readingArea,realistic,75,2023-03-22_16h15.06.502,tripletExp_regina_11082022,2022.2.4,119.65026087799924,
8,14,3,2,0.25,1.0,2,0.25,3.10526315789474,2,0.444444444444444,0.298245614035088,ReadingArea_rsl2-rcl25-esl100-rsm2-rcm25-esm310-rsr2-rcr44-esr29,exr/ReadingArea_rsl2-rcl25-esl100-rsm2-rcm25-esm310-rsr2-rcr44-esr29.exr,ReadingArea_rsl2-rcl25-esl100-rsm2-rcm25-esm310-rsr2-rcr44-esr29.npz,,,,,0,63,63,503,,left,green,2.77,1001.0747909545898,1001.4228601455688,1,6,2,lightness,readingArea,realistic,75,2023-03-22_16h15.06.502,tripletExp_regina_11082022,2022.2.4,119.65026087799924,
14,10,9,2,0.25,3.10526315789474,2,0.694444444444444,1.0,2,0.444444444444444,1.0,ReadingArea_rsl2-rcl25-esl310-rsm2-rcm69-esm100-rsr2-rcr44-esr100,exr/ReadingArea_rsl2-rcl25-esl310-rsm2-rcm69-esm100-rsr2-rcr44-esr100.exr,ReadingArea_rsl2-rcl25-esl310-rsm2-rcm69-esm100-rsr2-rcr44-esr100.npz,,,,,0,64,64,402,,left,green,2.56,1004.881138086319,1005.2404780387878,1,6,2,lightness,readingArea,realistic,75,2023-03-22_16h15.06.502,tripletExp_regina_11082022,2022.2.4,119.65026087799924,
5,11,14,2,1.0,0.298245614035088,2,1.0,1.0,2,0.25,3.10526315789474,ReadingArea_rsl2-rcl100-esl29-rsm2-rcm100-esm100-rsr2-rcr25-esr310,exr/ReadingArea_rsl2-rcl100-esl29-rsm2-rcm100-esm100-rsr2-rcr25-esr310.exr,ReadingArea_rsl2-rcl100-esl29-rsm2-rcm100-esm100-rsr2-rcr25-esr310.npz,,,,,0,65,65,258,,right,red,1.02,1006.937471151352,1007.2899730205536,1,6,2,lightness,readingArea,realistic,75,2023-03-22_16h15.06.502,tripletExp_regina_11082022,2022.2.4,119.65026087799924,
14,8,9,2,0.25,3.10526315789474,2,0.25,1.0,2,0.444444444444444,1.0,ReadingArea_rsl2-rcl25-esl310-rsm2-rcm25-esm100-rsr2-rcr44-esr100,exr/ReadingArea_rsl2-rcl25-esl310-rsm2-rcm25-esm100-rsr2-rcr44-esr100.exr,ReadingArea_rsl2-rcl25-esl310-rsm2-rcm25-esm100-rsr2-rcr44-esr100.npz,,,,,0,66,66,518,,right,red,2.45,1010.7376561164856,1011.1801190376282,1,6,2,lightness,readingArea,realistic,75,2023-03-22_16h15.06.502,tripletExp_regina_11082022,2022.2.4,119.65026087799924,
12,9,14,2,0.027777777777778,3.10526315789474,2,0.444444444444444,1.0,2,0.25,3.10526315789474,ReadingArea_rsl2-rcl2-esl310-rsm2-rcm44-esm100-rsr2-rcr25-esr310,exr/ReadingArea_rsl2-rcl2-esl310-rsm2-rcm44-esm100-rsr2-rcr25-esr310.exr,ReadingArea_rsl2-rcl2-esl310-rsm2-rcm44-esm100-rsr2-rcr25-esr310.npz,,,,,0,67,67,123,,right,red,1.09,1012.8754179477692,1013.2243700027466,1,6,2,lightness,readingArea,realistic,75,2023-03-22_16h15.06.502,tripletExp_regina_11082022,2022.2.4,119.65026087799924,
2,9,10,2,0.25,0.298245614035088,2,0.444444444444444,1.0,2,0.694444444444444,1.0,ReadingArea_rsl2-rcl25-esl29-rsm2-rcm44-esm100-rsr2-rcr69-esr100,exr/ReadingArea_rsl2-rcl25-esl29-rsm2-rcm44-esm100-rsr2-rcr69-esr100.exr,ReadingArea_rsl2-rcl25-esl29-rsm2-rcm44-esm100-rsr2-rcr69-esr100.npz,,,,,0,68,68,117,,right,red,1.06,1014.9322190284728,1015.2969789505004,1,6,2,lightness,readingArea,realistic,75,2023-03-22_16h15.06.502,tripletExp_regina_11082022,2022.2.4,119.65026087799924,
5,3,6,2,1.0,0.298245614035088,2,0.444444444444444,0.298245614035088,2,0.027777777777778,1.0,ReadingArea_rsl2-rcl100-esl29-rsm2-rcm44-esm29-rsr2-rcr2-esr100,exr/ReadingArea_rsl2-rcl100-esl29-rsm2-rcm44-esm29-rsr2-rcr2-esr100.exr,ReadingArea_rsl2-rcl100-esl29-rsm2-rcm44-esm29-rsr2-rcr2-esr100.npz,,,,,0,69,69,316,,left,green,0.91,1016.9850070476532,1017.3345770835876,1,6,2,lightness,readingArea,realistic,75,2023-03-22_16h15.06.502,tripletExp_regina_11082022,2022.2.4,119.65026087799924,
0,1,6,2,0.027777777777778,0.298245614035088,2,0.111111111111111,0.298245614035088,2,0.027777777777778,1.0,ReadingArea_rsl2-rcl2-esl29-rsm2-rcm11-esm29-rsr2-rcr2-esr100,exr/ReadingArea_rsl2-rcl2-esl29-rsm2-rcm11-esm29-rsr2-rcr2-esr100.exr,ReadingArea_rsl2-rcl2-esl29-rsm2-rcm11-esm29-rsr2-rcr2-esr100.npz,,,,,0,70,70,375,,right,red,3.01,1020.8223960399628,1021.286453962326,1,6,2,lightness,readingArea,realistic,75,2023-03-22_16h15.06.502,tripletExp_regina_11082022,2022.2.4,119.65026087799924,
14,10,5,2,0.25,3.10526315789474,2,0.694444444444444,1.0,2,1.0,0.298245614035088,ReadingArea_rsl2-rcl25-esl310-rsm2-rcm69-esm100-rsr2-rcr100-esr29,exr/ReadingArea_rsl2-rcl25-esl310-rsm2-rcm69-esm100-rsr2-rcr100-esr29.exr,ReadingArea_rsl2-rcl25-esl310-rsm2-rcm69-esm100-rsr2-rcr100-esr29.npz,,,,,0,71,71,96,,left,green,2.9,1024.7465920448303,1025.0927340984344,1,6,2,lightness,readingArea,realistic,75,2023-03-22_16h15.06.502,tripletExp_regina_11082022,2022.2.4,119.65026087799924,
1,10,0,2,0.111111111111111,0.298245614035088,2,0.694444444444444,1.0,2,0.027777777777778,0.298245614035088,ReadingArea_rsl2-rcl11-esl29-rsm2-rcm69-esm100-rsr2-rcr2-esr29,exr/ReadingArea_rsl2-rcl11-esl29-rsm2-rcm69-esm100-rsr2-rcr2-esr29.exr,ReadingArea_rsl2-rcl11-esl29-rsm2-rcm69-esm100-rsr2-rcr2-esr29.npz,,,,,0,72,72,196,,left,green,3.24,1028.5716841220856,1028.9202959537506,1,6,2,lightness,readingArea,realistic,75,2023-03-22_16h15.06.502,tripletExp_regina_11082022,2022.2.4,119.65026087799924,
6,4,2,2,0.027777777777778,1.0,2,0.694444444444444,0.298245614035088,2,0.25,0.298245614035088,ReadingArea_rsl2-rcl2-esl100-rsm2-rcm69-esm29-rsr2-rcr25-esr29,exr/ReadingArea_rsl2-rcl2-esl100-rsm2-rcm69-esm29-rsr2-rcr25-esr29.exr,ReadingArea_rsl2-rcl2-esl100-rsm2-rcm69-esm29-rsr2-rcr25-esr29.npz,,,,,0,73,73,134,,right,red,1.05,1030.6235721111298,1030.9781539440155,1,6,2,lightness,readingArea,realistic,75,2023-03-22_16h15.06.502,tripletExp_regina_11082022,2022.2.4,119.65026087799924,
14,6,11,2,0.25,3.10526315789474,2,0.027777777777778,1.0,2,1.0,1.0,ReadingArea_rsl2-rcl25-esl310-rsm2-rcm2-esm100-rsr2-rcr100-esr100,exr/ReadingArea_rsl2-rcl25-esl310-rsm2-rcm2-esm100-rsr2-rcr100-esr100.exr,ReadingArea_rsl2-rcl25-esl310-rsm2-rcm2-esm100-rsr2-rcr100-esr100.npz,,,,,0,74,74,337,,left,green,2.62,1034.4590260982511,1034.6641170978546,1,6,2,lightness,readingArea,realistic,75,2023-03-22_16h15.06.502,tripletExp_regina_11082022,2022.2.4,119.65026087799924,
13,10,11,2,0.111111111111111,3.10526315789474,2,0.694444444444444,1.0,2,1.0,1.0,ReadingArea_rsl2-rcl11-esl310-rsm2-rcm69-esm100-rsr2-rcr100-esr100,exr/ReadingArea_rsl2-rcl11-esl310-rsm2-rcm69-esm100-rsr2-rcr100-esr100.exr,ReadingArea_rsl2-rcl11-esl310-rsm2-rcm69-esm100-rsr2-rcr100-esr100.npz,,,,,0,75,75,320,,right,red,1.04,1056.1047151088717,1056.554449081421,2,6,2,lightness,readingArea,realistic,75,2023-03-22_16h15.06.502,tripletExp_regina_11082022,2022.2.4,119.65026087799924,
13,3,5,2,0.111111111111111,3.10526315789474,2,0.444444444444444,0.298245614035088,2,1.0,0.298245614035088,ReadingArea_rsl2-rcl11-esl310-rsm2-rcm44-esm29-rsr2-rcr100-esr29,exr/ReadingArea_rsl2-rcl11-esl310-rsm2-rcm44-esm29-rsr2-rcr100-esr29.exr,ReadingArea_rsl2-rcl11-esl310-rsm2-rcm44-esm29-rsr2-rcr100-esr29.npz,,,,,0,76,76,398,,right,red,0.93,1058.266436100006,1058.616779088974,2,6,2,lightness,readingArea,realistic,75,2023-03-22_16h15.06.502,tripletExp_regina_11082022,2022.2.4,119.65026087799924,
11,4,0,2,1.0,1.0,2,0.694444444444444,0.298245614035088,2,0.027777777777778,0.298245614035088,ReadingArea_rsl2-rcl100-esl100-rsm2-rcm69-esm29-rsr2-rcr2-esr29,exr/ReadingArea_rsl2-rcl100-esl100-rsm2-rcm69-esm29-rsr2-rcr2-esr29.exr,ReadingArea_rsl2-rcl100-esl100-rsm2-rcm69-esm29-rsr2-rcr2-esr29.npz,,,,,0,77,77,219,,left,green,3.09,1062.1071469783783,1062.5405530929563,2,6,2,lightness,readingArea,realistic,75,2023-03-22_16h15.06.502,tripletExp_regina_11082022,2022.2.4,119.65026087799924,
10,6,8,2,0.694444444444444,1.0,2,0.027777777777778,1.0,2,0.25,1.0,ReadingArea_rsl2-rcl69-esl100-rsm2-rcm2-esm100-rsr2-rcr25-esr100,exr/ReadingArea_rsl2-rcl69-esl100-rsm2-rcm2-esm100-rsr2-rcr25-esr100.exr,ReadingArea_rsl2-rcl69-esl100-rsm2-rcm2-esm100-rsr2-rcr25-esr100.npz,,,,,0,78,78,145,,right,red,1.31,1064.2417690753937,1064.5902819633484,2,6,2,lightness,readingArea,realistic,75,2023-03-22_16h15.06.502,tripletExp_regina_11082022,2022.2.4,119.65026087799924,
3,1,0,2,0.444444444444444,0.298245614035088,2,0.111111111111111,0.298245614035088,2,0.027777777777778,0.298245614035088,ReadingArea_rsl2-rcl44-esl29-rsm2-rcm11-esm29-rsr2-rcr2-esr29,exr/ReadingArea_rsl2-rcl44-esl29-rsm2-rcm11-esm29-rsr2-rcr2-esr29.exr,ReadingArea_rsl2-rcl44-esl29-rsm2-rcm11-esm29-rsr2-rcr2-esr29.npz,,,,,0,79,79,343,,left,green,2.92,1068.0329229831696,1068.3857760429382,2,6,2,lightness,readingArea,realistic,75,2023-03-22_16h15.06.502,tripletExp_regina_11082022,2022.2.4,119.65026087799924,
7,4,6,2,0.111111111111111,1.0,2,0.694444444444444,0.298245614035088,2,0.027777777777778,1.0,ReadingArea_rsl2-rcl11-esl100-rsm2-rcm69-esm29-rsr2-rcr2-esr100,exr/ReadingArea_rsl2-rcl11-esl100-rsm2-rcm69-esm29-rsr2-rcr2-esr100.exr,ReadingArea_rsl2-rcl11-esl100-rsm2-rcm69-esm29-rsr2-rcr2-esr100.npz,,,,,0,80,80,528,,left,green,1.63,1070.0999040603638,1070.4594931602478,2,6,2,lightness,readingArea,realistic,75,2023-03-22_16h15.06.502,tripletExp_regina_11082022,2022.2.4,119.65026087799924,
13,7,6,2,0.111111111111111,3.10526315789474,2,0.111111111111111,1.0,2,0.027777777777778,1.0,ReadingArea_rsl2-rcl11-esl310-rsm2-rcm11-esm100-rsr2-rcr2-esr100,exr/ReadingArea_rsl2-rcl11-esl310-rsm2-rcm11-esm100-rsr2-rcr2-esr100.exr,ReadingArea_rsl2-rcl11-esl310-rsm2-rcm11-esm100-rsr2-rcr2-esr100.npz,,,,,0,81,81,283,,right,red,2.8,1073.9191391468048,1074.267723083496,2,6,2,lightness,readingArea,realistic,75,2023-03-22_16h15.06.502,tripletExp_regina_11082022,2022.2.4,119.65026087799924,
9,7,2,2,0.444444444444444,1.0,2,0.111111111111111,1.0,2,0.25,0.298245614035088,ReadingArea_rsl2-rcl44-esl100-rsm2-rcm11-esm100-rsr2-rcr25-esr29,exr/ReadingArea_rsl2-rcl44-esl100-rsm2-rcm11-esm100-rsr2-rcr25-esr29.exr,ReadingArea_rsl2-rcl44-esl100-rsm2-rcm11-esm100-rsr2-rcr25-esr29.npz,,,,,0,82,82,428,,right,red,0.83,1075.9702019691467,1076.320006132126,2,6,2,lightness,readingArea,realistic,75,2023-03-22_16h15.06.502,tripletExp_regina_11082022,2022.2.4,119.65026087799924,
7,8,6,2,0.111111111111111,1.0,2,0.25,1.0,2,0.027777777777778,1.0,ReadingArea_rsl2-rcl11-esl100-rsm2-rcm25-esm100-rsr2-rcr2-esr100,exr/ReadingArea_rsl2-rcl11-esl100-rsm2-rcm25-esm100-rsr2-rcr2-esr100.exr,ReadingArea_rsl2-rcl11-esl100-rsm2-rcm25-esm100-rsr2-rcr2-esr100.npz,,,,,0,83,83,387,,left,green,2.55,1079.7745380401611,1080.1315240859983,2,6,2,lightness,readingArea,realistic,75,2023-03-22_16h15.06.502,tripletExp_regina_11082022,2022.2.4,119.65026087799924,
6,10,8,2,0.027777777777778,1.0,2,0.694444444444444,1.0,2,0.25,1.0,ReadingArea_rsl2-rcl2-esl100-rsm2-rcm69-esm100-rsr2-rcr25-esr100,exr/ReadingArea_rsl2-rcl2-esl100-rsm2-rcm69-esm100-rsr2-rcr25-esr100.exr,ReadingArea_rsl2-rcl2-esl100-rsm2-rcm69-esm100-rsr2-rcr25-esr100.npz,,,,,0,84,84,167,,right,red,0.88,1081.848510980606,1082.2031519412994,2,6,2,lightness,readingArea,realistic,75,2023-03-22_16h15.06.502,tripletExp_regina_11082022,2022.2.4,119.65026087799924,
6,11,7,2,0.027777777777778,1.0,2,1.0,1.0,2,0.111111111111111,1.0,ReadingArea_rsl2-rcl2-esl100-rsm2-rcm100-esm100-rsr2-rcr11-esr100,exr/ReadingArea_rsl2-rcl2-esl100-rsm2-rcm100-esm100-rsr2-rcr11-esr100.exr,ReadingArea_rsl2-rcl2-esl100-rsm2-rcm100-esm100-rsr2-rcr11-esr100.npz,,,,,0,85,85,571,,right,red,0.84,1083.9077870845797,1084.3085219860077,2,6,2,lightness,readingArea,realistic,75,2023-03-22_16h15.06.502,tripletExp_regina_11082022,2022.2.4,119.65026087799924,
2,7,11,2,0.25,0.298245614035088,2,0.111111111111111,1.0,2,1.0,1.0,ReadingArea_rsl2-rcl25-esl29-rsm2-rcm11-esm100-rsr2-rcr100-esr100,exr/ReadingArea_rsl2-rcl25-esl29-rsm2-rcm11-esm100-rsr2-rcr100-esr100.exr,ReadingArea_rsl2-rcl25-esl29-rsm2-rcm11-esm100-rsr2-rcr100-esr100.npz,,,,,0,86,86,194,,left,green,2.3,1087.801679134369,1088.1623649597168,2,6,2,lightness,readingArea,realistic,75,2023-03-22_16h15.06.502,tripletExp_regina_11082022,2022.2.4,119.65026087799924,
10,13,6,2,0.694444444444444,1.0,2,0.111111111111111,3.10526315789474,2,0.027777777777778,1.0,ReadingArea_rsl2-rcl69-esl100-rsm2-rcm11-esm310-rsr2-rcr2-esr100,exr/ReadingArea_rsl2-rcl69-esl100-rsm2-rcm11-esm310-rsr2-rcr2-esr100.exr,ReadingArea_rsl2-rcl69-esl100-rsm2-rcm11-esm310-rsr2-rcr2-esr100.npz,,,,,0,87,87,351,,left,green,1.31,1089.8584179878235,1090.2137570381165,2,6,2,lightness,readingArea,realistic,75,2023-03-22_16h15.06.502,tripletExp_regina_11082022,2022.2.4,119.65026087799924,
3,10,9,2,0.444444444444444,0.298245614035088,2,0.694444444444444,1.0,2,0.444444444444444,1.0,ReadingArea_rsl2-rcl44-esl29-rsm2-rcm69-esm100-rsr2-rcr44-esr100,exr/ReadingArea_rsl2-rcl44-esl29-rsm2-rcm69-esm100-rsr2-rcr44-esr100.exr,ReadingArea_rsl2-rcl44-esl29-rsm2-rcm69-esm100-rsr2-rcr44-esr100.npz,,,,,0,88,88,222,,right,red,1.01,1091.9284670352936,1092.2835841178894,2,6,2,lightness,readingArea,realistic,75,2023-03-22_16h15.06.502,tripletExp_regina_11082022,2022.2.4,119.65026087799924,
9,7,3,2,0.444444444444444,1.0,2,0.111111111111111,1.0,2,0.444444444444444,0.298245614035088,ReadingArea_rsl2-rcl44-esl100-rsm2-rcm11-esm100-rsr2-rcr44-esr29,exr/ReadingArea_rsl2-rcl44-esl100-rsm2-rcm11-esm100-rsr2-rcr44-esr29.exr,ReadingArea_rsl2-rcl44-esl100-rsm2-rcm11-esm100-rsr2-rcr44-esr29.npz,,,,,0,89,89,235,,right,red,1.4,1094.004229068756,1094.3558859825134,2,6,2,lightness,readingArea,realistic,75,2023-03-22_16h15.06.502,tripletExp_regina_11082022,2022.2.4,119.65026087799924,
12,3,10,2,0.027777777777778,3.10526315789474,2,0.444444444444444,0.298245614035088,2,0.694444444444444,1.0,ReadingArea_rsl2-rcl2-esl310-rsm2-rcm44-esm29-rsr2-rcr69-esr100,exr/ReadingArea_rsl2-rcl2-esl310-rsm2-rcm44-esm29-rsr2-rcr69-esr100.exr,ReadingArea_rsl2-rcl2-esl310-rsm2-rcm44-esm29-rsr2-rcr69-esr100.npz,,,,,0,90,90,437,,left,green,1.57,1096.0441751480105,1096.3994841575625,2,6,2,lightness,readingArea,realistic,75,2023-03-22_16h15.06.502,tripletExp_regina_11082022,2022.2.4,119.65026087799924,
2,1,3,2,0.25,0.298245614035088,2,0.111111111111111,0.298245614035088,2,0.444444444444444,0.298245614035088,ReadingArea_rsl2-rcl25-esl29-rsm2-rcm11-esm29-rsr2-rcr44-esr29,exr/ReadingArea_rsl2-rcl25-esl29-rsm2-rcm11-esm29-rsr2-rcr44-esr29.exr,ReadingArea_rsl2-rcl25-esl29-rsm2-rcm11-esm29-rsr2-rcr44-esr29.npz,,,,,0,91,91,85,,left,green,2.21,1099.8646919727323,1100.215618133545,2,6,2,lightness,readingArea,realistic,75,2023-03-22_16h15.06.502,tripletExp_regina_11082022,2022.2.4,119.65026087799924,
0,7,13,2,0.027777777777778,0.298245614035088,2,0.111111111111111,1.0,2,0.111111111111111,3.10526315789474,ReadingArea_rsl2-rcl2-esl29-rsm2-rcm11-esm100-rsr2-rcr11-esr310,exr/ReadingArea_rsl2-rcl2-esl29-rsm2-rcm11-esm100-rsr2-rcr11-esr310.exr,ReadingArea_rsl2-rcl2-esl29-rsm2-rcm11-esm100-rsr2-rcr11-esr310.npz,,,,,0,92,92,159,,right,red,2.81,1103.6933779716492,,2,6,2,lightness,readingArea,realistic,75,2023-03-22_16h15.06.502,tripletExp_regina_11082022,2022.2.4,119.65026087799924,
7,0,3,2,0.111111111111111,1.0,2,0.027777777777778,0.298245614035088,2,0.444444444444444,0.298245614035088,ReadingArea_rsl2-rcl11-esl100-rsm2-rcm2-esm29-rsr2-rcr44-esr29,exr/ReadingArea_rsl2-rcl11-esl100-rsm2-rcm2-esm29-rsr2-rcr44-esr29.exr,ReadingArea_rsl2-rcl11-esl100-rsm2-rcm2-esm29-rsr2-rcr44-esr29.npz,,,,,0,93,93,237,,left,green,2.68,1107.536129951477,1107.8937520980835,2,6,2,lightness,readingArea,realistic,75,2023-03-22_16h15.06.502,tripletExp_regina_11082022,2022.2.4,119.65026087799924,
6,1,14,2,0.027777777777778,1.0,2,0.111111111111111,0.298245614035088,2,0.25,3.10526315789474,ReadingArea_rsl2-rcl2-esl100-rsm2-rcm11-esm29-rsr2-rcr25-esr310,exr/ReadingArea_rsl2-rcl2-esl100-rsm2-rcm11-esm29-rsr2-rcr25-esr310.exr,ReadingArea_rsl2-rcl2-esl100-rsm2-rcm11-esm29-rsr2-rcr25-esr310.npz,,,,,0,94,94,381,,left,green,1.15,1109.5911090373993,1109.9425230026245,2,6,2,lightness,readingArea,realistic,75,2023-03-22_16h15.06.502,tripletExp_regina_11082022,2022.2.4,119.65026087799924,
1,5,8,2,0.111111111111111,0.298245614035088,2,1.0,0.298245614035088,2,0.25,1.0,ReadingArea_rsl2-rcl11-esl29-rsm2-rcm100-esm29-rsr2-rcr25-esr100,exr/ReadingArea_rsl2-rcl11-esl29-rsm2-rcm100-esm29-rsr2-rcr25-esr100.exr,ReadingArea_rsl2-rcl11-esl29-rsm2-rcm100-esm29-rsr2-rcr25-esr100.npz,,,,,0,95,95,238,,right,red,2.16,1113.4052901268003,1113.7605910301208,2,6,2,lightness,readingArea,realistic,75,2023-03-22_16h15.06.502,tripletExp_regina_11082022,2022.2.4,119.65026087799924,
2,9,12,2,0.25,0.298245614035088,2,0.444444444444444,1.0,2,0.027777777777778,3.10526315789474,ReadingArea_rsl2-rcl25-esl29-rsm2-rcm44-esm100-rsr2-rcr2-esr310,exr/ReadingArea_rsl2-rcl25-esl29-rsm2-rcm44-esm100-rsr2-rcr2-esr310.exr,ReadingArea_rsl2-rcl25-esl29-rsm2-rcm44-esm100-rsr2-rcr2-esr310.npz,,,,,0,96,96,354,,right,red,3.04,1117.2168180942535,1117.569095134735,2,6,2,lightness,readingArea,realistic,75,2023-03-22_16h15.06.502,tripletExp_regina_11082022,2022.2.4,119.65026087799924,
11,6,14,2,1.0,1.0,2,0.027777777777778,1.0,2,0.25,3.10526315789474,ReadingArea_rsl2-rcl100-esl100-rsm2-rcm2-esm100-rsr2-rcr25-esr310,exr/ReadingArea_rsl2-rcl100-esl100-rsm2-rcm2-esm100-rsr2-rcr25-esr310.exr,ReadingArea_rsl2-rcl100-esl100-rsm2-rcm2-esm100-rsr2-rcr25-esr310.npz,,,,,0,97,97,305,,right,red,2.37,1121.0699059963226,1121.420156955719,2,6,2,lightness,readingArea,realistic,75,2023-03-22_16h15.06.502,tripletExp_regina_11082022,2022.2.4,119.65026087799924,
13,3,7,2,0.111111111111111,3.10526315789474,2,0.444444444444444,0.298245614035088,2,0.111111111111111,1.0,ReadingArea_rsl2-rcl11-esl310-rsm2-rcm44-esm29-rsr2-rcr11-esr100,exr/ReadingArea_rsl2-rcl11-esl310-rsm2-rcm44-esm29-rsr2-rcr11-esr100.exr,ReadingArea_rsl2-rcl11-esl310-rsm2-rcm44-esm29-rsr2-rcr11-esr100.npz,,,,,0,98,98,497,,right,red,1.19,1123.1210510730743,,2,6,2,lightness,readingArea,realistic,75,2023-03-22_16h15.06.502,tripletExp_regina_11082022,2022.2.4,119.65026087799924,
10,3,6,2,0.694444444444444,1.0,2,0.444444444444444,0.298245614035088,2,0.027777777777778,1.0,ReadingArea_rsl2-rcl69-esl100-rsm2-rcm44-esm29-rsr2-rcr2-esr100,exr/ReadingArea_rsl2-rcl69-esl100-rsm2-rcm44-esm29-rsr2-rcr2-esr100.exr,ReadingArea_rsl2-rcl69-esl100-rsm2-rcm44-esm29-rsr2-rcr2-esr100.npz,,,,,0,99,99,261,,right,red,2.94,1126.9514529705048,1127.310739994049,2,6,2,lightness,readingArea,realistic,75,2023-03-22_16h15.06.502,tripletExp_regina_11082022,2022.2.4,119.65026087799924,
14,5,9,2,0.25,3.10526315789474,2,1.0,0.298245614035088,2,0.444444444444444,1.0,ReadingArea_rsl2-rcl25-esl310-rsm2-rcm100-esm29-rsr2-rcr44-esr100,exr/ReadingArea_rsl2-rcl25-esl310-rsm2-rcm100-esm29-rsr2-rcr44-esr100.exr,ReadingArea_rsl2-rcl25-esl310-rsm2-rcm100-esm29-rsr2-rcr44-esr100.npz,,,,,0,100,100,482,,right,red,1.31,1129.0343029499054,1129.38667011261,2,6,2,lightness,readingArea,realistic,75,2023-03-22_16h15.06.502,tripletExp_regina_11082022,2022.2.4,119.65026087799924,
10,11,0,2,0.694444444444444,1.0,2,1.0,1.0,2,0.027777777777778,0.298245614035088,ReadingArea_rsl2-rcl69-esl100-rsm2-rcm100-esm100-rsr2-rcr2-esr29,exr/ReadingArea_rsl2-rcl69-esl100-rsm2-rcm100-esm100-rsr2-rcr2-esr29.exr,ReadingArea_rsl2-rcl69-esl100-rsm2-rcm100-esm100-rsr2-rcr2-esr29.npz,,,,,0,101,101,58,,left,green,1.54,1131.114140033722,,2,6,2,lightness,readingArea,realistic,75,2023-03-22_16h15.06.502,tripletExp_regina_11082022,2022.2.4,119.65026087799924,
3,11,2,2,0.444444444444444,0.298245614035088,2,1.0,1.0,2,0.25,0.298245614035088,ReadingArea_rsl2-rcl44-esl29-rsm2-rcm100-esm100-rsr2-rcr25-esr29,exr/ReadingArea_rsl2-rcl44-esl29-rsm2-rcm100-esm100-rsr2-rcr25-esr29.exr,ReadingArea_rsl2-rcl44-esl29-rsm2-rcm100-esm100-rsr2-rcr25-esr29.npz,,,,,0,102,102,220,,left,green,1.14,1133.1952199935913,1133.547261953354,2,6,2,lightness,readingArea,realistic,75,2023-03-22_16h15.06.502,tripletExp_regina_11082022,2022.2.4,119.65026087799924,
5,3,10,2,1.0,0.298245614035088,2,0.444444444444444,0.298245614035088,2,0.694444444444444,1.0,ReadingArea_rsl2-rcl100-esl29-rsm2-rcm44-esm29-rsr2-rcr69-esr100,exr/ReadingArea_rsl2-rcl100-esl29-rsm2-rcm44-esm29-rsr2-rcr69-esr100.exr,ReadingArea_rsl2-rcl100-esl29-rsm2-rcm44-esm29-rsr2-rcr69-esr100.npz,,,,,0,103,103,546,,left,green,1.07,1135.2494850158691,1135.6172740459442,2,6,2,lightness,readingArea,realistic,75,2023-03-22_16h15.06.502,tripletExp_regina_11082022,2022.2.4,119.65026087799924,
4,8,0,2,0.694444444444444,0.298245614035088,2,0.25,1.0,2,0.027777777777778,0.298245614035088,ReadingArea_rsl2-rcl69-esl29-rsm2-rcm25-esm100-rsr2-rcr2-esr29,exr/ReadingArea_rsl2-rcl69-esl29-rsm2-rcm25-esm100-rsr2-rcr2-esr29.exr,ReadingArea_rsl2-rcl69-esl29-rsm2-rcm25-esm100-rsr2-rcr2-esr29.npz,,,,,0,104,104,137,,left,green,0.96,1137.3069441318512,1137.6634440422058,2,6,2,lightness,readingArea,realistic,75,2023-03-22_16h15.06.502,tripletExp_regina_11082022,2022.2.4,119.65026087799924,
5,9,0,2,1.0,0.298245614035088,2,0.444444444444444,1.0,2,0.027777777777778,0.298245614035088,ReadingArea_rsl2-rcl100-esl29-rsm2-rcm44-esm100-rsr2-rcr2-esr29,exr/ReadingArea_rsl2-rcl100-esl29-rsm2-rcm44-esm100-rsr2-rcr2-esr29.exr,ReadingArea_rsl2-rcl100-esl29-rsm2-rcm44-esm100-rsr2-rcr2-esr29.npz,,,,,0,105,105,575,,left,green,0.77,1139.3616800308228,1139.716369152069,2,6,2,lightness,readingArea,realistic,75,2023-03-22_16h15.06.502,tripletExp_regina_11082022,2022.2.4,119.65026087799924,
0,14,6,2,0.027777777777778,0.298245614035088,2,0.25,3.10526315789474,2,0.027777777777778,1.0,ReadingArea_rsl2-rcl2-esl29-rsm2-rcm25-esm310-rsr2-rcr2-esr100,exr/ReadingArea_rsl2-rcl2-esl29-rsm2-rcm25-esm310-rsr2-rcr2-esr100.exr,ReadingArea_rsl2-rcl2-esl29-rsm2-rcm25-esm310-rsr2-rcr2-esr100.npz,,,,,0,106,106,499,,right,red,2.62,1143.181668996811,1143.533695936203,2,6,2,lightness,readingArea,realistic,75,2023-03-22_16h15.06.502,tripletExp_regina_11082022,2022.2.4,119.65026087799924,
9,3,0,2,0.444444444444444,1.0,2,0.444444444444444,0.298245614035088,2,0.027777777777778,0.298245614035088,ReadingArea_rsl2-rcl44-esl100-rsm2-rcm44-esm29-rsr2-rcr2-esr29,exr/ReadingArea_rsl2-rcl44-esl100-rsm2-rcm44-esm29-rsr2-rcr2-esr29.exr,ReadingArea_rsl2-rcl44-esl100-rsm2-rcm44-esm29-rsr2-rcr2-esr29.npz,,,,,0,107,107,120,,left,green,2.8,1147.008989095688,1147.3685760498047,2,6,2,lightness,readingArea,realistic,75,2023-03-22_16h15.06.502,tripletExp_regina_11082022,2022.2.4,119.65026087799924,
0,8,12,2,0.027777777777778,0.298245614035088,2,0.25,1.0,2,0.027777777777778,3.10526315789474,ReadingArea_rsl2-rcl2-esl29-rsm2-rcm25-esm100-rsr2-rcr2-esr310,exr/ReadingArea_rsl2-rcl2-esl29-rsm2-rcm25-esm100-rsr2-rcr2-esr310.exr,ReadingArea_rsl2-rcl2-esl29-rsm2-rcm25-esm100-rsr2-rcr2-esr310.npz,,,,,0,108,108,314,,right,red,2.78,1150.845519065857,1151.2007529735563,2,6,2,lightness,readingArea,realistic,75,2023-03-22_16h15.06.502,tripletExp_regina_11082022,2022.2.4,119.65026087799924,
4,13,2,2,0.694444444444444,0.298245614035088,2,0.111111111111111,3.10526315789474,2,0.25,0.298245614035088,ReadingArea_rsl2-rcl69-esl29-rsm2-rcm11-esm310-rsr2-rcr25-esr29,exr/ReadingArea_rsl2-rcl69-esl29-rsm2-rcm11-esm310-rsr2-rcr25-esr29.exr,ReadingArea_rsl2-rcl69-esl29-rsm2-rcm11-esm310-rsr2-rcr25-esr29.npz,,,,,0,109,109,592,,left,green,1.11,1152.9041669368744,1153.2604820728302,2,6,2,lightness,readingArea,realistic,75,2023-03-22_16h15.06.502,tripletExp_regina_11082022,2022.2.4,119.65026087799924,
14,0,9,2,0.25,3.10526315789474,2,0.027777777777778,0.298245614035088,2,0.444444444444444,1.0,ReadingArea_rsl2-rcl25-esl310-rsm2-rcm2-esm29-rsr2-rcr44-esr100,exr/ReadingArea_rsl2-rcl25-esl310-rsm2-rcm2-esm29-rsr2-rcr44-esr100.exr,ReadingArea_rsl2-rcl25-esl310-rsm2-rcm2-esm29-rsr2-rcr44-esr100.npz,,,,,0,110,110,90,,right,red,2.47,1156.7457931041718,1157.1033749580383,2,6,2,lightness,readingArea,realistic,75,2023-03-22_16h15.06.502,tripletExp_regina_11082022,2022.2.4,119.65026087799924,
10,14,4,2,0.694444444444444,1.0,2,0.25,3.10526315789474,2,0.694444444444444,0.298245614035088,ReadingArea_rsl2-rcl69-esl100-rsm2-rcm25-esm310-rsr2-rcr69-esr29,exr/ReadingArea_rsl2-rcl69-esl100-rsm2-rcm25-esm310-rsr2-rcr69-esr29.exr,ReadingArea_rsl2-rcl69-esl100-rsm2-rcm25-esm310-rsr2-rcr69-esr29.npz,,,,,0,111,111,267,,left,green,1.09,1158.8150579929352,1159.166535139084,2,6,2,lightness,readingArea,realistic,75,2023-03-22_16h15.06.502,tripletExp_regina_11082022,2022.2.4,119.65026087799924,
8,1,14,2,0.25,1.0,2,0.111111111111111,0.298245614035088,2,0.25,3.10526315789474,ReadingArea_rsl2-rcl25-esl100-rsm2-rcm11-esm29-rsr2-rcr25-esr310,exr/ReadingArea_rsl2-rcl25-esl100-rsm2-rcm11-esm29-rsr2-rcr25-esr310.exr,ReadingArea_rsl2-rcl25-esl100-rsm2-rcm11-esm29-rsr2-rcr25-esr310.npz,,,,,0,112,112,500,,left,green,1.01,1160.861892938614,1161.2182109355929,2,6,2,lightness,readingArea,realistic,75,2023-03-22_16h15.06.502,tripletExp_regina_11082022,2022.2.4,119.65026087799924,
10,7,8,2,0.694444444444444,1.0,2,0.111111111111111,1.0,2,0.25,1.0,ReadingArea_rsl2-rcl69-esl100-rsm2-rcm11-esm100-rsr2-rcr25-esr100,exr/ReadingArea_rsl2-rcl69-esl100-rsm2-rcm11-esm100-rsr2-rcr25-esr100.exr,ReadingArea_rsl2-rcl69-esl100-rsm2-rcm11-esm100-rsr2-rcr25-esr100.npz,,,,,0,113,113,57,,right,red,1.08,1162.9255781173706,1163.364609956741,2,6,2,lightness,readingArea,realistic,75,2023-03-22_16h15.06.502,tripletExp_regina_11082022,2022.2.4,119.65026087799924,
14,5,11,2,0.25,3.10526315789474,2,1.0,0.298245614035088,2,1.0,1.0,ReadingArea_rsl2-rcl25-esl310-rsm2-rcm100-esm29-rsr2-rcr100-esr100,exr/ReadingArea_rsl2-rcl25-esl310-rsm2-rcm100-esm29-rsr2-rcr100-esr100.exr,ReadingArea_rsl2-rcl25-esl310-rsm2-rcm100-esm29-rsr2-rcr100-esr100.npz,,,,,0,114,114,161,,left,green,1.19,1165.061455965042,,2,6,2,lightness,readingArea,realistic,75,2023-03-22_16h15.06.502,tripletExp_regina_11082022,2022.2.4,119.65026087799924,
0,4,12,2,0.027777777777778,0.298245614035088,2,0.694444444444444,0.298245614035088,2,0.027777777777778,3.10526315789474,ReadingArea_rsl2-rcl2-esl29-rsm2-rcm69-esm29-rsr2-rcr2-esr310,exr/ReadingArea_rsl2-rcl2-esl29-rsm2-rcm69-esm29-rsr2-rcr2-esr310.exr,ReadingArea_rsl2-rcl2-esl29-rsm2-rcm69-esm29-rsr2-rcr2-esr310.npz,,,,,0,115,115,150,,right,red,1.18,1167.1436531543732,1167.496395111084,2,6,2,lightness,readingArea,realistic,75,2023-03-22_16h15.06.502,tripletExp_regina_11082022,2022.2.4,119.65026087799924,
1,14,0,2,0.111111111111111,0.298245614035088,2,0.25,3.10526315789474,2,0.027777777777778,0.298245614035088,ReadingArea_rsl2-rcl11-esl29-rsm2-rcm25-esm310-rsr2-rcr2-esr29,exr/ReadingArea_rsl2-rcl11-esl29-rsm2-rcm25-esm310-rsr2-rcr2-esr29.exr,ReadingArea_rsl2-rcl11-esl29-rsm2-rcm25-esm310-rsr2-rcr2-esr29.npz,,,,,0,116,116,394,,left,green,1.11,1169.195974111557,1169.5578479766846,2,6,2,lightness,readingArea,realistic,75,2023-03-22_16h15.06.502,tripletExp_regina_11082022,2022.2.4,119.65026087799924,
7,13,6,2,0.111111111111111,1.0,2,0.111111111111111,3.10526315789474,2,0.027777777777778,1.0,ReadingArea_rsl2-rcl11-esl100-rsm2-rcm11-esm310-rsr2-rcr2-esr100,exr/ReadingArea_rsl2-rcl11-esl100-rsm2-rcm11-esm310-rsr2-rcr2-esr100.exr,ReadingArea_rsl2-rcl11-esl100-rsm2-rcm11-esm310-rsr2-rcr2-esr100.npz,,,,,0,117,117,73,,left,green,1.1,1171.2502291202543,1171.604756116867,2,6,2,lightness,readingArea,realistic,75,2023-03-22_16h15.06.502,tripletExp_regina_11082022,2022.2.4,119.65026087799924,
7,12,1,2,0.111111111111111,1.0,2,0.027777777777778,3.10526315789474,2,0.111111111111111,0.298245614035088,ReadingArea_rsl2-rcl11-esl100-rsm2-rcm2-esm310-rsr2-rcr11-esr29,exr/ReadingArea_rsl2-rcl11-esl100-rsm2-rcm2-esm310-rsr2-rcr11-esr29.exr,ReadingArea_rsl2-rcl11-esl100-rsm2-rcm2-esm310-rsr2-rcr11-esr29.npz,,,,,0,118,118,20,,left,green,1.22,1173.3217351436615,1173.7658441066742,2,6,2,lightness,readingArea,realistic,75,2023-03-22_16h15.06.502,tripletExp_regina_11082022,2022.2.4,119.65026087799924,
11,8,2,2,1.0,1.0,2,0.25,1.0,2,0.25,0.298245614035088,ReadingArea_rsl2-rcl100-esl100-rsm2-rcm25-esm100-rsr2-rcr25-esr29,exr/ReadingArea_rsl2-rcl100-esl100-rsm2-rcm25-esm100-rsr2-rcr25-esr29.exr,ReadingArea_rsl2-rcl100-esl100-rsm2-rcm25-esm100-rsr2-rcr25-esr29.npz,,,,,0,119,119,406,,left,green,0.95,1175.4794690608978,1175.8383610248566,2,6,2,lightness,readingArea,realistic,75,2023-03-22_16h15.06.502,tripletExp_regina_11082022,2022.2.4,119.65026087799924,
6,4,13,2,0.027777777777778,1.0,2,0.694444444444444,0.298245614035088,2,0.111111111111111,3.10526315789474,ReadingArea_rsl2-rcl2-esl100-rsm2-rcm69-esm29-rsr2-rcr11-esr310,exr/ReadingArea_rsl2-rcl2-esl100-rsm2-rcm69-esm29-rsr2-rcr11-esr310.exr,ReadingArea_rsl2-rcl2-esl100-rsm2-rcm69-esm29-rsr2-rcr11-esr310.npz,,,,,0,120,120,202,,right,red,1.16,1177.5303349494934,1177.8904111385343,2,6,2,lightness,readingArea,realistic,75,2023-03-22_16h15.06.502,tripletExp_regina_11082022,2022.2.4,119.65026087799924,
2,11,7,2,0.25,0.298245614035088,2,1.0,1.0,2,0.111111111111111,1.0,ReadingArea_rsl2-rcl25-esl29-rsm2-rcm100-esm100-rsr2-rcr11-esr100,exr/ReadingArea_rsl2-rcl25-esl29-rsm2-rcm100-esm100-rsr2-rcr11-esr100.exr,ReadingArea_rsl2-rcl25-esl29-rsm2-rcm100-esm100-rsr2-rcr11-esr100.npz,,,,,0,121,121,576,,right,red,1.1,1179.59996008873,1179.9601230621338,2,6,2,lightness,readingArea,realistic,75,2023-03-22_16h15.06.502,tripletExp_regina_11082022,2022.2.4,119.65026087799924,
11,14,2,2,1.0,1.0,2,0.25,3.10526315789474,2,0.25,0.298245614035088,ReadingArea_rsl2-rcl100-esl100-rsm2-rcm25-esm310-rsr2-rcr25-esr29,exr/ReadingArea_rsl2-rcl100-esl100-rsm2-rcm25-esm310-rsr2-rcr25-esr29.exr,ReadingArea_rsl2-rcl100-esl100-rsm2-rcm25-esm310-rsr2-rcr25-esr29.npz,,,,,0,122,122,419,,left,green,0.91,1181.653429031372,1182.005805015564,2,6,2,lightness,readingArea,realistic,75,2023-03-22_16h15.06.502,tripletExp_regina_11082022,2022.2.4,119.65026087799924,
3,2,11,2,0.444444444444444,0.298245614035088,2,0.25,0.298245614035088,2,1.0,1.0,ReadingArea_rsl2-rcl44-esl29-rsm2-rcm25-esm29-rsr2-rcr100-esr100,exr/ReadingArea_rsl2-rcl44-esl29-rsm2-rcm25-esm29-rsr2-rcr100-esr100.exr,ReadingArea_rsl2-rcl44-esl29-rsm2-rcm25-esm29-rsr2-rcr100-esr100.npz,,,,,0,123,123,257,,left,green,0.85,1183.7193851470947,1184.1663789749146,2,6,2,lightness,readingArea,realistic,75,2023-03-22_16h15.06.502,tripletExp_regina_11082022,2022.2.4,119.65026087799924,
14,7,1,2,0.25,3.10526315789474,2,0.111111111111111,1.0,2,0.111111111111111,0.298245614035088,ReadingArea_rsl2-rcl25-esl310-rsm2-rcm11-esm100-rsr2-rcr11-esr29,exr/ReadingArea_rsl2-rcl25-esl310-rsm2-rcm11-esm100-rsr2-rcr11-esr29.exr,ReadingArea_rsl2-rcl25-esl310-rsm2-rcm11-esm100-rsr2-rcr11-esr29.npz,,,,,0,124,124,298,,right,red,2.46,1187.6388311386108,1187.9906051158905,2,6,2,lightness,readingArea,realistic,75,2023-03-22_16h15.06.502,tripletExp_regina_11082022,2022.2.4,119.65026087799924,
1,14,5,2,0.111111111111111,0.298245614035088,2,0.25,3.10526315789474,2,1.0,0.298245614035088,ReadingArea_rsl2-rcl11-esl29-rsm2-rcm25-esm310-rsr2-rcr100-esr29,exr/ReadingArea_rsl2-rcl11-esl29-rsm2-rcm25-esm310-rsr2-rcr100-esr29.exr,ReadingArea_rsl2-rcl11-esl29-rsm2-rcm25-esm310-rsr2-rcr100-esr29.npz,,,,,0,125,125,509,,right,red,1.34,1189.6801550388336,1190.034049987793,2,6,2,lightness,readingArea,realistic,75,2023-03-22_16h15.06.502,tripletExp_regina_11082022,2022.2.4,119.65026087799924,
12,9,11,2,0.027777777777778,3.10526315789474,2,0.444444444444444,1.0,2,1.0,1.0,ReadingArea_rsl2-rcl2-esl310-rsm2-rcm44-esm100-rsr2-rcr100-esr100,exr/ReadingArea_rsl2-rcl2-esl310-rsm2-rcm44-esm100-rsr2-rcr100-esr100.exr,ReadingArea_rsl2-rcl2-esl310-rsm2-rcm44-esm100-rsr2-rcr100-esr100.npz,,,,,0,126,126,18,,right,red,0.92,1191.729043006897,1192.086755990982,2,6,2,lightness,readingArea,realistic,75,2023-03-22_16h15.06.502,tripletExp_regina_11082022,2022.2.4,119.65026087799924,
3,4,11,2,0.444444444444444,0.298245614035088,2,0.694444444444444,0.298245614035088,2,1.0,1.0,ReadingArea_rsl2-rcl44-esl29-rsm2-rcm69-esm29-rsr2-rcr100-esr100,exr/ReadingArea_rsl2-rcl44-esl29-rsm2-rcm69-esm29-rsr2-rcr100-esr100.exr,ReadingArea_rsl2-rcl44-esl29-rsm2-rcm69-esm29-rsr2-rcr100-esr100.npz,,,,,0,127,127,207,,left,green,1.18,1193.7868070602417,1194.1428971290588,2,6,2,lightness,readingArea,realistic,75,2023-03-22_16h15.06.502,tripletExp_regina_11082022,2022.2.4,119.65026087799924,
1,13,7,2,0.111111111111111,0.298245614035088,2,0.111111111111111,3.10526315789474,2,0.111111111111111,1.0,ReadingArea_rsl2-rcl11-esl29-rsm2-rcm11-esm310-rsr2-rcr11-esr100,exr/ReadingArea_rsl2-rcl11-esl29-rsm2-rcm11-esm310-rsr2-rcr11-esr100.exr,ReadingArea_rsl2-rcl11-esl29-rsm2-rcm11-esm310-rsr2-rcr11-esr100.npz,,,,,0,128,128,158,,right,red,1.62,1195.8443920612335,1196.2045350074768,2,6,2,lightness,readingArea,realistic,75,2023-03-22_16h15.06.502,tripletExp_regina_11082022,2022.2.4,119.65026087799924,
2,13,0,2,0.25,0.298245614035088,2,0.111111111111111,3.10526315789474,2,0.027777777777778,0.298245614035088,ReadingArea_rsl2-rcl25-esl29-rsm2-rcm11-esm310-rsr2-rcr2-esr29,exr/ReadingArea_rsl2-rcl25-esl29-rsm2-rcm11-esm310-rsr2-rcr2-esr29.exr,ReadingArea_rsl2-rcl25-esl29-rsm2-rcm11-esm310-rsr2-rcr2-esr29.npz,,,,,0,129,129,454,,left,green,1.35,1197.901703119278,1198.2583091259005,2,6,2,lightness,readingArea,realistic,75,2023-03-22_16h15.06.502,tripletExp_regina_11082022,2022.2.4,119.65026087799924,
10,9,6,2,0.694444444444444,1.0,2,0.444444444444444,1.0,2,0.027777777777778,1.0,ReadingArea_rsl2-rcl69-esl100-rsm2-rcm44-esm100-rsr2-rcr2-esr100,exr/ReadingArea_rsl2-rcl69-esl100-rsm2-rcm44-esm100-rsr2-rcr2-esr100.exr,ReadingArea_rsl2-rcl69-esl100-rsm2-rcm44-esm100-rsr2-rcr2-esr100.npz,,,,,0,130,130,35,,left,green,2.96,1201.7327721118927,1202.0843789577484,2,6,2,lightness,readingArea,realistic,75,2023-03-22_16h15.06.502,tripletExp_regina_11082022,2022.2.4,119.65026087799924,
4,11,12,2,0.694444444444444,0.298245614035088,2,1.0,1.0,2,0.027777777777778,3.10526315789474,ReadingArea_rsl2-rcl69-esl29-rsm2-rcm100-esm100-rsr2-rcr2-esr310,exr/ReadingArea_rsl2-rcl69-esl29-rsm2-rcm100-esm100-rsr2-rcr2-esr310.exr,ReadingArea_rsl2-rcl69-esl29-rsm2-rcm100-esm100-rsr2-rcr2-esr310.npz,,,,,0,131,131,109,,left,green,2.8,1205.5342531204224,,2,6,2,lightness,readingArea,realistic,75,2023-03-22_16h15.06.502,tripletExp_regina_11082022,2022.2.4,119.65026087799924,
3,13,6,2,0.444444444444444,0.298245614035088,2,0.111111111111111,3.10526315789474,2,0.027777777777778,1.0,ReadingArea_rsl2-rcl44-esl29-rsm2-rcm11-esm310-rsr2-rcr2-esr100,exr/ReadingArea_rsl2-rcl44-esl29-rsm2-rcm11-esm310-rsr2-rcr2-esr100.exr,ReadingArea_rsl2-rcl44-esl29-rsm2-rcm11-esm310-rsr2-rcr2-esr100.npz,,,,,0,132,132,199,,left,green,2.15,1209.382702112198,1209.7442920207975,2,6,2,lightness,readingArea,realistic,75,2023-03-22_16h15.06.502,tripletExp_regina_11082022,2022.2.4,119.65026087799924,
9,7,10,2,0.444444444444444,1.0,2,0.111111111111111,1.0,2,0.694444444444444,1.0,ReadingArea_rsl2-rcl44-esl100-rsm2-rcm11-esm100-rsr2-rcr69-esr100,exr/ReadingArea_rsl2-rcl44-esl100-rsm2-rcm11-esm100-rsr2-rcr69-esr100.exr,ReadingArea_rsl2-rcl44-esl100-rsm2-rcm11-esm100-rsr2-rcr69-esr100.npz,,,,,0,133,133,508,,left,green,1.0,1211.4470660686493,1211.8125710487366,2,6,2,lightness,readingArea,realistic,75,2023-03-22_16h15.06.502,tripletExp_regina_11082022,2022.2.4,119.65026087799924,
12,6,2,2,0.027777777777778,3.10526315789474,2,0.027777777777778,1.0,2,0.25,0.298245614035088,ReadingArea_rsl2-rcl2-esl310-rsm2-rcm2-esm100-rsr2-rcr25-esr29,exr/ReadingArea_rsl2-rcl2-esl310-rsm2-rcm2-esm100-rsr2-rcr25-esr29.exr,ReadingArea_rsl2-rcl2-esl310-rsm2-rcm2-esm100-rsr2-rcr25-esr29.npz,,,,,0,134,134,106,,left,green,2.83,1215.2874929904938,1215.64612698555,2,6,2,lightness,readingArea,realistic,75,2023-03-22_16h15.06.502,tripletExp_regina_11082022,2022.2.4,119.65026087799924,
1,10,7,2,0.111111111111111,0.298245614035088,2,0.694444444444444,1.0,2,0.111111111111111,1.0,ReadingArea_rsl2-rcl11-esl29-rsm2-rcm69-esm100-rsr2-rcr11-esr100,exr/ReadingArea_rsl2-rcl11-esl29-rsm2-rcm69-esm100-rsr2-rcr11-esr100.exr,ReadingArea_rsl2-rcl11-esl29-rsm2-rcm69-esm100-rsr2-rcr11-esr100.npz,,,,,0,135,135,94,,right,red,2.66,1219.122200012207,1219.5197839736938,2,6,2,lightness,readingArea,realistic,75,2023-03-22_16h15.06.502,tripletExp_regina_11082022,2022.2.4,119.65026087799924,
3,7,8,2,0.444444444444444,0.298245614035088,2,0.111111111111111,1.0,2,0.25,1.0,ReadingArea_rsl2-rcl44-esl29-rsm2-rcm11-esm100-rsr2-rcr25-esr100,exr/ReadingArea_rsl2-rcl44-esl29-rsm2-rcm11-esm100-rsr2-rcr25-esr100.exr,ReadingArea_rsl2-rcl44-esl29-rsm2-rcm11-esm100-rsr2-rcr25-esr100.npz,,,,,0,136,136,246,,left,green,3.91,1224.739307165146,1225.1045751571655,2,6,2,lightness,readingArea,realistic,75,2023-03-22_16h15.06.502,tripletExp_regina_11082022,2022.2.4,119.65026087799924,
7,2,0,2,0.111111111111111,1.0,2,0.25,0.298245614035088,2,0.027777777777778,0.298245614035088,ReadingArea_rsl2-rcl11-esl100-rsm2-rcm25-esm29-rsr2-rcr2-esr29,exr/ReadingArea_rsl2-rcl11-esl100-rsm2-rcm25-esm29-rsr2-rcr2-esr29.exr,ReadingArea_rsl2-rcl11-esl100-rsm2-rcm25-esm29-rsr2-rcr2-esr29.npz,,,,,0,137,137,520,,left,green,0.96,1226.8157949447632,1227.177314043045,2,6,2,lightness,readingArea,realistic,75,2023-03-22_16h15.06.502,tripletExp_regina_11082022,2022.2.4,119.65026087799924,
10,1,6,2,0.694444444444444,1.0,2,0.111111111111111,0.298245614035088,2,0.027777777777778,1.0,ReadingArea_rsl2-rcl69-esl100-rsm2-rcm11-esm29-rsr2-rcr2-esr100,exr/ReadingArea_rsl2-rcl69-esl100-rsm2-rcm11-esm29-rsr2-rcr2-esr100.exr,ReadingArea_rsl2-rcl69-esl100-rsm2-rcm11-esm29-rsr2-rcr2-esr100.npz,,,,,0,138,138,160,,right,red,1.11,1228.87796998024,1229.2339129447937,2,6,2,lightness,readingArea,realistic,75,2023-03-22_16h15.06.502,tripletExp_regina_11082022,2022.2.4,119.65026087799924,
9,3,8,2,0.444444444444444,1.0,2,0.444444444444444,0.298245614035088,2,0.25,1.0,ReadingArea_rsl2-rcl44-esl100-rsm2-rcm44-esm29-rsr2-rcr25-esr100,exr/ReadingArea_rsl2-rcl44-esl100-rsm2-rcm44-esm29-rsr2-rcr25-esr100.exr,ReadingArea_rsl2-rcl44-esl100-rsm2-rcm44-esm29-rsr2-rcr25-esr100.npz,,,,,0,139,139,530,,right,red,2.13,1232.7341849803925,1233.0908269882202,2,6,2,lightness,readingArea,realistic,75,2023-03-22_16h15.06.502,tripletExp_regina_11082022,2022.2.4,119.65026087799924,
12,13,14,2,0.027777777777778,3.10526315789474,2,0.111111111111111,3.10526315789474,2,0.25,3.10526315789474,ReadingArea_rsl2-rcl2-esl310-rsm2-rcm11-esm310-rsr2-rcr25-esr310,exr/ReadingArea_rsl2-rcl2-esl310-rsm2-rcm11-esm310-rsr2-rcr25-esr310.exr,ReadingArea_rsl2-rcl2-esl310-rsm2-rcm11-esm310-rsr2-rcr25-esr310.npz,,,,,0,140,140,208,,right,red,2.67,1236.5498311519625,1237.008640050888,2,6,2,lightness,readingArea,realistic,75,2023-03-22_16h15.06.502,tripletExp_regina_11082022,2022.2.4,119.65026087799924,
0,5,2,2,0.027777777777778,0.298245614035088,2,1.0,0.298245614035088,2,0.25,0.298245614035088,ReadingArea_rsl2-rcl2-esl29-rsm2-rcm100-esm29-rsr2-rcr25-esr29,exr/ReadingArea_rsl2-rcl2-esl29-rsm2-rcm100-esm29-rsr2-rcr25-esr29.exr,ReadingArea_rsl2-rcl2-esl29-rsm2-rcm100-esm29-rsr2-rcr25-esr29.npz,,,,,0,141,141,25,,right,red,2.56,1240.488914012909,1240.8445739746094,2,6,2,lightness,readingArea,realistic,75,2023-03-22_16h15.06.502,tripletExp_regina_11082022,2022.2.4,119.65026087799924,
8,13,9,2,0.25,1.0,2,0.111111111111111,3.10526315789474,2,0.444444444444444,1.0,ReadingArea_rsl2-rcl25-esl100-rsm2-rcm11-esm310-rsr2-rcr44-esr100,exr/ReadingArea_rsl2-rcl25-esl100-rsm2-rcm11-esm310-rsr2-rcr44-esr100.exr,ReadingArea_rsl2-rcl25-esl100-rsm2-rcm11-esm310-rsr2-rcr44-esr100.npz,,,,,0,142,142,487,,left,green,1.32,1242.5420770645142,1242.9022030830383,2,6,2,lightness,readingArea,realistic,75,2023-03-22_16h15.06.502,tripletExp_regina_11082022,2022.2.4,119.65026087799924,
14,9,0,2,0.25,3.10526315789474,2,0.444444444444444,1.0,2,0.027777777777778,0.298245614035088,ReadingArea_rsl2-rcl25-esl310-rsm2-rcm44-esm100-rsr2-rcr2-esr29,exr/ReadingArea_rsl2-rcl25-esl310-rsm2-rcm44-esm100-rsr2-rcr2-esr29.exr,ReadingArea_rsl2-rcl25-esl310-rsm2-rcm44-esm100-rsr2-rcr2-esr29.npz,,,,,0,143,143,313,,left,green,1.5,1244.6154580116272,,2,6,2,lightness,readingArea,realistic,75,2023-03-22_16h15.06.502,tripletExp_regina_11082022,2022.2.4,119.65026087799924,
5,1,4,2,1.0,0.298245614035088,2,0.111111111111111,0.298245614035088,2,0.694444444444444,0.298245614035088,ReadingArea_rsl2-rcl100-esl29-rsm2-rcm11-esm29-rsr2-rcr69-esr29,exr/ReadingArea_rsl2-rcl100-esl29-rsm2-rcm11-esm29-rsr2-rcr69-esr29.exr,ReadingArea_rsl2-rcl100-esl29-rsm2-rcm11-esm29-rsr2-rcr69-esr29.npz,,,,,0,144,144,287,,right,red,2.38,1248.4403250217438,,2,6,2,lightness,readingArea,realistic,75,2023-03-22_16h15.06.502,tripletExp_regina_11082022,2022.2.4,119.65026087799924,
8,12,7,2,0.25,1.0,2,0.027777777777778,3.10526315789474,2,0.111111111111111,1.0,ReadingArea_rsl2-rcl25-esl100-rsm2-rcm2-esm310-rsr2-rcr11-esr100,exr/ReadingArea_rsl2-rcl25-esl100-rsm2-rcm2-esm310-rsr2-rcr11-esr100.exr,ReadingArea_rsl2-rcl25-esl100-rsm2-rcm2-esm310-rsr2-rcr11-esr100.npz,,,,,0,145,145,467,,right,red,0.95,1250.5150170326233,1250.872414112091,2,6,2,lightness,readingArea,realistic,75,2023-03-22_16h15.06.502,tripletExp_regina_11082022,2022.2.4,119.65026087799924,
2,8,4,2,0.25,0.298245614035088,2,0.25,1.0,2,0.694444444444444,0.298245614035088,ReadingArea_rsl2-rcl25-esl29-rsm2-rcm25-esm100-rsr2-rcr69-esr29,exr/ReadingArea_rsl2-rcl25-esl29-rsm2-rcm25-esm100-rsr2-rcr69-esr29.exr,ReadingArea_rsl2-rcl25-esl29-rsm2-rcm25-esm100-rsr2-rcr69-esr29.npz,,,,,0,146,146,507,,right,red,1.19,1252.5726161003113,1253.020915031433,2,6,2,lightness,readingArea,realistic,75,2023-03-22_16h15.06.502,tripletExp_regina_11082022,2022.2.4,119.65026087799924,
14,12,9,2,0.25,3.10526315789474,2,0.027777777777778,3.10526315789474,2,0.444444444444444,1.0,ReadingArea_rsl2-rcl25-esl310-rsm2-rcm2-esm310-rsr2-rcr44-esr100,exr/ReadingArea_rsl2-rcl25-esl310-rsm2-rcm2-esm310-rsr2-rcr44-esr100.exr,ReadingArea_rsl2-rcl25-esl310-rsm2-rcm2-esm310-rsr2-rcr44-esr100.npz,,,,,0,147,147,40,,right,red,2.61,1256.4885070323944,1256.8471360206604,2,6,2,lightness,readingArea,realistic,75,2023-03-22_16h15.06.502,tripletExp_regina_11082022,2022.2.4,119.65026087799924,
13,4,0,2,0.111111111111111,3.10526315789474,2,0.694444444444444,0.298245614035088,2,0.027777777777778,0.298245614035088,ReadingArea_rsl2-rcl11-esl310-rsm2-rcm69-esm29-rsr2-rcr2-esr29,exr/ReadingArea_rsl2-rcl11-esl310-rsm2-rcm69-esm29-rsr2-rcr2-esr29.exr,ReadingArea_rsl2-rcl11-esl310-rsm2-rcm69-esm29-rsr2-rcr2-esr29.npz,,,,,0,148,148,269,,left,green,1.12,1258.549221992493,1258.905313014984,2,6,2,lightness,readingArea,realistic,75,2023-03-22_16h15.06.502,tripletExp_regina_11082022,2022.2.4,119.65026087799924,
5,14,8,2,1.0,0.298245614035088,2,0.25,3.10526315789474,2,0.25,1.0,ReadingArea_rsl2-rcl100-esl29-rsm2-rcm25-esm310-rsr2-rcr25-esr100,exr/ReadingArea_rsl2-rcl100-esl29-rsm2-rcm25-esm310-rsr2-rcr25-esr100.exr,ReadingArea_rsl2-rcl100-esl29-rsm2-rcm25-esm310-rsr2-rcr25-esr100.npz,,,,,0,149,149,14,,left,green,1.19,1260.5929789543152,,2,6,2,lightness,readingArea,realistic,75,2023-03-22_16h15.06.502,tripletExp_regina_11082022,2022.2.4,119.65026087799924,
2,9,11,2,0.25,0.298245614035088,2,0.444444444444444,1.0,2,1.0,1.0,ReadingArea_rsl2-rcl25-esl29-rsm2-rcm44-esm100-rsr2-rcr100-esr100,exr/ReadingArea_rsl2-rcl25-esl29-rsm2-rcm44-esm100-rsr2-rcr100-esr100.exr,ReadingArea_rsl2-rcl25-esl29-rsm2-rcm44-esm100-rsr2-rcr100-esr100.npz,,,,,0,150,150,164,,right,red,1.17,1288.879583120346,1289.2422940731049,3,6,2,lightness,readingArea,realistic,75,2023-03-22_16h15.06.502,tripletExp_regina_11082022,2022.2.4,119.65026087799924,
6,13,0,2,0.027777777777778,1.0,2,0.111111111111111,3.10526315789474,2,0.027777777777778,0.298245614035088,ReadingArea_rsl2-rcl2-esl100-rsm2-rcm11-esm310-rsr2-rcr2-esr29,exr/ReadingArea_rsl2-rcl2-esl100-rsm2-rcm11-esm310-rsr2-rcr2-esr29.exr,ReadingArea_rsl2-rcl2-esl100-rsm2-rcm11-esm310-rsr2-rcr2-esr29.npz,,,,,0,151,151,580,,left,green,3.14,1292.726513147354,1293.0901370048523,3,6,2,lightness,readingArea,realistic,75,2023-03-22_16h15.06.502,tripletExp_regina_11082022,2022.2.4,119.65026087799924,
3,6,11,2,0.444444444444444,0.298245614035088,2,0.027777777777778,1.0,2,1.0,1.0,ReadingArea_rsl2-rcl44-esl29-rsm2-rcm2-esm100-rsr2-rcr100-esr100,exr/ReadingArea_rsl2-rcl44-esl29-rsm2-rcm2-esm100-rsr2-rcr100-esr100.exr,ReadingArea_rsl2-rcl44-esl29-rsm2-rcm2-esm100-rsr2-rcr100-esr100.npz,,,,,0,152,152,155,,left,green,2.48,1296.550768136978,1296.9135839939115,3,6,2,lightness,readingArea,realistic,75,2023-03-22_16h15.06.502,tripletExp_regina_11082022,2022.2.4,119.65026087799924,
1,0,4,2,0.111111111111111,0.298245614035088,2,0.027777777777778,0.298245614035088,2,0.694444444444444,0.298245614035088,ReadingArea_rsl2-rcl11-esl29-rsm2-rcm2-esm29-rsr2-rcr69-esr29,exr/ReadingArea_rsl2-rcl11-esl29-rsm2-rcm2-esm29-rsr2-rcr69-esr29.exr,ReadingArea_rsl2-rcl11-esl29-rsm2-rcm2-esm29-rsr2-rcr69-esr29.npz,,,,,0,153,153,494,,left,green,0.92,1298.6215629577637,1298.9783239364624,3,6,2,lightness,readingArea,realistic,75,2023-03-22_16h15.06.502,tripletExp_regina_11082022,2022.2.4,119.65026087799924,
7,12,0,2,0.111111111111111,1.0,2,0.027777777777778,3.10526315789474,2,0.027777777777778,0.298245614035088,ReadingArea_rsl2-rcl11-esl100-rsm2-rcm2-esm310-rsr2-rcr2-esr29,exr/ReadingArea_rsl2-rcl11-esl100-rsm2-rcm2-esm310-rsr2-rcr2-esr29.exr,ReadingArea_rsl2-rcl11-esl100-rsm2-rcm2-esm310-rsr2-rcr2-esr29.npz,,,,,0,154,154,425,,left,green,1.02,1300.6817100048063,1301.0370650291443,3,6,2,lightness,readingArea,realistic,75,2023-03-22_16h15.06.502,tripletExp_regina_11082022,2022.2.4,119.65026087799924,
2,5,14,2,0.25,0.298245614035088,2,1.0,0.298245614035088,2,0.25,3.10526315789474,ReadingArea_rsl2-rcl25-esl29-rsm2-rcm100-esm29-rsr2-rcr25-esr310,exr/ReadingArea_rsl2-rcl25-esl29-rsm2-rcm100-esm29-rsr2-rcr25-esr310.exr,ReadingArea_rsl2-rcl25-esl29-rsm2-rcm100-esm29-rsr2-rcr25-esr310.npz,,,,,0,155,155,390,,left,green,2.93,1304.5034561157229,1304.864619016647,3,6,2,lightness,readingArea,realistic,75,2023-03-22_16h15.06.502,tripletExp_regina_11082022,2022.2.4,119.65026087799924,
7,3,0,2,0.111111111111111,1.0,2,0.444444444444444,0.298245614035088,2,0.027777777777778,0.298245614035088,ReadingArea_rsl2-rcl11-esl100-rsm2-rcm44-esm29-rsr2-rcr2-esr29,exr/ReadingArea_rsl2-rcl11-esl100-rsm2-rcm44-esm29-rsr2-rcr2-esr29.exr,ReadingArea_rsl2-rcl11-esl100-rsm2-rcm44-esm29-rsr2-rcr2-esr29.npz,,,,,0,156,156,318,,left,green,1.06,1306.588083028793,1306.9458739757538,3,6,2,lightness,readingArea,realistic,75,2023-03-22_16h15.06.502,tripletExp_regina_11082022,2022.2.4,119.65026087799924,
11,0,6,2,1.0,1.0,2,0.027777777777778,0.298245614035088,2,0.027777777777778,1.0,ReadingArea_rsl2-rcl100-esl100-rsm2-rcm2-esm29-rsr2-rcr2-esr100,exr/ReadingArea_rsl2-rcl100-esl100-rsm2-rcm2-esm29-rsr2-rcr2-esr100.exr,ReadingArea_rsl2-rcl100-esl100-rsm2-rcm2-esm29-rsr2-rcr2-esr100.npz,,,,,0,157,157,586,,right,red,0.96,1308.632339000702,1308.9889769554138,3,6,2,lightness,readingArea,realistic,75,2023-03-22_16h15.06.502,tripletExp_regina_11082022,2022.2.4,119.65026087799924,
14,11,0,2,0.25,3.10526315789474,2,1.0,1.0,2,0.027777777777778,0.298245614035088,ReadingArea_rsl2-rcl25-esl310-rsm2-rcm100-esm100-rsr2-rcr2-esr29,exr/ReadingArea_rsl2-rcl25-esl310-rsm2-rcm100-esm100-rsr2-rcr2-esr29.exr,ReadingArea_rsl2-rcl25-esl310-rsm2-rcm100-esm100-rsr2-rcr2-esr29.npz,,,,,0,158,158,227,,left,green,0.85,1310.705892086029,1311.061285018921,3,6,2,lightness,readingArea,realistic,75,2023-03-22_16h15.06.502,tripletExp_regina_11082022,2022.2.4,119.65026087799924,
6,9,2,2,0.027777777777778,1.0,2,0.444444444444444,1.0,2,0.25,0.298245614035088,ReadingArea_rsl2-rcl2-esl100-rsm2-rcm44-esm100-rsr2-rcr25-esr29,exr/ReadingArea_rsl2-rcl2-esl100-rsm2-rcm44-esm100-rsr2-rcr25-esr29.exr,ReadingArea_rsl2-rcl2-esl100-rsm2-rcm44-esm100-rsr2-rcr25-esr29.npz,,,,,0,159,159,182,,right,red,1.17,1312.7843639850616,1313.145609140396,3,6,2,lightness,readingArea,realistic,75,2023-03-22_16h15.06.502,tripletExp_regina_11082022,2022.2.4,119.65026087799924,
12,4,9,2,0.027777777777778,3.10526315789474,2,0.694444444444444,0.298245614035088,2,0.444444444444444,1.0,ReadingArea_rsl2-rcl2-esl310-rsm2-rcm69-esm29-rsr2-rcr44-esr100,exr/ReadingArea_rsl2-rcl2-esl310-rsm2-rcm69-esm29-rsr2-rcr44-esr100.exr,ReadingArea_rsl2-rcl2-esl310-rsm2-rcm69-esm29-rsr2-rcr44-esr100.npz,,,,,0,160,160,380,,left,green,2.93,1316.6341421604156,1317.000225067139,3,6,2,lightness,readingArea,realistic,75,2023-03-22_16h15.06.502,tripletExp_regina_11082022,2022.2.4,119.65026087799924,
0,9,14,2,0.027777777777778,0.298245614035088,2,0.444444444444444,1.0,2,0.25,3.10526315789474,ReadingArea_rsl2-rcl2-esl29-rsm2-rcm44-esm100-rsr2-rcr25-esr310,exr/ReadingArea_rsl2-rcl2-esl29-rsm2-rcm44-esm100-rsr2-rcr25-esr310.exr,ReadingArea_rsl2-rcl2-esl29-rsm2-rcm44-esm100-rsr2-rcr25-esr310.npz,,,,,0,161,161,433,,right,red,1.03,1318.7063829898834,1319.068195104599,3,6,2,lightness,readingArea,realistic,75,2023-03-22_16h15.06.502,tripletExp_regina_11082022,2022.2.4,119.65026087799924,
5,8,3,2,1.0,0.298245614035088,2,0.25,1.0,2,0.444444444444444,0.298245614035088,ReadingArea_rsl2-rcl100-esl29-rsm2-rcm25-esm100-rsr2-rcr44-esr29,exr/ReadingArea_rsl2-rcl100-esl29-rsm2-rcm25-esm100-rsr2-rcr44-esr29.exr,ReadingArea_rsl2-rcl100-esl29-rsm2-rcm25-esm100-rsr2-rcr44-esr29.npz,,,,,0,162,162,556,,right,red,2.82,1322.56121301651,1322.9357540607452,3,6,2,lightness,readingArea,realistic,75,2023-03-22_16h15.06.502,tripletExp_regina_11082022,2022.2.4,119.65026087799924,
11,8,0,2,1.0,1.0,2,0.25,1.0,2,0.027777777777778,0.298245614035088,ReadingArea_rsl2-rcl100-esl100-rsm2-rcm25-esm100-rsr2-rcr2-esr29,exr/ReadingArea_rsl2-rcl100-esl100-rsm2-rcm25-esm100-rsr2-rcr2-esr29.exr,ReadingArea_rsl2-rcl100-esl100-rsm2-rcm25-esm100-rsr2-rcr2-esr29.npz,,,,,0,163,163,81,,left,green,1.57,1324.6308760643003,1324.992712020874,3,6,2,lightness,readingArea,realistic,75,2023-03-22_16h15.06.502,tripletExp_regina_11082022,2022.2.4,119.65026087799924,
2,1,12,2,0.25,0.298245614035088,2,0.111111111111111,0.298245614035088,2,0.027777777777778,3.10526315789474,ReadingArea_rsl2-rcl25-esl29-rsm2-rcm11-esm29-rsr2-rcr2-esr310,exr/ReadingArea_rsl2-rcl25-esl29-rsm2-rcm11-esm29-rsr2-rcr2-esr310.exr,ReadingArea_rsl2-rcl25-esl29-rsm2-rcm11-esm29-rsr2-rcr2-esr310.npz,,,,,0,164,164,12,,left,green,2.77,1328.4575641155243,1328.8238060474396,3,6,2,lightness,readingArea,realistic,75,2023-03-22_16h15.06.502,tripletExp_regina_11082022,2022.2.4,119.65026087799924,
13,12,5,2,0.111111111111111,3.10526315789474,2,0.027777777777778,3.10526315789474,2,1.0,0.298245614035088,ReadingArea_rsl2-rcl11-esl310-rsm2-rcm2-esm310-rsr2-rcr100-esr29,exr/ReadingArea_rsl2-rcl11-esl310-rsm2-rcm2-esm310-rsr2-rcr100-esr29.exr,ReadingArea_rsl2-rcl11-esl310-rsm2-rcm2-esm310-rsr2-rcr100-esr29.npz,,,,,0,165,165,294,,left,green,3.0,1332.2844619750977,1332.6424269676208,3,6,2,lightness,readingArea,realistic,75,2023-03-22_16h15.06.502,tripletExp_regina_11082022,2022.2.4,119.65026087799924,
2,11,5,2,0.25,0.298245614035088,2,1.0,1.0,2,1.0,0.298245614035088,ReadingArea_rsl2-rcl25-esl29-rsm2-rcm100-esm100-rsr2-rcr100-esr29,exr/ReadingArea_rsl2-rcl25-esl29-rsm2-rcm100-esm100-rsr2-rcr100-esr29.exr,ReadingArea_rsl2-rcl25-esl29-rsm2-rcm100-esm100-rsr2-rcr100-esr29.npz,,,,,0,166,166,491,,right,red,1.31,1334.3608901500702,1334.7451779842377,3,6,2,lightness,readingArea,realistic,75,2023-03-22_16h15.06.502,tripletExp_regina_11082022,2022.2.4,119.65026087799924,
4,5,1,2,0.694444444444444,0.298245614035088,2,1.0,0.298245614035088,2,0.111111111111111,0.298245614035088,ReadingArea_rsl2-rcl69-esl29-rsm2-rcm100-esm29-rsr2-rcr11-esr29,exr/ReadingArea_rsl2-rcl69-esl29-rsm2-rcm100-esm29-rsr2-rcr11-esr29.exr,ReadingArea_rsl2-rcl69-esl29-rsm2-rcm100-esm29-rsr2-rcr11-esr29.npz,,,,,0,167,167,240,,left,green,1.11,1336.4719099998474,1336.8537890911102,3,6,2,lightness,readingArea,realistic,75,2023-03-22_16h15.06.502,tripletExp_regina_11082022,2022.2.4,119.65026087799924,
0,14,11,2,0.027777777777778,0.298245614035088,2,0.25,3.10526315789474,2,1.0,1.0,ReadingArea_rsl2-rcl2-esl29-rsm2-rcm25-esm310-rsr2-rcr100-esr100,exr/ReadingArea_rsl2-rcl2-esl29-rsm2-rcm25-esm310-rsr2-rcr100-esr100.exr,ReadingArea_rsl2-rcl2-esl29-rsm2-rcm25-esm310-rsr2-rcr100-esr100.npz,,,,,0,168,168,557,,right,red,0.92,1338.5840411186218,1339.0368010997772,3,6,2,lightness,readingArea,realistic,75,2023-03-22_16h15.06.502,tripletExp_regina_11082022,2022.2.4,119.65026087799924,
0,14,10,2,0.027777777777778,0.298245614035088,2,0.25,3.10526315789474,2,0.694444444444444,1.0,ReadingArea_rsl2-rcl2-esl29-rsm2-rcm25-esm310-rsr2-rcr69-esr100,exr/ReadingArea_rsl2-rcl2-esl29-rsm2-rcm25-esm310-rsr2-rcr69-esr100.exr,ReadingArea_rsl2-rcl2-esl29-rsm2-rcm25-esm310-rsr2-rcr69-esr100.npz,,,,,0,169,169,128,,right,red,0.81,1340.754028081894,1341.1116681098938,3,6,2,lightness,readingArea,realistic,75,2023-03-22_16h15.06.502,tripletExp_regina_11082022,2022.2.4,119.65026087799924,
5,10,0,2,1.0,0.298245614035088,2,0.694444444444444,1.0,2,0.027777777777778,0.298245614035088,ReadingArea_rsl2-rcl100-esl29-rsm2-rcm69-esm100-rsr2-rcr2-esr29,exr/ReadingArea_rsl2-rcl100-esl29-rsm2-rcm69-esm100-rsr2-rcr2-esr29.exr,ReadingArea_rsl2-rcl100-esl29-rsm2-rcm69-esm100-rsr2-rcr2-esr29.npz,,,,,0,170,170,293,,left,green,0.8,1342.8088150024414,1343.1697380542755,3,6,2,lightness,readingArea,realistic,75,2023-03-22_16h15.06.502,tripletExp_regina_11082022,2022.2.4,119.65026087799924,
10,8,1,2,0.694444444444444,1.0,2,0.25,1.0,2,0.111111111111111,0.298245614035088,ReadingArea_rsl2-rcl69-esl100-rsm2-rcm25-esm100-rsr2-rcr11-esr29,exr/ReadingArea_rsl2-rcl69-esl100-rsm2-rcm25-esm100-rsr2-rcr11-esr29.exr,ReadingArea_rsl2-rcl69-esl100-rsm2-rcm25-esm100-rsr2-rcr11-esr29.npz,,,,,0,171,171,247,,right,red,2.71,1346.654086112976,1347.0135691165924,3,6,2,lightness,readingArea,realistic,75,2023-03-22_16h15.06.502,tripletExp_regina_11082022,2022.2.4,119.65026087799924,
2,11,14,2,0.25,0.298245614035088,2,1.0,1.0,2,0.25,3.10526315789474,ReadingArea_rsl2-rcl25-esl29-rsm2-rcm100-esm100-rsr2-rcr25-esr310,exr/ReadingArea_rsl2-rcl25-esl29-rsm2-rcm100-esm100-rsr2-rcr25-esr310.exr,ReadingArea_rsl2-rcl25-esl29-rsm2-rcm100-esm100-rsr2-rcr25-esr310.npz,,,,,0,172,172,534,,right,red,0.98,1348.7010860443115,1349.1508660316467,3,6,2,lightness,readingArea,realistic,75,2023-03-22_16h15.06.502,tripletExp_regina_11082022,2022.2.4,119.65026087799924,
13,3,14,2,0.111111111111111,3.10526315789474,2,0.444444444444444,0.298245614035088,2,0.25,3.10526315789474,ReadingArea_rsl2-rcl11-esl310-rsm2-rcm44-esm29-rsr2-rcr25-esr310,exr/ReadingArea_rsl2-rcl11-esl310-rsm2-rcm44-esm29-rsr2-rcr25-esr310.exr,ReadingArea_rsl2-rcl11-esl310-rsm2-rcm44-esm29-rsr2-rcr25-esr310.npz,,,,,0,173,173,38,,left,green,1.23,1350.861892938614,1351.3009750843048,3,6,2,lightness,readingArea,realistic,75,2023-03-22_16h15.06.502,tripletExp_regina_11082022,2022.2.4,119.65026087799924,
4,7,10,2,0.694444444444444,0.298245614035088,2,0.111111111111111,1.0,2,0.694444444444444,1.0,ReadingArea_rsl2-rcl69-esl29-rsm2-rcm11-esm100-rsr2-rcr69-esr100,exr/ReadingArea_rsl2-rcl69-esl29-rsm2-rcm11-esm100-rsr2-rcr69-esr100.exr,ReadingArea_rsl2-rcl69-esl29-rsm2-rcm11-esm100-rsr2-rcr69-esr100.npz,,,,,0,174,174,8,,left,green,1.21,1353.0062329769137,1353.3614790439606,3,6,2,lightness,readingArea,realistic,75,2023-03-22_16h15.06.502,tripletExp_regina_11082022,2022.2.4,119.65026087799924,
4,10,6,2,0.694444444444444,0.298245614035088,2,0.694444444444444,1.0,2,0.027777777777778,1.0,ReadingArea_rsl2-rcl69-esl29-rsm2-rcm69-esm100-rsr2-rcr2-esr100,exr/ReadingArea_rsl2-rcl69-esl29-rsm2-rcm69-esm100-rsr2-rcr2-esr100.exr,ReadingArea_rsl2-rcl69-esl29-rsm2-rcm69-esm100-rsr2-rcr2-esr100.npz,,,,,0,175,175,468,,left,green,1.49,1355.0530359745026,1355.4149219989777,3,6,2,lightness,readingArea,realistic,75,2023-03-22_16h15.06.502,tripletExp_regina_11082022,2022.2.4,119.65026087799924,
13,11,7,2,0.111111111111111,3.10526315789474,2,1.0,1.0,2,0.111111111111111,1.0,ReadingArea_rsl2-rcl11-esl310-rsm2-rcm100-esm100-rsr2-rcr11-esr100,exr/ReadingArea_rsl2-rcl11-esl310-rsm2-rcm100-esm100-rsr2-rcr11-esr100.exr,ReadingArea_rsl2-rcl11-esl310-rsm2-rcm100-esm100-rsr2-rcr11-esr100.npz,,,,,0,176,176,590,,left,green,1.26,1357.134269952774,1357.5203340053558,3,6,2,lightness,readingArea,realistic,75,2023-03-22_16h15.06.502,tripletExp_regina_11082022,2022.2.4,119.65026087799924,
12,8,6,2,0.027777777777778,3.10526315789474,2,0.25,1.0,2,0.027777777777778,1.0,ReadingArea_rsl2-rcl2-esl310-rsm2-rcm25-esm100-rsr2-rcr2-esr100,exr/ReadingArea_rsl2-rcl2-esl310-rsm2-rcm25-esm100-rsr2-rcr2-esr100.exr,ReadingArea_rsl2-rcl2-esl310-rsm2-rcm25-esm100-rsr2-rcr2-esr100.npz,,,,,0,177,177,281,,left,green,1.28,1359.2075381278992,1359.5644891262054,3,6,2,lightness,readingArea,realistic,75,2023-03-22_16h15.06.502,tripletExp_regina_11082022,2022.2.4,119.65026087799924,
0,8,9,2,0.027777777777778,0.298245614035088,2,0.25,1.0,2,0.444444444444444,1.0,ReadingArea_rsl2-rcl2-esl29-rsm2-rcm25-esm100-rsr2-rcr44-esr100,exr/ReadingArea_rsl2-rcl2-esl29-rsm2-rcm25-esm100-rsr2-rcr44-esr100.exr,ReadingArea_rsl2-rcl2-esl29-rsm2-rcm25-esm100-rsr2-rcr44-esr100.npz,,,,,0,178,178,541,,right,red,1.29,1361.2503881454468,1361.6142370700836,3,6,2,lightness,readingArea,realistic,75,2023-03-22_16h15.06.502,tripletExp_regina_11082022,2022.2.4,119.65026087799924,
0,5,11,2,0.027777777777778,0.298245614035088,2,1.0,0.298245614035088,2,1.0,1.0,ReadingArea_rsl2-rcl2-esl29-rsm2-rcm100-esm29-rsr2-rcr100-esr100,exr/ReadingArea_rsl2-rcl2-esl29-rsm2-rcm100-esm29-rsr2-rcr100-esr100.exr,ReadingArea_rsl2-rcl2-esl29-rsm2-rcm100-esm29-rsr2-rcr100-esr100.npz,,,,,0,179,179,422,,right,red,1.04,1363.3332600593567,,3,6,2,lightness,readingArea,realistic,75,2023-03-22_16h15.06.502,tripletExp_regina_11082022,2022.2.4,119.65026087799924,
1,3,12,2,0.111111111111111,0.298245614035088,2,0.444444444444444,0.298245614035088,2,0.027777777777778,3.10526315789474,ReadingArea_rsl2-rcl11-esl29-rsm2-rcm44-esm29-rsr2-rcr2-esr310,exr/ReadingArea_rsl2-rcl11-esl29-rsm2-rcm44-esm29-rsr2-rcr2-esr310.exr,ReadingArea_rsl2-rcl11-esl29-rsm2-rcm44-esm29-rsr2-rcr2-esr310.npz,,,,,0,180,180,323,,right,red,1.14,1365.389846086502,1365.746549129486,3,6,2,lightness,readingArea,realistic,75,2023-03-22_16h15.06.502,tripletExp_regina_11082022,2022.2.4,119.65026087799924,
4,3,1,2,0.694444444444444,0.298245614035088,2,0.444444444444444,0.298245614035088,2,0.111111111111111,0.298245614035088,ReadingArea_rsl2-rcl69-esl29-rsm2-rcm44-esm29-rsr2-rcr11-esr29,exr/ReadingArea_rsl2-rcl69-esl29-rsm2-rcm44-esm29-rsr2-rcr11-esr29.exr,ReadingArea_rsl2-rcl69-esl29-rsm2-rcm44-esm29-rsr2-rcr11-esr29.npz,,,,,0,181,181,60,,left,green,0.98,1367.4584259986875,1367.8334980010986,3,6,2,lightness,readingArea,realistic,75,2023-03-22_16h15.06.502,tripletExp_regina_11082022,2022.2.4,119.65026087799924,
0,8,3,2,0.027777777777778,0.298245614035088,2,0.25,1.0,2,0.444444444444444,0.298245614035088,ReadingArea_rsl2-rcl2-esl29-rsm2-rcm25-esm100-rsr2-rcr44-esr29,exr/ReadingArea_rsl2-rcl2-esl29-rsm2-rcm25-esm100-rsr2-rcr44-esr29.exr,ReadingArea_rsl2-rcl2-esl29-rsm2-rcm25-esm100-rsr2-rcr44-esr29.npz,,,,,0,182,182,301,,right,red,1.1,1369.525367021561,1369.8868899345398,3,6,2,lightness,readingArea,realistic,75,2023-03-22_16h15.06.502,tripletExp_regina_11082022,2022.2.4,119.65026087799924,
2,14,9,2,0.25,0.298245614035088,2,0.25,3.10526315789474,2,0.444444444444444,1.0,ReadingArea_rsl2-rcl25-esl29-rsm2-rcm25-esm310-rsr2-rcr44-esr100,exr/ReadingArea_rsl2-rcl25-esl29-rsm2-rcm25-esm310-rsr2-rcr44-esr100.exr,ReadingArea_rsl2-rcl25-esl29-rsm2-rcm25-esm310-rsr2-rcr44-esr100.npz,,,,,0,183,183,51,,right,red,2.68,1373.3714809417725,1373.7363970279694,3,6,2,lightness,readingArea,realistic,75,2023-03-22_16h15.06.502,tripletExp_regina_11082022,2022.2.4,119.65026087799924,
2,4,13,2,0.25,0.298245614035088,2,0.694444444444444,0.298245614035088,2,0.111111111111111,3.10526315789474,ReadingArea_rsl2-rcl25-esl29-rsm2-rcm69-esm29-rsr2-rcr11-esr310,exr/ReadingArea_rsl2-rcl25-esl29-rsm2-rcm69-esm29-rsr2-rcr11-esr310.exr,ReadingArea_rsl2-rcl25-esl29-rsm2-rcm69-esm29-rsr2-rcr11-esr310.npz,,,,,0,184,184,325,,left,green,1.18,1375.4441590309143,,3,6,2,lightness,readingArea,realistic,75,2023-03-22_16h15.06.502,tripletExp_regina_11082022,2022.2.4,119.65026087799924,
6,3,13,2,0.027777777777778,1.0,2,0.444444444444444,0.298245614035088,2,0.111111111111111,3.10526315789474,ReadingArea_rsl2-rcl2-esl100-rsm2-rcm44-esm29-rsr2-rcr11-esr310,exr/ReadingArea_rsl2-rcl2-esl100-rsm2-rcm44-esm29-rsr2-rcr11-esr310.exr,ReadingArea_rsl2-rcl2-esl100-rsm2-rcm44-esm29-rsr2-rcr11-esr310.npz,,,,,0,185,185,228,,right,red,4.33,1381.071967124939,1381.5348689556122,3,6,2,lightness,readingArea,realistic,75,2023-03-22_16h15.06.502,tripletExp_regina_11082022,2022.2.4,119.65026087799924,
7,13,12,2,0.111111111111111,1.0,2,0.111111111111111,3.10526315789474,2,0.027777777777778,3.10526315789474,ReadingArea_rsl2-rcl11-esl100-rsm2-rcm11-esm310-rsr2-rcr2-esr310,exr/ReadingArea_rsl2-rcl11-esl100-rsm2-rcm11-esm310-rsr2-rcr2-esr310.exr,ReadingArea_rsl2-rcl11-esl100-rsm2-rcm11-esm310-rsr2-rcr2-esr310.npz,,,,,0,186,186,438,,right,red,2.81,1385.0134191513062,1385.3803629875183,3,6,2,lightness,readingArea,realistic,75,2023-03-22_16h15.06.502,tripletExp_regina_11082022,2022.2.4,119.65026087799924,
1,3,4,2,0.111111111111111,0.298245614035088,2,0.444444444444444,0.298245614035088,2,0.694444444444444,0.298245614035088,ReadingArea_rsl2-rcl11-esl29-rsm2-rcm44-esm29-rsr2-rcr69-esr29,exr/ReadingArea_rsl2-rcl11-esl29-rsm2-rcm44-esm29-rsr2-rcr69-esr29.exr,ReadingArea_rsl2-rcl11-esl29-rsm2-rcm44-esm29-rsr2-rcr69-esr29.npz,,,,,0,187,187,153,,right,red,1.21,1387.0895340442655,1387.458130121231,3,6,2,lightness,readingArea,realistic,75,2023-03-22_16h15.06.502,tripletExp_regina_11082022,2022.2.4,119.65026087799924,
5,13,6,2,1.0,0.298245614035088,2,0.111111111111111,3.10526315789474,2,0.027777777777778,1.0,ReadingArea_rsl2-rcl100-esl29-rsm2-rcm11-esm310-rsr2-rcr2-esr100,exr/ReadingArea_rsl2-rcl100-esl29-rsm2-rcm11-esm310-rsr2-rcr2-esr100.exr,ReadingArea_rsl2-rcl100-esl29-rsm2-rcm11-esm310-rsr2-rcr2-esr100.npz,,,,,0,188,188,263,,left,green,1.04,1389.157878160477,1389.5217640399933,3,6,2,lightness,readingArea,realistic,75,2023-03-22_16h15.06.502,tripletExp_regina_11082022,2022.2.4,119.65026087799924,
2,12,6,2,0.25,0.298245614035088,2,0.027777777777778,3.10526315789474,2,0.027777777777778,1.0,ReadingArea_rsl2-rcl25-esl29-rsm2-rcm2-esm310-rsr2-rcr2-esr100,exr/ReadingArea_rsl2-rcl25-esl29-rsm2-rcm2-esm310-rsr2-rcr2-esr100.exr,ReadingArea_rsl2-rcl25-esl29-rsm2-rcm2-esm310-rsr2-rcr2-esr100.npz,,,,,0,189,189,400,,left,green,1.15,1391.215924024582,1391.653340101242,3,6,2,lightness,readingArea,realistic,75,2023-03-22_16h15.06.502,tripletExp_regina_11082022,2022.2.4,119.65026087799924,
14,2,6,2,0.25,3.10526315789474,2,0.25,0.298245614035088,2,0.027777777777778,1.0,ReadingArea_rsl2-rcl25-esl310-rsm2-rcm25-esm29-rsr2-rcr2-esr100,exr/ReadingArea_rsl2-rcl25-esl310-rsm2-rcm25-esm29-rsr2-rcr2-esr100.exr,ReadingArea_rsl2-rcl25-esl310-rsm2-rcm25-esm29-rsr2-rcr2-esr100.npz,,,,,0,190,190,350,,right,red,3.0,1395.1129050254822,1395.4707989692688,3,6,2,lightness,readingArea,realistic,75,2023-03-22_16h15.06.502,tripletExp_regina_11082022,2022.2.4,119.65026087799924,
9,0,11,2,0.444444444444444,1.0,2,0.027777777777778,0.298245614035088,2,1.0,1.0,ReadingArea_rsl2-rcl44-esl100-rsm2-rcm2-esm29-rsr2-rcr100-esr100,exr/ReadingArea_rsl2-rcl44-esl100-rsm2-rcm2-esm29-rsr2-rcr100-esr100.exr,ReadingArea_rsl2-rcl44-esl100-rsm2-rcm2-esm29-rsr2-rcr100-esr100.npz,,,,,0,191,191,319,,right,red,4.2,1400.7362220287323,1401.097384929657,3,6,2,lightness,readingArea,realistic,75,2023-03-22_16h15.06.502,tripletExp_regina_11082022,2022.2.4,119.65026087799924,
0,9,10,2,0.027777777777778,0.298245614035088,2,0.444444444444444,1.0,2,0.694444444444444,1.0,ReadingArea_rsl2-rcl2-esl29-rsm2-rcm44-esm100-rsr2-rcr69-esr100,exr/ReadingArea_rsl2-rcl2-esl29-rsm2-rcm44-esm100-rsr2-rcr69-esr100.exr,ReadingArea_rsl2-rcl2-esl29-rsm2-rcm44-esm100-rsr2-rcr69-esr100.npz,,,,,0,192,192,434,,right,red,0.93,1402.8080141544342,1403.175575017929,3,6,2,lightness,readingArea,realistic,75,2023-03-22_16h15.06.502,tripletExp_regina_11082022,2022.2.4,119.65026087799924,
12,3,11,2,0.027777777777778,3.10526315789474,2,0.444444444444444,0.298245614035088,2,1.0,1.0,ReadingArea_rsl2-rcl2-esl310-rsm2-rcm44-esm29-rsr2-rcr100-esr100,exr/ReadingArea_rsl2-rcl2-esl310-rsm2-rcm44-esm29-rsr2-rcr100-esr100.exr,ReadingArea_rsl2-rcl2-esl310-rsm2-rcm44-esm29-rsr2-rcr100-esr100.npz,,,,,0,193,193,83,,left,green,2.07,1406.651652097702,1407.0194771289823,3,6,2,lightness,readingArea,realistic,75,2023-03-22_16h15.06.502,tripletExp_regina_11082022,2022.2.4,119.65026087799924,
4,1,13,2,0.694444444444444,0.298245614035088,2,0.111111111111111,0.298245614035088,2,0.111111111111111,3.10526315789474,ReadingArea_rsl2-rcl69-esl29-rsm2-rcm11-esm29-rsr2-rcr11-esr310,exr/ReadingArea_rsl2-rcl69-esl29-rsm2-rcm11-esm29-rsr2-rcr11-esr310.exr,ReadingArea_rsl2-rcl69-esl29-rsm2-rcm11-esm29-rsr2-rcr11-esr310.npz,,,,,0,194,194,565,,left,green,3.04,1410.496099948883,1410.8628311157229,3,6,2,lightness,readingArea,realistic,75,2023-03-22_16h15.06.502,tripletExp_regina_11082022,2022.2.4,119.65026087799924,
12,7,2,2,0.027777777777778,3.10526315789474,2,0.111111111111111,1.0,2,0.25,0.298245614035088,ReadingArea_rsl2-rcl2-esl310-rsm2-rcm11-esm100-rsr2-rcr25-esr29,exr/ReadingArea_rsl2-rcl2-esl310-rsm2-rcm11-esm100-rsr2-rcr25-esr29.exr,ReadingArea_rsl2-rcl2-esl310-rsm2-rcm11-esm100-rsr2-rcr25-esr29.npz,,,,,0,195,195,248,,right,red,3.0,1414.3437020778656,1414.7097671031952,3,6,2,lightness,readingArea,realistic,75,2023-03-22_16h15.06.502,tripletExp_regina_11082022,2022.2.4,119.65026087799924,
10,4,9,2,0.694444444444444,1.0,2,0.694444444444444,0.298245614035088,2,0.444444444444444,1.0,ReadingArea_rsl2-rcl69-esl100-rsm2-rcm69-esm29-rsr2-rcr44-esr100,exr/ReadingArea_rsl2-rcl69-esl100-rsm2-rcm69-esm29-rsr2-rcr44-esr100.exr,ReadingArea_rsl2-rcl69-esl100-rsm2-rcm69-esm29-rsr2-rcr44-esr100.npz,,,,,0,196,196,452,,right,red,1.83,1418.191852092743,1418.5531420707705,3,6,2,lightness,readingArea,realistic,75,2023-03-22_16h15.06.502,tripletExp_regina_11082022,2022.2.4,119.65026087799924,
14,7,8,2,0.25,3.10526315789474,2,0.111111111111111,1.0,2,0.25,1.0,ReadingArea_rsl2-rcl25-esl310-rsm2-rcm11-esm100-rsr2-rcr25-esr100,exr/ReadingArea_rsl2-rcl25-esl310-rsm2-rcm11-esm100-rsr2-rcr25-esr100.exr,ReadingArea_rsl2-rcl25-esl310-rsm2-rcm11-esm100-rsr2-rcr25-esr100.npz,,,,,0,197,197,326,,right,red,0.96,1420.2492091655731,1420.60985994339,3,6,2,lightness,readingArea,realistic,75,2023-03-22_16h15.06.502,tripletExp_regina_11082022,2022.2.4,119.65026087799924,
2,5,0,2,0.25,0.298245614035088,2,1.0,0.298245614035088,2,0.027777777777778,0.298245614035088,ReadingArea_rsl2-rcl25-esl29-rsm2-rcm100-esm29-rsr2-rcr2-esr29,exr/ReadingArea_rsl2-rcl25-esl29-rsm2-rcm100-esm29-rsr2-rcr2-esr29.exr,ReadingArea_rsl2-rcl25-esl29-rsm2-rcm100-esm29-rsr2-rcr2-esr29.npz,,,,,0,198,198,414,,left,green,1.11,1422.3117599487305,1422.680650949478,3,6,2,lightness,readingArea,realistic,75,2023-03-22_16h15.06.502,tripletExp_regina_11082022,2022.2.4,119.65026087799924,
5,2,10,2,1.0,0.298245614035088,2,0.25,0.298245614035088,2,0.694444444444444,1.0,ReadingArea_rsl2-rcl100-esl29-rsm2-rcm25-esm29-rsr2-rcr69-esr100,exr/ReadingArea_rsl2-rcl100-esl29-rsm2-rcm25-esm29-rsr2-rcr69-esr100.exr,ReadingArea_rsl2-rcl100-esl29-rsm2-rcm25-esm29-rsr2-rcr69-esr100.npz,,,,,0,199,199,595,,left,green,1.26,1424.3844339847565,1424.7449300289154,3,6,2,lightness,readingArea,realistic,75,2023-03-22_16h15.06.502,tripletExp_regina_11082022,2022.2.4,119.65026087799924,
11,13,1,2,1.0,1.0,2,0.111111111111111,3.10526315789474,2,0.111111111111111,0.298245614035088,ReadingArea_rsl2-rcl100-esl100-rsm2-rcm11-esm310-rsr2-rcr11-esr29,exr/ReadingArea_rsl2-rcl100-esl100-rsm2-rcm11-esm310-rsr2-rcr11-esr29.exr,ReadingArea_rsl2-rcl100-esl100-rsm2-rcm11-esm310-rsr2-rcr11-esr29.npz,,,,,0,200,200,185,,left,green,1.52,1426.4491579532623,1426.8149890899658,3,6,2,lightness,readingArea,realistic,75,2023-03-22_16h15.06.502,tripletExp_regina_11082022,2022.2.4,119.65026087799924,
9,0,6,2,0.444444444444444,1.0,2,0.027777777777778,0.298245614035088,2,0.027777777777778,1.0,ReadingArea_rsl2-rcl44-esl100-rsm2-rcm2-esm29-rsr2-rcr2-esr100,exr/ReadingArea_rsl2-rcl44-esl100-rsm2-rcm2-esm29-rsr2-rcr2-esr100.exr,ReadingArea_rsl2-rcl44-esl100-rsm2-rcm2-esm29-rsr2-rcr2-esr100.npz,,,,,0,201,201,362,,right,red,1.25,1428.5147759914398,1428.8800220489502,3,6,2,lightness,readingArea,realistic,75,2023-03-22_16h15.06.502,tripletExp_regina_11082022,2022.2.4,119.65026087799924,
11,8,7,2,1.0,1.0,2,0.25,1.0,2,0.111111111111111,1.0,ReadingArea_rsl2-rcl100-esl100-rsm2-rcm25-esm100-rsr2-rcr11-esr100,exr/ReadingArea_rsl2-rcl100-esl100-rsm2-rcm25-esm100-rsr2-rcr11-esr100.exr,ReadingArea_rsl2-rcl100-esl100-rsm2-rcm25-esm100-rsr2-rcr11-esr100.npz,,,,,0,202,202,105,,right,red,1.23,1430.5853350162506,1430.9644420146942,3,6,2,lightness,readingArea,realistic,75,2023-03-22_16h15.06.502,tripletExp_regina_11082022,2022.2.4,119.65026087799924,
14,13,0,2,0.25,3.10526315789474,2,0.111111111111111,3.10526315789474,2,0.027777777777778,0.298245614035088,ReadingArea_rsl2-rcl25-esl310-rsm2-rcm11-esm310-rsr2-rcr2-esr29,exr/ReadingArea_rsl2-rcl25-esl310-rsm2-rcm11-esm310-rsr2-rcr2-esr29.exr,ReadingArea_rsl2-rcl25-esl310-rsm2-rcm11-esm310-rsr2-rcr2-esr29.npz,,,,,0,203,203,417,,left,green,2.74,1434.429831981659,1434.795124053955,3,6,2,lightness,readingArea,realistic,75,2023-03-22_16h15.06.502,tripletExp_regina_11082022,2022.2.4,119.65026087799924,
14,10,13,2,0.25,3.10526315789474,2,0.694444444444444,1.0,2,0.111111111111111,3.10526315789474,ReadingArea_rsl2-rcl25-esl310-rsm2-rcm69-esm100-rsr2-rcr11-esr310,exr/ReadingArea_rsl2-rcl25-esl310-rsm2-rcm69-esm100-rsr2-rcr11-esr310.exr,ReadingArea_rsl2-rcl25-esl310-rsm2-rcm69-esm100-rsr2-rcr11-esr310.npz,,,,,0,204,204,204,,left,green,2.6,1438.2772080898285,1438.63800406456,3,6,2,lightness,readingArea,realistic,75,2023-03-22_16h15.06.502,tripletExp_regina_11082022,2022.2.4,119.65026087799924,
