index_left,index_middle,index_right,reflectance_surround_left,reflectance_center_left,emission_spot_left,reflectance_surround_middle,reflectance_center_middle,emission_spot_middle,reflectance_surround_right,reflectance_center_right,emission_spot_right,ImageName,ImageExr,ImageNpy,trials_2.thisRepN,trials_2.thisTrialN,trials_2.thisN,trials_2.thisIndex,trials.thisRepN,trials.thisTrialN,trials.thisN,trials.thisIndex,sound_1.started,BB_Trial.resp,BB_Trial.color,BB_Trial.rt,text.started,text.stopped,sound_2.started,block,sound_4.started,participant,session,L/B,scene,condition,nTrialsPerBlock,date,expName,psychopyVersion,frameRate,Unnamed: 42
0,13,1,0,0.027777777777778,0.298245614035088,0,0.111111111111111,3.10526315789474,0,0.111111111111111,0.298245614035088,ReadingArea_rsl0-rcl2-esl29-rsm0-rcm11-esm310-rsr0-rcr11-esr29,exr/ReadingArea_rsl0-rcl2-esl29-rsm0-rcm11-esm310-rsr0-rcr11-esr29.exr,ReadingArea_rsl0-rcl2-esl29-rsm0-rcm11-esm310-rsr0-rcr11-esr29.npz,,,,,0,0,0,458,333.9370594739914,right,red,1.54,355.059632062912,355.54214692115784,327.7113533735275,1,,8,4,lightness,readingArea,realistic,75,2023-03-29_13h00.00.806,tripletExp_regina_11082022,2022.2.4,119.9932483657326,
7,8,14,0,0.111111111111111,1.0,0,0.25,1.0,0,0.25,3.10526315789474,ReadingArea_rsl0-rcl11-esl100-rsm0-rcm25-esm100-rsr0-rcr25-esr310,exr/ReadingArea_rsl0-rcl11-esl100-rsm0-rcm25-esm100-rsr0-rcr25-esr310.exr,ReadingArea_rsl0-rcl11-esl100-rsm0-rcm25-esm100-rsr0-rcr25-esr310.npz,,,,,0,1,1,300,,left,green,1.34,357.25310707092285,370.39871287345886,,1,,8,4,lightness,readingArea,realistic,75,2023-03-29_13h00.00.806,tripletExp_regina_11082022,2022.2.4,119.9932483657326,
11,5,2,0,1.0,1.0,0,1.0,0.298245614035088,0,0.25,0.298245614035088,ReadingArea_rsl0-rcl100-esl100-rsm0-rcm100-esm29-rsr0-rcr25-esr29,exr/ReadingArea_rsl0-rcl100-esl100-rsm0-rcm100-esm29-rsr0-rcr25-esr29.exr,ReadingArea_rsl0-rcl100-esl100-rsm0-rcm100-esm29-rsr0-rcr25-esr29.npz,,,,,0,2,2,596,,right,red,4.1,375.62098693847656,376.0877048969269,,1,,8,4,lightness,readingArea,realistic,75,2023-03-29_13h00.00.806,tripletExp_regina_11082022,2022.2.4,119.9932483657326,
5,13,12,0,1.0,0.298245614035088,0,0.111111111111111,3.10526315789474,0,0.027777777777778,3.10526315789474,ReadingArea_rsl0-rcl100-esl29-rsm0-rcm11-esm310-rsr0-rcr2-esr310,exr/ReadingArea_rsl0-rcl100-esl29-rsm0-rcm11-esm310-rsr0-rcr2-esr310.exr,ReadingArea_rsl0-rcl100-esl29-rsm0-rcm11-esm310-rsr0-rcr2-esr310.npz,,,,,0,3,3,389,,left,green,2.63,379.5771908760071,380.0434639453888,,1,,8,4,lightness,readingArea,realistic,75,2023-03-29_13h00.00.806,tripletExp_regina_11082022,2022.2.4,119.9932483657326,
7,12,3,0,0.111111111111111,1.0,0,0.027777777777778,3.10526315789474,0,0.444444444444444,0.298245614035088,ReadingArea_rsl0-rcl11-esl100-rsm0-rcm2-esm310-rsr0-rcr44-esr29,exr/ReadingArea_rsl0-rcl11-esl100-rsm0-rcm2-esm310-rsr0-rcr44-esr29.exr,ReadingArea_rsl0-rcl11-esl100-rsm0-rcm2-esm310-rsr0-rcr44-esr29.npz,,,,,0,4,4,584,,left,green,4.05,385.2835259437561,385.7609689235687,,1,,8,4,lightness,readingArea,realistic,75,2023-03-29_13h00.00.806,tripletExp_regina_11082022,2022.2.4,119.9932483657326,
1,14,0,0,0.111111111111111,0.298245614035088,0,0.25,3.10526315789474,0,0.027777777777778,0.298245614035088,ReadingArea_rsl0-rcl11-esl29-rsm0-rcm25-esm310-rsr0-rcr2-esr29,exr/ReadingArea_rsl0-rcl11-esl29-rsm0-rcm25-esm310-rsr0-rcr2-esr29.exr,ReadingArea_rsl0-rcl11-esl29-rsm0-rcm25-esm310-rsr0-rcr2-esr29.npz,,,,,0,5,5,394,,left,green,1.61,387.4822280406952,387.939738035202,,1,,8,4,lightness,readingArea,realistic,75,2023-03-29_13h00.00.806,tripletExp_regina_11082022,2022.2.4,119.9932483657326,
5,2,0,0,1.0,0.298245614035088,0,0.25,0.298245614035088,0,0.027777777777778,0.298245614035088,ReadingArea_rsl0-rcl100-esl29-rsm0-rcm25-esm29-rsr0-rcr2-esr29,exr/ReadingArea_rsl0-rcl100-esl29-rsm0-rcm25-esm29-rsr0-rcr2-esr29.exr,ReadingArea_rsl0-rcl100-esl29-rsm0-rcm25-esm29-rsr0-rcr2-esr29.npz,,,,,0,6,6,476,,left,green,4.51,393.1851480007172,393.7115759849548,,1,,8,4,lightness,readingArea,realistic,75,2023-03-29_13h00.00.806,tripletExp_regina_11082022,2022.2.4,119.9932483657326,
8,6,0,0,0.25,1.0,0,0.027777777777778,1.0,0,0.027777777777778,0.298245614035088,ReadingArea_rsl0-rcl25-esl100-rsm0-rcm2-esm100-rsr0-rcr2-esr29,exr/ReadingArea_rsl0-rcl25-esl100-rsm0-rcm2-esm100-rsr0-rcr2-esr29.exr,ReadingArea_rsl0-rcl25-esl100-rsm0-rcm2-esm100-rsr0-rcr2-esr29.npz,,,,,0,7,7,187,,right,red,1.54,395.428848028183,395.9091899394989,,1,,8,4,lightness,readingArea,realistic,75,2023-03-29_13h00.00.806,tripletExp_regina_11082022,2022.2.4,119.9932483657326,
11,12,2,0,1.0,1.0,0,0.027777777777778,3.10526315789474,0,0.25,0.298245614035088,ReadingArea_rsl0-rcl100-esl100-rsm0-rcm2-esm310-rsr0-rcr25-esr29,exr/ReadingArea_rsl0-rcl100-esl100-rsm0-rcm2-esm310-rsr0-rcr25-esr29.exr,ReadingArea_rsl0-rcl100-esl100-rsm0-rcm2-esm310-rsr0-rcr25-esr29.npz,,,,,0,8,8,423,,right,red,1.18,397.6190369129181,398.1417529582977,,1,,8,4,lightness,readingArea,realistic,75,2023-03-29_13h00.00.806,tripletExp_regina_11082022,2022.2.4,119.9932483657326,
6,13,8,0,0.027777777777778,1.0,0,0.111111111111111,3.10526315789474,0,0.25,1.0,ReadingArea_rsl0-rcl2-esl100-rsm0-rcm11-esm310-rsr0-rcr25-esr100,exr/ReadingArea_rsl0-rcl2-esl100-rsm0-rcm11-esm310-rsr0-rcr25-esr100.exr,ReadingArea_rsl0-rcl2-esl100-rsm0-rcm11-esm310-rsr0-rcr25-esr100.npz,,,,,0,9,9,535,,right,red,0.98,399.8589680194855,,,1,,8,4,lightness,readingArea,realistic,75,2023-03-29_13h00.00.806,tripletExp_regina_11082022,2022.2.4,119.9932483657326,
3,11,14,0,0.444444444444444,0.298245614035088,0,1.0,1.0,0,0.25,3.10526315789474,ReadingArea_rsl0-rcl44-esl29-rsm0-rcm100-esm100-rsr0-rcr25-esr310,exr/ReadingArea_rsl0-rcl44-esl29-rsm0-rcm100-esm100-rsr0-rcr25-esr310.exr,ReadingArea_rsl0-rcl44-esl29-rsm0-rcm100-esm100-rsr0-rcr25-esr310.npz,,,,,0,10,10,570,,right,red,1.29,402.0590500831604,,,1,,8,4,lightness,readingArea,realistic,75,2023-03-29_13h00.00.806,tripletExp_regina_11082022,2022.2.4,119.9932483657326,
1,5,8,0,0.111111111111111,0.298245614035088,0,1.0,0.298245614035088,0,0.25,1.0,ReadingArea_rsl0-rcl11-esl29-rsm0-rcm100-esm29-rsr0-rcr25-esr100,exr/ReadingArea_rsl0-rcl11-esl29-rsm0-rcm100-esm29-rsr0-rcr25-esr100.exr,ReadingArea_rsl0-rcl11-esl29-rsm0-rcm100-esm29-rsr0-rcr25-esr100.npz,,,,,0,11,11,238,,right,red,1.02,404.26151299476624,404.7332670688629,,1,,8,4,lightness,readingArea,realistic,75,2023-03-29_13h00.00.806,tripletExp_regina_11082022,2022.2.4,119.9932483657326,
4,12,5,0,0.694444444444444,0.298245614035088,0,0.027777777777778,3.10526315789474,0,1.0,0.298245614035088,ReadingArea_rsl0-rcl69-esl29-rsm0-rcm2-esm310-rsr0-rcr100-esr29,exr/ReadingArea_rsl0-rcl69-esl29-rsm0-rcm2-esm310-rsr0-rcr100-esr29.exr,ReadingArea_rsl0-rcl69-esl29-rsm0-rcm2-esm310-rsr0-rcr100-esr29.npz,,,,,0,12,12,296,,left,green,4.15,409.9453349113464,410.411838054657,,1,,8,4,lightness,readingArea,realistic,75,2023-03-29_13h00.00.806,tripletExp_regina_11082022,2022.2.4,119.9932483657326,
6,1,14,0,0.027777777777778,1.0,0,0.111111111111111,0.298245614035088,0,0.25,3.10526315789474,ReadingArea_rsl0-rcl2-esl100-rsm0-rcm11-esm29-rsr0-rcr25-esr310,exr/ReadingArea_rsl0-rcl2-esl100-rsm0-rcm11-esm29-rsr0-rcr25-esr310.exr,ReadingArea_rsl0-rcl2-esl100-rsm0-rcm11-esm29-rsr0-rcr25-esr310.npz,,,,,0,13,13,381,,left,green,0.81,412.1344258785248,412.7889640331268,,1,,8,4,lightness,readingArea,realistic,75,2023-03-29_13h00.00.806,tripletExp_regina_11082022,2022.2.4,119.9932483657326,
5,2,8,0,1.0,0.298245614035088,0,0.25,0.298245614035088,0,0.25,1.0,ReadingArea_rsl0-rcl100-esl29-rsm0-rcm25-esm29-rsr0-rcr25-esr100,exr/ReadingArea_rsl0-rcl100-esl29-rsm0-rcm25-esm29-rsr0-rcr25-esr100.exr,ReadingArea_rsl0-rcl100-esl29-rsm0-rcm25-esm29-rsr0-rcr25-esr100.npz,,,,,0,14,14,538,,right,red,1.46,414.4778509140015,,,1,,8,4,lightness,readingArea,realistic,75,2023-03-29_13h00.00.806,tripletExp_regina_11082022,2022.2.4,119.9932483657326,
9,3,0,0,0.444444444444444,1.0,0,0.444444444444444,0.298245614035088,0,0.027777777777778,0.298245614035088,ReadingArea_rsl0-rcl44-esl100-rsm0-rcm44-esm29-rsr0-rcr2-esr29,exr/ReadingArea_rsl0-rcl44-esl100-rsm0-rcm44-esm29-rsr0-rcr2-esr29.exr,ReadingArea_rsl0-rcl44-esl100-rsm0-rcm44-esm29-rsr0-rcr2-esr29.npz,,,,,0,15,15,120,,left,green,2.84,418.39657402038574,418.86483502388,,1,,8,4,lightness,readingArea,realistic,75,2023-03-29_13h00.00.806,tripletExp_regina_11082022,2022.2.4,119.9932483657326,
10,9,6,0,0.694444444444444,1.0,0,0.444444444444444,1.0,0,0.027777777777778,1.0,ReadingArea_rsl0-rcl69-esl100-rsm0-rcm44-esm100-rsr0-rcr2-esr100,exr/ReadingArea_rsl0-rcl69-esl100-rsm0-rcm44-esm100-rsr0-rcr2-esr100.exr,ReadingArea_rsl0-rcl69-esl100-rsm0-rcm44-esm100-rsr0-rcr2-esr100.npz,,,,,0,16,16,35,,left,green,0.99,420.5833230018616,421.05638790130615,,1,,8,4,lightness,readingArea,realistic,75,2023-03-29_13h00.00.806,tripletExp_regina_11082022,2022.2.4,119.9932483657326,
13,11,8,0,0.111111111111111,3.10526315789474,0,1.0,1.0,0,0.25,1.0,ReadingArea_rsl0-rcl11-esl310-rsm0-rcm100-esm100-rsr0-rcr25-esr100,exr/ReadingArea_rsl0-rcl11-esl310-rsm0-rcm100-esm100-rsr0-rcr25-esr100.exr,ReadingArea_rsl0-rcl11-esl310-rsm0-rcm100-esm100-rsr0-rcr25-esr100.npz,,,,,0,17,17,410,,left,green,4.58,426.3082010746002,426.7675609588623,,1,,8,4,lightness,readingArea,realistic,75,2023-03-29_13h00.00.806,tripletExp_regina_11082022,2022.2.4,119.9932483657326,
6,4,10,0,0.027777777777778,1.0,0,0.694444444444444,0.298245614035088,0,0.694444444444444,1.0,ReadingArea_rsl0-rcl2-esl100-rsm0-rcm69-esm29-rsr0-rcr69-esr100,exr/ReadingArea_rsl0-rcl2-esl100-rsm0-rcm69-esm29-rsr0-rcr69-esr100.exr,ReadingArea_rsl0-rcl2-esl100-rsm0-rcm69-esm29-rsr0-rcr69-esr100.npz,,,,,0,18,18,554,,right,red,4.42,432.0248119831085,432.5704329013825,,1,,8,4,lightness,readingArea,realistic,75,2023-03-29_13h00.00.806,tripletExp_regina_11082022,2022.2.4,119.9932483657326,
6,1,10,0,0.027777777777778,1.0,0,0.111111111111111,0.298245614035088,0,0.694444444444444,1.0,ReadingArea_rsl0-rcl2-esl100-rsm0-rcm11-esm29-rsr0-rcr69-esr100,exr/ReadingArea_rsl0-rcl2-esl100-rsm0-rcm11-esm29-rsr0-rcr69-esr100.exr,ReadingArea_rsl0-rcl2-esl100-rsm0-rcm11-esm29-rsr0-rcr69-esr100.npz,,,,,0,19,19,561,,left,green,0.89,434.251914024353,434.7089600563049,,1,,8,4,lightness,readingArea,realistic,75,2023-03-29_13h00.00.806,tripletExp_regina_11082022,2022.2.4,119.9932483657326,
2,10,6,0,0.25,0.298245614035088,0,0.694444444444444,1.0,0,0.027777777777778,1.0,ReadingArea_rsl0-rcl25-esl29-rsm0-rcm69-esm100-rsr0-rcr2-esr100,exr/ReadingArea_rsl0-rcl25-esl29-rsm0-rcm69-esm100-rsr0-rcr2-esr100.exr,ReadingArea_rsl0-rcl25-esl29-rsm0-rcm69-esm100-rsr0-rcr2-esr100.npz,,,,,0,20,20,4,,left,green,2.52,438.1996989250183,438.6665699481964,,1,,8,4,lightness,readingArea,realistic,75,2023-03-29_13h00.00.806,tripletExp_regina_11082022,2022.2.4,119.9932483657326,
2,13,0,0,0.25,0.298245614035088,0,0.111111111111111,3.10526315789474,0,0.027777777777778,0.298245614035088,ReadingArea_rsl0-rcl25-esl29-rsm0-rcm11-esm310-rsr0-rcr2-esr29,exr/ReadingArea_rsl0-rcl25-esl29-rsm0-rcm11-esm310-rsr0-rcr2-esr29.exr,ReadingArea_rsl0-rcl25-esl29-rsm0-rcm11-esm310-rsr0-rcr2-esr29.npz,,,,,0,21,21,454,,left,green,1.07,440.3730690479279,,,1,,8,4,lightness,readingArea,realistic,75,2023-03-29_13h00.00.806,tripletExp_regina_11082022,2022.2.4,119.9932483657326,
0,10,12,0,0.027777777777778,0.298245614035088,0,0.694444444444444,1.0,0,0.027777777777778,3.10526315789474,ReadingArea_rsl0-rcl2-esl29-rsm0-rcm69-esm100-rsr0-rcr2-esr310,exr/ReadingArea_rsl0-rcl2-esl29-rsm0-rcm69-esm100-rsr0-rcr2-esr310.exr,ReadingArea_rsl0-rcl2-esl29-rsm0-rcm69-esm100-rsr0-rcr2-esr310.npz,,,,,0,22,22,531,,right,red,1.15,442.5546128749848,443.0276010036469,,1,,8,4,lightness,readingArea,realistic,75,2023-03-29_13h00.00.806,tripletExp_regina_11082022,2022.2.4,119.9932483657326,
4,12,6,0,0.694444444444444,0.298245614035088,0,0.027777777777778,3.10526315789474,0,0.027777777777778,1.0,ReadingArea_rsl0-rcl69-esl29-rsm0-rcm2-esm310-rsr0-rcr2-esr100,exr/ReadingArea_rsl0-rcl69-esl29-rsm0-rcm2-esm310-rsr0-rcr2-esr100.exr,ReadingArea_rsl0-rcl69-esl29-rsm0-rcm2-esm310-rsr0-rcr2-esr100.npz,,,,,0,23,23,99,,right,red,1.05,444.7393710613251,445.2196979522705,,1,,8,4,lightness,readingArea,realistic,75,2023-03-29_13h00.00.806,tripletExp_regina_11082022,2022.2.4,119.9932483657326,
4,10,6,0,0.694444444444444,0.298245614035088,0,0.694444444444444,1.0,0,0.027777777777778,1.0,ReadingArea_rsl0-rcl69-esl29-rsm0-rcm69-esm100-rsr0-rcr2-esr100,exr/ReadingArea_rsl0-rcl69-esl29-rsm0-rcm69-esm100-rsr0-rcr2-esr100.exr,ReadingArea_rsl0-rcl69-esl29-rsm0-rcm69-esm100-rsr0-rcr2-esr100.npz,,,,,0,24,24,468,,left,green,1.3,446.93803787231445,447.3705809116364,,1,,8,4,lightness,readingArea,realistic,75,2023-03-29_13h00.00.806,tripletExp_regina_11082022,2022.2.4,119.9932483657326,
6,12,3,0,0.027777777777778,1.0,0,0.027777777777778,3.10526315789474,0,0.444444444444444,0.298245614035088,ReadingArea_rsl0-rcl2-esl100-rsm0-rcm2-esm310-rsr0-rcr44-esr29,exr/ReadingArea_rsl0-rcl2-esl100-rsm0-rcm2-esm310-rsr0-rcr44-esr29.exr,ReadingArea_rsl0-rcl2-esl100-rsm0-rcm2-esm310-rsr0-rcr44-esr29.npz,,,,,0,25,25,284,,left,green,0.95,449.07456398010254,,,1,,8,4,lightness,readingArea,realistic,75,2023-03-29_13h00.00.806,tripletExp_regina_11082022,2022.2.4,119.9932483657326,
2,3,9,0,0.25,0.298245614035088,0,0.444444444444444,0.298245614035088,0,0.444444444444444,1.0,ReadingArea_rsl0-rcl25-esl29-rsm0-rcm44-esm29-rsr0-rcr44-esr100,exr/ReadingArea_rsl0-rcl25-esl29-rsm0-rcm44-esm29-rsr0-rcr44-esr100.exr,ReadingArea_rsl0-rcl25-esl29-rsm0-rcm44-esm29-rsr0-rcr44-esr100.npz,,,,,0,26,26,190,,left,green,1.18,451.23198986053467,451.7156200408936,,1,,8,4,lightness,readingArea,realistic,75,2023-03-29_13h00.00.806,tripletExp_regina_11082022,2022.2.4,119.9932483657326,
8,14,3,0,0.25,1.0,0,0.25,3.10526315789474,0,0.444444444444444,0.298245614035088,ReadingArea_rsl0-rcl25-esl100-rsm0-rcm25-esm310-rsr0-rcr44-esr29,exr/ReadingArea_rsl0-rcl25-esl100-rsm0-rcm25-esm310-rsr0-rcr44-esr29.exr,ReadingArea_rsl0-rcl25-esl100-rsm0-rcm25-esm310-rsr0-rcr44-esr29.npz,,,,,0,27,27,503,,left,green,2.81,455.1913909912109,455.64947390556335,,1,,8,4,lightness,readingArea,realistic,75,2023-03-29_13h00.00.806,tripletExp_regina_11082022,2022.2.4,119.9932483657326,
12,6,7,0,0.027777777777778,3.10526315789474,0,0.027777777777778,1.0,0,0.111111111111111,1.0,ReadingArea_rsl0-rcl2-esl310-rsm0-rcm2-esm100-rsr0-rcr11-esr100,exr/ReadingArea_rsl0-rcl2-esl310-rsm0-rcm2-esm100-rsr0-rcr11-esr100.exr,ReadingArea_rsl0-rcl2-esl310-rsm0-rcm2-esm100-rsr0-rcr11-esr100.npz,,,,,0,28,28,308,,right,red,2.43,459.14056491851807,459.60061407089233,,1,,8,4,lightness,readingArea,realistic,75,2023-03-29_13h00.00.806,tripletExp_regina_11082022,2022.2.4,119.9932483657326,
10,0,14,0,0.694444444444444,1.0,0,0.027777777777778,0.298245614035088,0,0.25,3.10526315789474,ReadingArea_rsl0-rcl69-esl100-rsm0-rcm2-esm29-rsr0-rcr25-esr310,exr/ReadingArea_rsl0-rcl69-esl100-rsm0-rcm2-esm29-rsr0-rcr25-esr310.exr,ReadingArea_rsl0-rcl69-esl100-rsm0-rcm2-esm29-rsr0-rcr25-esr310.npz,,,,,0,29,29,95,,left,green,4.18,464.83352303504944,465.2953419685364,,1,,8,4,lightness,readingArea,realistic,75,2023-03-29_13h00.00.806,tripletExp_regina_11082022,2022.2.4,119.9932483657326,
11,0,12,0,1.0,1.0,0,0.027777777777778,0.298245614035088,0,0.027777777777778,3.10526315789474,ReadingArea_rsl0-rcl100-esl100-rsm0-rcm2-esm29-rsr0-rcr2-esr310,exr/ReadingArea_rsl0-rcl100-esl100-rsm0-rcm2-esm29-rsr0-rcr2-esr310.exr,ReadingArea_rsl0-rcl100-esl100-rsm0-rcm2-esm29-rsr0-rcr2-esr310.npz,,,,,0,30,30,166,,right,red,1.17,466.9924650192261,467.450628042221,,1,,8,4,lightness,readingArea,realistic,75,2023-03-29_13h00.00.806,tripletExp_regina_11082022,2022.2.4,119.9932483657326,
12,7,2,0,0.027777777777778,3.10526315789474,0,0.111111111111111,1.0,0,0.25,0.298245614035088,ReadingArea_rsl0-rcl2-esl310-rsm0-rcm11-esm100-rsr0-rcr25-esr29,exr/ReadingArea_rsl0-rcl2-esl310-rsm0-rcm11-esm100-rsr0-rcr25-esr29.exr,ReadingArea_rsl0-rcl2-esl310-rsm0-rcm11-esm100-rsr0-rcr25-esr29.npz,,,,,0,31,31,248,,right,red,2.39,470.920156955719,,,1,,8,4,lightness,readingArea,realistic,75,2023-03-29_13h00.00.806,tripletExp_regina_11082022,2022.2.4,119.9932483657326,
9,6,1,0,0.444444444444444,1.0,0,0.027777777777778,1.0,0,0.111111111111111,0.298245614035088,ReadingArea_rsl0-rcl44-esl100-rsm0-rcm2-esm100-rsr0-rcr11-esr29,exr/ReadingArea_rsl0-rcl44-esl100-rsm0-rcm2-esm100-rsr0-rcr11-esr29.exr,ReadingArea_rsl0-rcl44-esl100-rsm0-rcm2-esm100-rsr0-rcr11-esr29.npz,,,,,0,32,32,526,,right,red,1.06,473.1503350734711,473.6028950214386,,1,,8,4,lightness,readingArea,realistic,75,2023-03-29_13h00.00.806,tripletExp_regina_11082022,2022.2.4,119.9932483657326,
7,13,5,0,0.111111111111111,1.0,0,0.111111111111111,3.10526315789474,0,1.0,0.298245614035088,ReadingArea_rsl0-rcl11-esl100-rsm0-rcm11-esm310-rsr0-rcr100-esr29,exr/ReadingArea_rsl0-rcl11-esl100-rsm0-rcm11-esm310-rsr0-rcr100-esr29.exr,ReadingArea_rsl0-rcl11-esl100-rsm0-rcm11-esm310-rsr0-rcr100-esr29.npz,,,,,0,33,33,332,,left,green,2.21,477.08675599098206,477.5484039783478,,1,,8,4,lightness,readingArea,realistic,75,2023-03-29_13h00.00.806,tripletExp_regina_11082022,2022.2.4,119.9932483657326,
4,0,3,0,0.694444444444444,0.298245614035088,0,0.027777777777778,0.298245614035088,0,0.444444444444444,0.298245614035088,ReadingArea_rsl0-rcl69-esl29-rsm0-rcm2-esm29-rsr0-rcr44-esr29,exr/ReadingArea_rsl0-rcl69-esl29-rsm0-rcm2-esm29-rsr0-rcr44-esr29.exr,ReadingArea_rsl0-rcl69-esl29-rsm0-rcm2-esm29-rsr0-rcr44-esr29.npz,,,,,0,34,34,88,,right,red,2.49,481.0531899929047,481.5098490715027,,1,,8,4,lightness,readingArea,realistic,75,2023-03-29_13h00.00.806,tripletExp_regina_11082022,2022.2.4,119.9932483657326,
3,7,0,0,0.444444444444444,0.298245614035088,0,0.111111111111111,1.0,0,0.027777777777778,0.298245614035088,ReadingArea_rsl0-rcl44-esl29-rsm0-rcm11-esm100-rsr0-rcr2-esr29,exr/ReadingArea_rsl0-rcl44-esl29-rsm0-rcm11-esm100-rsr0-rcr2-esr29.exr,ReadingArea_rsl0-rcl44-esl29-rsm0-rcm11-esm100-rsr0-rcr2-esr29.npz,,,,,0,35,35,327,,left,green,0.9,483.2049400806427,,,1,,8,4,lightness,readingArea,realistic,75,2023-03-29_13h00.00.806,tripletExp_regina_11082022,2022.2.4,119.9932483657326,
4,3,10,0,0.694444444444444,0.298245614035088,0,0.444444444444444,0.298245614035088,0,0.694444444444444,1.0,ReadingArea_rsl0-rcl69-esl29-rsm0-rcm44-esm29-rsr0-rcr69-esr100,exr/ReadingArea_rsl0-rcl69-esl29-rsm0-rcm44-esm29-rsr0-rcr69-esr100.exr,ReadingArea_rsl0-rcl69-esl29-rsm0-rcm44-esm29-rsr0-rcr69-esr100.npz,,,,,0,36,36,371,,left,green,1.24,485.3974869251251,,,1,,8,4,lightness,readingArea,realistic,75,2023-03-29_13h00.00.806,tripletExp_regina_11082022,2022.2.4,119.9932483657326,
0,1,7,0,0.027777777777778,0.298245614035088,0,0.111111111111111,0.298245614035088,0,0.111111111111111,1.0,ReadingArea_rsl0-rcl2-esl29-rsm0-rcm11-esm29-rsr0-rcr11-esr100,exr/ReadingArea_rsl0-rcl2-esl29-rsm0-rcm11-esm29-rsr0-rcr11-esr100.exr,ReadingArea_rsl0-rcl2-esl29-rsm0-rcm11-esm29-rsr0-rcr11-esr100.npz,,,,,0,37,37,243,,right,red,1.25,487.5772020816803,488.03809905052185,,1,,8,4,lightness,readingArea,realistic,75,2023-03-29_13h00.00.806,tripletExp_regina_11082022,2022.2.4,119.9932483657326,
6,0,14,0,0.027777777777778,1.0,0,0.027777777777778,0.298245614035088,0,0.25,3.10526315789474,ReadingArea_rsl0-rcl2-esl100-rsm0-rcm2-esm29-rsr0-rcr25-esr310,exr/ReadingArea_rsl0-rcl2-esl100-rsm0-rcm2-esm29-rsr0-rcr25-esr310.exr,ReadingArea_rsl0-rcl2-esl100-rsm0-rcm2-esm29-rsr0-rcr25-esr310.npz,,,,,0,38,38,169,,left,green,2.17,491.5144729614258,,,1,,8,4,lightness,readingArea,realistic,75,2023-03-29_13h00.00.806,tripletExp_regina_11082022,2022.2.4,119.9932483657326,
11,3,12,0,1.0,1.0,0,0.444444444444444,0.298245614035088,0,0.027777777777778,3.10526315789474,ReadingArea_rsl0-rcl100-esl100-rsm0-rcm44-esm29-rsr0-rcr2-esr310,exr/ReadingArea_rsl0-rcl100-esl100-rsm0-rcm44-esm29-rsr0-rcr2-esr310.exr,ReadingArea_rsl0-rcl100-esl100-rsm0-rcm44-esm29-rsr0-rcr2-esr310.npz,,,,,0,39,39,355,,right,red,0.84,493.722048997879,494.18363785743713,,1,,8,4,lightness,readingArea,realistic,75,2023-03-29_13h00.00.806,tripletExp_regina_11082022,2022.2.4,119.9932483657326,
13,3,14,0,0.111111111111111,3.10526315789474,0,0.444444444444444,0.298245614035088,0,0.25,3.10526315789474,ReadingArea_rsl0-rcl11-esl310-rsm0-rcm44-esm29-rsr0-rcr25-esr310,exr/ReadingArea_rsl0-rcl11-esl310-rsm0-rcm44-esm29-rsr0-rcr25-esr310.exr,ReadingArea_rsl0-rcl11-esl310-rsm0-rcm44-esm29-rsr0-rcr25-esr310.npz,,,,,0,40,40,38,,left,green,1.38,495.8826570510864,,,1,,8,4,lightness,readingArea,realistic,75,2023-03-29_13h00.00.806,tripletExp_regina_11082022,2022.2.4,119.9932483657326,
11,2,8,0,1.0,1.0,0,0.25,0.298245614035088,0,0.25,1.0,ReadingArea_rsl0-rcl100-esl100-rsm0-rcm25-esm29-rsr0-rcr25-esr100,exr/ReadingArea_rsl0-rcl100-esl100-rsm0-rcm25-esm29-rsr0-rcr25-esr100.exr,ReadingArea_rsl0-rcl100-esl100-rsm0-rcm25-esm29-rsr0-rcr25-esr100.npz,,,,,0,41,41,214,,right,red,0.98,498.0666160583496,,,1,,8,4,lightness,readingArea,realistic,75,2023-03-29_13h00.00.806,tripletExp_regina_11082022,2022.2.4,119.9932483657326,
13,0,12,0,0.111111111111111,3.10526315789474,0,0.027777777777778,0.298245614035088,0,0.027777777777778,3.10526315789474,ReadingArea_rsl0-rcl11-esl310-rsm0-rcm2-esm29-rsr0-rcr2-esr310,exr/ReadingArea_rsl0-rcl11-esl310-rsm0-rcm2-esm29-rsr0-rcr2-esr310.exr,ReadingArea_rsl0-rcl11-esl310-rsm0-rcm2-esm29-rsr0-rcr2-esr310.npz,,,,,0,42,42,56,,right,red,4.21,503.8800909519196,504.511095046997,,1,,8,4,lightness,readingArea,realistic,75,2023-03-29_13h00.00.806,tripletExp_regina_11082022,2022.2.4,119.9932483657326,
5,14,8,0,1.0,0.298245614035088,0,0.25,3.10526315789474,0,0.25,1.0,ReadingArea_rsl0-rcl100-esl29-rsm0-rcm25-esm310-rsr0-rcr25-esr100,exr/ReadingArea_rsl0-rcl100-esl29-rsm0-rcm25-esm310-rsr0-rcr25-esr100.exr,ReadingArea_rsl0-rcl100-esl29-rsm0-rcm25-esm310-rsr0-rcr25-esr100.npz,,,,,0,43,43,14,,left,green,2.81,507.98577094078064,508.4542388916016,,1,,8,4,lightness,readingArea,realistic,75,2023-03-29_13h00.00.806,tripletExp_regina_11082022,2022.2.4,119.9932483657326,
6,4,13,0,0.027777777777778,1.0,0,0.694444444444444,0.298245614035088,0,0.111111111111111,3.10526315789474,ReadingArea_rsl0-rcl2-esl100-rsm0-rcm69-esm29-rsr0-rcr11-esr310,exr/ReadingArea_rsl0-rcl2-esl100-rsm0-rcm69-esm29-rsr0-rcr11-esr310.exr,ReadingArea_rsl0-rcl2-esl100-rsm0-rcm69-esm29-rsr0-rcr11-esr310.npz,,,,,0,44,44,202,,right,red,2.38,511.9429450035095,,,1,,8,4,lightness,readingArea,realistic,75,2023-03-29_13h00.00.806,tripletExp_regina_11082022,2022.2.4,119.9932483657326,
12,7,9,0,0.027777777777778,3.10526315789474,0,0.111111111111111,1.0,0,0.444444444444444,1.0,ReadingArea_rsl0-rcl2-esl310-rsm0-rcm11-esm100-rsr0-rcr44-esr100,exr/ReadingArea_rsl0-rcl2-esl310-rsm0-rcm11-esm100-rsr0-rcr44-esr100.exr,ReadingArea_rsl0-rcl2-esl310-rsm0-rcm11-esm100-rsr0-rcr44-esr100.npz,,,,,0,45,45,124,,left,green,0.95,514.107174873352,514.5756690502167,,1,,8,4,lightness,readingArea,realistic,75,2023-03-29_13h00.00.806,tripletExp_regina_11082022,2022.2.4,119.9932483657326,
12,14,4,0,0.027777777777778,3.10526315789474,0,0.25,3.10526315789474,0,0.694444444444444,0.298245614035088,ReadingArea_rsl0-rcl2-esl310-rsm0-rcm25-esm310-rsr0-rcr69-esr29,exr/ReadingArea_rsl0-rcl2-esl310-rsm0-rcm25-esm310-rsr0-rcr69-esr29.exr,ReadingArea_rsl0-rcl2-esl310-rsm0-rcm25-esm310-rsr0-rcr69-esr29.npz,,,,,0,46,46,315,,right,red,0.96,516.2961630821228,516.7711498737335,,1,,8,4,lightness,readingArea,realistic,75,2023-03-29_13h00.00.806,tripletExp_regina_11082022,2022.2.4,119.9932483657326,
1,13,14,0,0.111111111111111,0.298245614035088,0,0.111111111111111,3.10526315789474,0,0.25,3.10526315789474,ReadingArea_rsl0-rcl11-esl29-rsm0-rcm11-esm310-rsr0-rcr25-esr310,exr/ReadingArea_rsl0-rcl11-esl29-rsm0-rcm11-esm310-rsr0-rcr25-esr310.exr,ReadingArea_rsl0-rcl11-esl29-rsm0-rcm11-esm310-rsr0-rcr25-esr310.npz,,,,,0,47,47,183,,right,red,0.91,518.483491897583,518.94336104393,,1,,8,4,lightness,readingArea,realistic,75,2023-03-29_13h00.00.806,tripletExp_regina_11082022,2022.2.4,119.9932483657326,
9,14,7,0,0.444444444444444,1.0,0,0.25,3.10526315789474,0,0.111111111111111,1.0,ReadingArea_rsl0-rcl44-esl100-rsm0-rcm25-esm310-rsr0-rcr11-esr100,exr/ReadingArea_rsl0-rcl44-esl100-rsm0-rcm25-esm310-rsr0-rcr11-esr100.exr,ReadingArea_rsl0-rcl44-esl100-rsm0-rcm25-esm310-rsr0-rcr11-esr100.npz,,,,,0,48,48,44,,left,green,1.11,520.6554100513458,521.1161110401154,,1,,8,4,lightness,readingArea,realistic,75,2023-03-29_13h00.00.806,tripletExp_regina_11082022,2022.2.4,119.9932483657326,
14,5,9,0,0.25,3.10526315789474,0,1.0,0.298245614035088,0,0.444444444444444,1.0,ReadingArea_rsl0-rcl25-esl310-rsm0-rcm100-esm29-rsr0-rcr44-esr100,exr/ReadingArea_rsl0-rcl25-esl310-rsm0-rcm100-esm29-rsr0-rcr44-esr100.exr,ReadingArea_rsl0-rcl25-esl310-rsm0-rcm100-esm29-rsr0-rcr44-esr100.npz,,,,,0,49,49,482,,right,red,1.19,522.8308870792389,523.277694940567,,1,,8,4,lightness,readingArea,realistic,75,2023-03-29_13h00.00.806,tripletExp_regina_11082022,2022.2.4,119.9932483657326,
10,3,6,0,0.694444444444444,1.0,0,0.444444444444444,0.298245614035088,0,0.027777777777778,1.0,ReadingArea_rsl0-rcl69-esl100-rsm0-rcm44-esm29-rsr0-rcr2-esr100,exr/ReadingArea_rsl0-rcl69-esl100-rsm0-rcm44-esm29-rsr0-rcr2-esr100.exr,ReadingArea_rsl0-rcl69-esl100-rsm0-rcm44-esm29-rsr0-rcr2-esr100.npz,,,,,0,50,50,261,,right,red,3.34,526.7655079364777,527.2277519702911,,1,,8,4,lightness,readingArea,realistic,75,2023-03-29_13h00.00.806,tripletExp_regina_11082022,2022.2.4,119.9932483657326,
14,11,4,0,0.25,3.10526315789474,0,1.0,1.0,0,0.694444444444444,0.298245614035088,ReadingArea_rsl0-rcl25-esl310-rsm0-rcm100-esm100-rsr0-rcr69-esr29,exr/ReadingArea_rsl0-rcl25-esl310-rsm0-rcm100-esm100-rsr0-rcr69-esr29.exr,ReadingArea_rsl0-rcl25-esl310-rsm0-rcm100-esm100-rsr0-rcr69-esr29.npz,,,,,0,51,51,370,,left,green,1.18,528.9210948944092,,,1,,8,4,lightness,readingArea,realistic,75,2023-03-29_13h00.00.806,tripletExp_regina_11082022,2022.2.4,119.9932483657326,
7,4,6,0,0.111111111111111,1.0,0,0.694444444444444,0.298245614035088,0,0.027777777777778,1.0,ReadingArea_rsl0-rcl11-esl100-rsm0-rcm69-esm29-rsr0-rcr2-esr100,exr/ReadingArea_rsl0-rcl11-esl100-rsm0-rcm69-esm29-rsr0-rcr2-esr100.exr,ReadingArea_rsl0-rcl11-esl100-rsm0-rcm69-esm29-rsr0-rcr2-esr100.npz,,,,,0,52,52,528,,left,green,1.12,531.0673348903656,531.5130898952484,,1,,8,4,lightness,readingArea,realistic,75,2023-03-29_13h00.00.806,tripletExp_regina_11082022,2022.2.4,119.9932483657326,
0,9,10,0,0.027777777777778,0.298245614035088,0,0.444444444444444,1.0,0,0.694444444444444,1.0,ReadingArea_rsl0-rcl2-esl29-rsm0-rcm44-esm100-rsr0-rcr69-esr100,exr/ReadingArea_rsl0-rcl2-esl29-rsm0-rcm44-esm100-rsr0-rcr69-esr100.exr,ReadingArea_rsl0-rcl2-esl29-rsm0-rcm44-esm100-rsr0-rcr69-esr100.npz,,,,,0,53,53,434,,right,red,0.75,533.2098560333252,533.7639448642731,,1,,8,4,lightness,readingArea,realistic,75,2023-03-29_13h00.00.806,tripletExp_regina_11082022,2022.2.4,119.9932483657326,
4,6,3,0,0.694444444444444,0.298245614035088,0,0.027777777777778,1.0,0,0.444444444444444,0.298245614035088,ReadingArea_rsl0-rcl69-esl29-rsm0-rcm2-esm100-rsr0-rcr44-esr29,exr/ReadingArea_rsl0-rcl69-esl29-rsm0-rcm2-esm100-rsr0-rcr44-esr29.exr,ReadingArea_rsl0-rcl69-esl29-rsm0-rcm2-esm100-rsr0-rcr44-esr29.npz,,,,,0,54,54,344,,right,red,2.71,537.229651927948,537.7055048942566,,1,,8,4,lightness,readingArea,realistic,75,2023-03-29_13h00.00.806,tripletExp_regina_11082022,2022.2.4,119.9932483657326,
11,1,12,0,1.0,1.0,0,0.111111111111111,0.298245614035088,0,0.027777777777778,3.10526315789474,ReadingArea_rsl0-rcl100-esl100-rsm0-rcm11-esm29-rsr0-rcr2-esr310,exr/ReadingArea_rsl0-rcl100-esl100-rsm0-rcm11-esm29-rsr0-rcr2-esr310.exr,ReadingArea_rsl0-rcl100-esl100-rsm0-rcm11-esm29-rsr0-rcr2-esr310.npz,,,,,0,55,55,339,,right,red,0.98,539.3996200561523,539.8691558837891,,1,,8,4,lightness,readingArea,realistic,75,2023-03-29_13h00.00.806,tripletExp_regina_11082022,2022.2.4,119.9932483657326,
11,5,4,0,1.0,1.0,0,1.0,0.298245614035088,0,0.694444444444444,0.298245614035088,ReadingArea_rsl0-rcl100-esl100-rsm0-rcm100-esm29-rsr0-rcr69-esr29,exr/ReadingArea_rsl0-rcl100-esl100-rsm0-rcm100-esm29-rsr0-rcr69-esr29.exr,ReadingArea_rsl0-rcl100-esl100-rsm0-rcm100-esm29-rsr0-rcr69-esr29.npz,,,,,0,56,56,564,,right,red,0.97,541.5617959499359,542.034019947052,,1,,8,4,lightness,readingArea,realistic,75,2023-03-29_13h00.00.806,tripletExp_regina_11082022,2022.2.4,119.9932483657326,
7,12,2,0,0.111111111111111,1.0,0,0.027777777777778,3.10526315789474,0,0.25,0.298245614035088,ReadingArea_rsl0-rcl11-esl100-rsm0-rcm2-esm310-rsr0-rcr25-esr29,exr/ReadingArea_rsl0-rcl11-esl100-rsm0-rcm2-esm310-rsr0-rcr25-esr29.exr,ReadingArea_rsl0-rcl11-esl100-rsm0-rcm2-esm310-rsr0-rcr25-esr29.npz,,,,,0,57,57,72,,right,red,2.71,545.5235929489136,,,1,,8,4,lightness,readingArea,realistic,75,2023-03-29_13h00.00.806,tripletExp_regina_11082022,2022.2.4,119.9932483657326,
3,2,11,0,0.444444444444444,0.298245614035088,0,0.25,0.298245614035088,0,1.0,1.0,ReadingArea_rsl0-rcl44-esl29-rsm0-rcm25-esm29-rsr0-rcr100-esr100,exr/ReadingArea_rsl0-rcl44-esl29-rsm0-rcm25-esm29-rsr0-rcr100-esr100.exr,ReadingArea_rsl0-rcl44-esl29-rsm0-rcm25-esm29-rsr0-rcr100-esr100.npz,,,,,0,58,58,257,,left,green,1.11,547.6942739486694,548.1677708625793,,1,,8,4,lightness,readingArea,realistic,75,2023-03-29_13h00.00.806,tripletExp_regina_11082022,2022.2.4,119.9932483657326,
13,11,2,0,0.111111111111111,3.10526315789474,0,1.0,1.0,0,0.25,0.298245614035088,ReadingArea_rsl0-rcl11-esl310-rsm0-rcm100-esm100-rsr0-rcr25-esr29,exr/ReadingArea_rsl0-rcl11-esl310-rsm0-rcm100-esm100-rsr0-rcr25-esr29.exr,ReadingArea_rsl0-rcl11-esl310-rsm0-rcm100-esm100-rsr0-rcr25-esr29.npz,,,,,0,59,59,55,,left,green,2.35,551.6423320770264,552.1193480491638,,1,,8,4,lightness,readingArea,realistic,75,2023-03-29_13h00.00.806,tripletExp_regina_11082022,2022.2.4,119.9932483657326,
12,7,1,0,0.027777777777778,3.10526315789474,0,0.111111111111111,1.0,0,0.111111111111111,0.298245614035088,ReadingArea_rsl0-rcl2-esl310-rsm0-rcm11-esm100-rsr0-rcr11-esr29,exr/ReadingArea_rsl0-rcl2-esl310-rsm0-rcm11-esm100-rsr0-rcr11-esr29.exr,ReadingArea_rsl0-rcl2-esl310-rsm0-rcm11-esm100-rsr0-rcr11-esr29.npz,,,,,0,60,60,264,,left,green,1.11,553.8249468803406,,,1,,8,4,lightness,readingArea,realistic,75,2023-03-29_13h00.00.806,tripletExp_regina_11082022,2022.2.4,119.9932483657326,
3,11,2,0,0.444444444444444,0.298245614035088,0,1.0,1.0,0,0.25,0.298245614035088,ReadingArea_rsl0-rcl44-esl29-rsm0-rcm100-esm100-rsr0-rcr25-esr29,exr/ReadingArea_rsl0-rcl44-esl29-rsm0-rcm100-esm100-rsr0-rcr25-esr29.exr,ReadingArea_rsl0-rcl44-esl29-rsm0-rcm100-esm100-rsr0-rcr25-esr29.npz,,,,,0,61,61,220,,left,green,1.34,555.9679069519043,556.4393219947815,,1,,8,4,lightness,readingArea,realistic,75,2023-03-29_13h00.00.806,tripletExp_regina_11082022,2022.2.4,119.9932483657326,
13,8,5,0,0.111111111111111,3.10526315789474,0,0.25,1.0,0,1.0,0.298245614035088,ReadingArea_rsl0-rcl11-esl310-rsm0-rcm25-esm100-rsr0-rcr100-esr29,exr/ReadingArea_rsl0-rcl11-esl310-rsm0-rcm25-esm100-rsr0-rcr100-esr29.exr,ReadingArea_rsl0-rcl11-esl310-rsm0-rcm25-esm100-rsr0-rcr100-esr29.npz,,,,,0,62,62,209,,left,green,2.72,559.9117338657379,560.37664103508,,1,,8,4,lightness,readingArea,realistic,75,2023-03-29_13h00.00.806,tripletExp_regina_11082022,2022.2.4,119.9932483657326,
4,13,1,0,0.694444444444444,0.298245614035088,0,0.111111111111111,3.10526315789474,0,0.111111111111111,0.298245614035088,ReadingArea_rsl0-rcl69-esl29-rsm0-rcm11-esm310-rsr0-rcr11-esr29,exr/ReadingArea_rsl0-rcl69-esl29-rsm0-rcm11-esm310-rsr0-rcr11-esr29.exr,ReadingArea_rsl0-rcl69-esl29-rsm0-rcm11-esm310-rsr0-rcr11-esr29.npz,,,,,0,63,63,192,,left,green,1.28,562.0863330364227,562.54984998703,,1,,8,4,lightness,readingArea,realistic,75,2023-03-29_13h00.00.806,tripletExp_regina_11082022,2022.2.4,119.9932483657326,
10,14,1,0,0.694444444444444,1.0,0,0.25,3.10526315789474,0,0.111111111111111,0.298245614035088,ReadingArea_rsl0-rcl69-esl100-rsm0-rcm25-esm310-rsr0-rcr11-esr29,exr/ReadingArea_rsl0-rcl69-esl100-rsm0-rcm25-esm310-rsr0-rcr11-esr29.exr,ReadingArea_rsl0-rcl69-esl100-rsm0-rcm25-esm310-rsr0-rcr11-esr29.npz,,,,,0,64,64,544,,left,green,1.02,564.2508330345154,564.6906130313873,,1,,8,4,lightness,readingArea,realistic,75,2023-03-29_13h00.00.806,tripletExp_regina_11082022,2022.2.4,119.9932483657326,
3,14,12,0,0.444444444444444,0.298245614035088,0,0.25,3.10526315789474,0,0.027777777777778,3.10526315789474,ReadingArea_rsl0-rcl44-esl29-rsm0-rcm25-esm310-rsr0-rcr2-esr310,exr/ReadingArea_rsl0-rcl44-esl29-rsm0-rcm25-esm310-rsr0-rcr2-esr310.exr,ReadingArea_rsl0-rcl44-esl29-rsm0-rcm25-esm310-rsr0-rcr2-esr310.npz,,,,,0,65,65,336,,left,green,1.37,566.4120500087738,566.9050509929657,,1,,8,4,lightness,readingArea,realistic,75,2023-03-29_13h00.00.806,tripletExp_regina_11082022,2022.2.4,119.9932483657326,
11,7,8,0,1.0,1.0,0,0.111111111111111,1.0,0,0.25,1.0,ReadingArea_rsl0-rcl100-esl100-rsm0-rcm11-esm100-rsr0-rcr25-esr100,exr/ReadingArea_rsl0-rcl100-esl100-rsm0-rcm11-esm100-rsr0-rcr25-esr100.exr,ReadingArea_rsl0-rcl100-esl100-rsm0-rcm11-esm100-rsr0-rcr25-esr100.npz,,,,,0,66,66,37,,right,red,1.0,568.6008808612823,569.0483019351959,,1,,8,4,lightness,readingArea,realistic,75,2023-03-29_13h00.00.806,tripletExp_regina_11082022,2022.2.4,119.9932483657326,
9,8,0,0,0.444444444444444,1.0,0,0.25,1.0,0,0.027777777777778,0.298245614035088,ReadingArea_rsl0-rcl44-esl100-rsm0-rcm25-esm100-rsr0-rcr2-esr29,exr/ReadingArea_rsl0-rcl44-esl100-rsm0-rcm25-esm100-rsr0-rcr2-esr29.exr,ReadingArea_rsl0-rcl44-esl100-rsm0-rcm25-esm100-rsr0-rcr2-esr29.npz,,,,,0,67,67,66,,left,green,0.92,570.7660329341888,571.3828139305115,,1,,8,4,lightness,readingArea,realistic,75,2023-03-29_13h00.00.806,tripletExp_regina_11082022,2022.2.4,119.9932483657326,
14,7,13,0,0.25,3.10526315789474,0,0.111111111111111,1.0,0,0.111111111111111,3.10526315789474,ReadingArea_rsl0-rcl25-esl310-rsm0-rcm11-esm100-rsr0-rcr11-esr310,exr/ReadingArea_rsl0-rcl25-esl310-rsm0-rcm11-esm100-rsr0-rcr11-esr310.exr,ReadingArea_rsl0-rcl25-esl310-rsm0-rcm11-esm100-rsr0-rcr11-esr310.npz,,,,,0,68,68,358,,right,red,1.37,573.0915150642395,573.5484480857849,,1,,8,4,lightness,readingArea,realistic,75,2023-03-29_13h00.00.806,tripletExp_regina_11082022,2022.2.4,119.9932483657326,
4,1,3,0,0.694444444444444,0.298245614035088,0,0.111111111111111,0.298245614035088,0,0.444444444444444,0.298245614035088,ReadingArea_rsl0-rcl69-esl29-rsm0-rcm11-esm29-rsr0-rcr44-esr29,exr/ReadingArea_rsl0-rcl69-esl29-rsm0-rcm11-esm29-rsr0-rcr44-esr29.exr,ReadingArea_rsl0-rcl69-esl29-rsm0-rcm11-esm29-rsr0-rcr44-esr29.npz,,,,,0,69,69,70,,right,red,2.97,577.0089528560638,577.4722058773041,,1,,8,4,lightness,readingArea,realistic,75,2023-03-29_13h00.00.806,tripletExp_regina_11082022,2022.2.4,119.9932483657326,
6,12,7,0,0.027777777777778,1.0,0,0.027777777777778,3.10526315789474,0,0.111111111111111,1.0,ReadingArea_rsl0-rcl2-esl100-rsm0-rcm2-esm310-rsr0-rcr11-esr100,exr/ReadingArea_rsl0-rcl2-esl100-rsm0-rcm2-esm310-rsr0-rcr11-esr100.exr,ReadingArea_rsl0-rcl2-esl100-rsm0-rcm2-esm310-rsr0-rcr11-esr100.npz,,,,,0,70,70,157,,right,red,1.21,579.1951189041138,,,1,,8,4,lightness,readingArea,realistic,75,2023-03-29_13h00.00.806,tripletExp_regina_11082022,2022.2.4,119.9932483657326,
5,9,12,0,1.0,0.298245614035088,0,0.444444444444444,1.0,0,0.027777777777778,3.10526315789474,ReadingArea_rsl0-rcl100-esl29-rsm0-rcm44-esm100-rsr0-rcr2-esr310,exr/ReadingArea_rsl0-rcl100-esl29-rsm0-rcm44-esm100-rsr0-rcr2-esr310.exr,ReadingArea_rsl0-rcl100-esl29-rsm0-rcm44-esm100-rsr0-rcr2-esr310.npz,,,,,0,71,71,539,,left,green,1.05,581.3838179111481,581.8682389259338,,1,,8,4,lightness,readingArea,realistic,75,2023-03-29_13h00.00.806,tripletExp_regina_11082022,2022.2.4,119.9932483657326,
14,3,4,0,0.25,3.10526315789474,0,0.444444444444444,0.298245614035088,0,0.694444444444444,0.298245614035088,ReadingArea_rsl0-rcl25-esl310-rsm0-rcm44-esm29-rsr0-rcr69-esr29,exr/ReadingArea_rsl0-rcl25-esl310-rsm0-rcm44-esm29-rsr0-rcr69-esr29.exr,ReadingArea_rsl0-rcl25-esl310-rsm0-rcm44-esm29-rsr0-rcr69-esr29.npz,,,,,0,72,72,127,,right,red,1.23,583.5661590099335,584.0305020809174,,1,,8,4,lightness,readingArea,realistic,75,2023-03-29_13h00.00.806,tripletExp_regina_11082022,2022.2.4,119.9932483657326,
0,8,14,0,0.027777777777778,0.298245614035088,0,0.25,1.0,0,0.25,3.10526315789474,ReadingArea_rsl0-rcl2-esl29-rsm0-rcm25-esm100-rsr0-rcr25-esr310,exr/ReadingArea_rsl0-rcl2-esl29-rsm0-rcm25-esm100-rsr0-rcr25-esr310.exr,ReadingArea_rsl0-rcl2-esl29-rsm0-rcm25-esm100-rsr0-rcr25-esr310.npz,,,,,0,73,73,114,,right,red,0.88,585.7517349720001,586.3631539344788,,1,,8,4,lightness,readingArea,realistic,75,2023-03-29_13h00.00.806,tripletExp_regina_11082022,2022.2.4,119.9932483657326,
11,7,14,0,1.0,1.0,0,0.111111111111111,1.0,0,0.25,3.10526315789474,ReadingArea_rsl0-rcl100-esl100-rsm0-rcm11-esm100-rsr0-rcr25-esr310,exr/ReadingArea_rsl0-rcl100-esl100-rsm0-rcm11-esm100-rsr0-rcr25-esr310.exr,ReadingArea_rsl0-rcl100-esl100-rsm0-rcm11-esm100-rsr0-rcr25-esr310.npz,,,,,0,74,74,119,,right,red,2.82,589.8087110519409,590.0124628543854,,1,,8,4,lightness,readingArea,realistic,75,2023-03-29_13h00.00.806,tripletExp_regina_11082022,2022.2.4,119.9932483657326,
6,7,3,0,0.027777777777778,1.0,0,0.111111111111111,1.0,0,0.444444444444444,0.298245614035088,ReadingArea_rsl0-rcl2-esl100-rsm0-rcm11-esm100-rsr0-rcr44-esr29,exr/ReadingArea_rsl0-rcl2-esl100-rsm0-rcm11-esm100-rsr0-rcr44-esr29.exr,ReadingArea_rsl0-rcl2-esl100-rsm0-rcm11-esm100-rsr0-rcr44-esr29.npz,,,,,0,75,75,47,,right,red,1.14,593.240364074707,593.7396509647369,,2,,8,4,lightness,readingArea,realistic,75,2023-03-29_13h00.00.806,tripletExp_regina_11082022,2022.2.4,119.9932483657326,
4,10,9,0,0.694444444444444,0.298245614035088,0,0.694444444444444,1.0,0,0.444444444444444,1.0,ReadingArea_rsl0-rcl69-esl29-rsm0-rcm69-esm100-rsr0-rcr44-esr100,exr/ReadingArea_rsl0-rcl69-esl29-rsm0-rcm69-esm100-rsr0-rcr44-esr100.exr,ReadingArea_rsl0-rcl69-esl29-rsm0-rcm69-esm100-rsr0-rcr44-esr100.npz,,,,,0,76,76,516,,right,red,2.69,597.19313788414,597.6626749038696,,2,,8,4,lightness,readingArea,realistic,75,2023-03-29_13h00.00.806,tripletExp_regina_11082022,2022.2.4,119.9932483657326,
14,2,8,0,0.25,3.10526315789474,0,0.25,0.298245614035088,0,0.25,1.0,ReadingArea_rsl0-rcl25-esl310-rsm0-rcm25-esm29-rsr0-rcr25-esr100,exr/ReadingArea_rsl0-rcl25-esl310-rsm0-rcm25-esm29-rsr0-rcr25-esr100.exr,ReadingArea_rsl0-rcl25-esl310-rsm0-rcm25-esm29-rsr0-rcr25-esr100.npz,,,,,0,77,77,212,,right,red,1.37,599.3827638626099,599.8568890094757,,2,,8,4,lightness,readingArea,realistic,75,2023-03-29_13h00.00.806,tripletExp_regina_11082022,2022.2.4,119.9932483657326,
11,7,13,0,1.0,1.0,0,0.111111111111111,1.0,0,0.111111111111111,3.10526315789474,ReadingArea_rsl0-rcl100-esl100-rsm0-rcm11-esm100-rsr0-rcr11-esr310,exr/ReadingArea_rsl0-rcl100-esl100-rsm0-rcm11-esm100-rsr0-rcr11-esr310.exr,ReadingArea_rsl0-rcl100-esl100-rsm0-rcm11-esm100-rsr0-rcr11-esr310.npz,,,,,0,78,78,431,,right,red,1.26,601.5788350105286,602.0577590465546,,2,,8,4,lightness,readingArea,realistic,75,2023-03-29_13h00.00.806,tripletExp_regina_11082022,2022.2.4,119.9932483657326,
7,13,4,0,0.111111111111111,1.0,0,0.111111111111111,3.10526315789474,0,0.694444444444444,0.298245614035088,ReadingArea_rsl0-rcl11-esl100-rsm0-rcm11-esm310-rsr0-rcr69-esr29,exr/ReadingArea_rsl0-rcl11-esl100-rsm0-rcm11-esm310-rsr0-rcr69-esr29.exr,ReadingArea_rsl0-rcl11-esl100-rsm0-rcm11-esm310-rsr0-rcr69-esr29.npz,,,,,0,79,79,456,,right,red,1.09,603.761668920517,604.2253658771515,,2,,8,4,lightness,readingArea,realistic,75,2023-03-29_13h00.00.806,tripletExp_regina_11082022,2022.2.4,119.9932483657326,
8,6,13,0,0.25,1.0,0,0.027777777777778,1.0,0,0.111111111111111,3.10526315789474,ReadingArea_rsl0-rcl25-esl100-rsm0-rcm2-esm100-rsr0-rcr11-esr310,exr/ReadingArea_rsl0-rcl25-esl100-rsm0-rcm2-esm100-rsr0-rcr11-esr310.exr,ReadingArea_rsl0-rcl25-esl100-rsm0-rcm2-esm100-rsr0-rcr11-esr310.npz,,,,,0,80,80,440,,left,green,2.93,607.7091948986053,608.3481769561768,,2,,8,4,lightness,readingArea,realistic,75,2023-03-29_13h00.00.806,tripletExp_regina_11082022,2022.2.4,119.9932483657326,
13,11,7,0,0.111111111111111,3.10526315789474,0,1.0,1.0,0,0.111111111111111,1.0,ReadingArea_rsl0-rcl11-esl310-rsm0-rcm100-esm100-rsr0-rcr11-esr100,exr/ReadingArea_rsl0-rcl11-esl310-rsm0-rcm100-esm100-rsr0-rcr11-esr100.exr,ReadingArea_rsl0-rcl11-esl310-rsm0-rcm100-esm100-rsr0-rcr11-esr100.npz,,,,,0,81,81,590,,left,green,2.42,611.824863910675,612.3279190063477,,2,,8,4,lightness,readingArea,realistic,75,2023-03-29_13h00.00.806,tripletExp_regina_11082022,2022.2.4,119.9932483657326,
10,1,6,0,0.694444444444444,1.0,0,0.111111111111111,0.298245614035088,0,0.027777777777778,1.0,ReadingArea_rsl0-rcl69-esl100-rsm0-rcm11-esm29-rsr0-rcr2-esr100,exr/ReadingArea_rsl0-rcl69-esl100-rsm0-rcm11-esm29-rsr0-rcr2-esr100.exr,ReadingArea_rsl0-rcl69-esl100-rsm0-rcm11-esm29-rsr0-rcr2-esr100.npz,,,,,0,82,82,160,,right,red,1.24,614.0184609889984,614.4991328716278,,2,,8,4,lightness,readingArea,realistic,75,2023-03-29_13h00.00.806,tripletExp_regina_11082022,2022.2.4,119.9932483657326,
2,0,3,0,0.25,0.298245614035088,0,0.027777777777778,0.298245614035088,0,0.444444444444444,0.298245614035088,ReadingArea_rsl0-rcl25-esl29-rsm0-rcm2-esm29-rsr0-rcr44-esr29,exr/ReadingArea_rsl0-rcl25-esl29-rsm0-rcm2-esm29-rsr0-rcr44-esr29.exr,ReadingArea_rsl0-rcl25-esl29-rsm0-rcm2-esm29-rsr0-rcr44-esr29.npz,,,,,0,83,83,338,,left,green,2.78,617.9736850261688,618.4410870075226,,2,,8,4,lightness,readingArea,realistic,75,2023-03-29_13h00.00.806,tripletExp_regina_11082022,2022.2.4,119.9932483657326,
8,13,3,0,0.25,1.0,0,0.111111111111111,3.10526315789474,0,0.444444444444444,0.298245614035088,ReadingArea_rsl0-rcl25-esl100-rsm0-rcm11-esm310-rsr0-rcr44-esr29,exr/ReadingArea_rsl0-rcl25-esl100-rsm0-rcm11-esm310-rsr0-rcr44-esr29.exr,ReadingArea_rsl0-rcl25-esl100-rsm0-rcm11-esm310-rsr0-rcr44-esr29.npz,,,,,0,84,84,553,,left,green,3.01,621.9023718833923,,,2,,8,4,lightness,readingArea,realistic,75,2023-03-29_13h00.00.806,tripletExp_regina_11082022,2022.2.4,119.9932483657326,
13,10,3,0,0.111111111111111,3.10526315789474,0,0.694444444444444,1.0,0,0.444444444444444,0.298245614035088,ReadingArea_rsl0-rcl11-esl310-rsm0-rcm69-esm100-rsr0-rcr44-esr29,exr/ReadingArea_rsl0-rcl11-esl310-rsm0-rcm69-esm100-rsr0-rcr44-esr29.exr,ReadingArea_rsl0-rcl11-esl310-rsm0-rcm69-esm100-rsr0-rcr44-esr29.npz,,,,,0,85,85,224,,left,green,1.16,624.0934638977051,624.574774980545,,2,,8,4,lightness,readingArea,realistic,75,2023-03-29_13h00.00.806,tripletExp_regina_11082022,2022.2.4,119.9932483657326,
4,1,9,0,0.694444444444444,0.298245614035088,0,0.111111111111111,0.298245614035088,0,0.444444444444444,1.0,ReadingArea_rsl0-rcl69-esl29-rsm0-rcm11-esm29-rsr0-rcr44-esr100,exr/ReadingArea_rsl0-rcl69-esl29-rsm0-rcm11-esm29-rsr0-rcr44-esr100.exr,ReadingArea_rsl0-rcl69-esl29-rsm0-rcm11-esm29-rsr0-rcr44-esr100.npz,,,,,0,86,86,7,,left,green,2.82,628.0584089756012,628.5550100803375,,2,,8,4,lightness,readingArea,realistic,75,2023-03-29_13h00.00.806,tripletExp_regina_11082022,2022.2.4,119.9932483657326,
2,14,9,0,0.25,0.298245614035088,0,0.25,3.10526315789474,0,0.444444444444444,1.0,ReadingArea_rsl0-rcl25-esl29-rsm0-rcm25-esm310-rsr0-rcr44-esr100,exr/ReadingArea_rsl0-rcl25-esl29-rsm0-rcm25-esm310-rsr0-rcr44-esr100.exr,ReadingArea_rsl0-rcl25-esl29-rsm0-rcm25-esm310-rsr0-rcr44-esr100.npz,,,,,0,87,87,51,,right,red,0.92,630.2781050205231,,,2,,8,4,lightness,readingArea,realistic,75,2023-03-29_13h00.00.806,tripletExp_regina_11082022,2022.2.4,119.9932483657326,
1,5,13,0,0.111111111111111,0.298245614035088,0,1.0,0.298245614035088,0,0.111111111111111,3.10526315789474,ReadingArea_rsl0-rcl11-esl29-rsm0-rcm100-esm29-rsr0-rcr11-esr310,exr/ReadingArea_rsl0-rcl11-esl29-rsm0-rcm100-esm29-rsr0-rcr11-esr310.exr,ReadingArea_rsl0-rcl11-esl29-rsm0-rcm100-esm29-rsr0-rcr11-esr310.npz,,,,,0,88,88,598,,right,red,1.14,632.450464963913,632.9224178791046,,2,,8,4,lightness,readingArea,realistic,75,2023-03-29_13h00.00.806,tripletExp_regina_11082022,2022.2.4,119.9932483657326,
14,7,8,0,0.25,3.10526315789474,0,0.111111111111111,1.0,0,0.25,1.0,ReadingArea_rsl0-rcl25-esl310-rsm0-rcm11-esm100-rsr0-rcr25-esr100,exr/ReadingArea_rsl0-rcl25-esl310-rsm0-rcm11-esm100-rsr0-rcr25-esr100.exr,ReadingArea_rsl0-rcl25-esl310-rsm0-rcm11-esm100-rsr0-rcr25-esr100.npz,,,,,0,89,89,326,,right,red,2.41,636.3730409145355,636.8501179218292,,2,,8,4,lightness,readingArea,realistic,75,2023-03-29_13h00.00.806,tripletExp_regina_11082022,2022.2.4,119.9932483657326,
10,5,2,0,0.694444444444444,1.0,0,1.0,0.298245614035088,0,0.25,0.298245614035088,ReadingArea_rsl0-rcl69-esl100-rsm0-rcm100-esm29-rsr0-rcr25-esr29,exr/ReadingArea_rsl0-rcl69-esl100-rsm0-rcm100-esm29-rsr0-rcr25-esr29.exr,ReadingArea_rsl0-rcl69-esl100-rsm0-rcm100-esm29-rsr0-rcr25-esr29.npz,,,,,0,90,90,299,,left,green,1.66,638.572674036026,639.0540089607239,,2,,8,4,lightness,readingArea,realistic,75,2023-03-29_13h00.00.806,tripletExp_regina_11082022,2022.2.4,119.9932483657326,
5,14,11,0,1.0,0.298245614035088,0,0.25,3.10526315789474,0,1.0,1.0,ReadingArea_rsl0-rcl100-esl29-rsm0-rcm25-esm310-rsr0-rcr100-esr100,exr/ReadingArea_rsl0-rcl100-esl29-rsm0-rcm25-esm310-rsr0-rcr100-esr100.exr,ReadingArea_rsl0-rcl100-esl29-rsm0-rcm25-esm310-rsr0-rcr100-esr100.npz,,,,,0,91,91,98,,right,red,1.61,640.7441339492798,641.3020610809326,,2,,8,4,lightness,readingArea,realistic,75,2023-03-29_13h00.00.806,tripletExp_regina_11082022,2022.2.4,119.9932483657326,
5,10,2,0,1.0,0.298245614035088,0,0.694444444444444,1.0,0,0.25,0.298245614035088,ReadingArea_rsl0-rcl100-esl29-rsm0-rcm69-esm100-rsr0-rcr25-esr29,exr/ReadingArea_rsl0-rcl100-esl29-rsm0-rcm69-esm100-rsr0-rcr25-esr29.exr,ReadingArea_rsl0-rcl100-esl29-rsm0-rcm69-esm100-rsr0-rcr25-esr29.npz,,,,,0,92,92,489,,left,green,1.22,642.9964258670807,643.4898920059204,,2,,8,4,lightness,readingArea,realistic,75,2023-03-29_13h00.00.806,tripletExp_regina_11082022,2022.2.4,119.9932483657326,
14,4,8,0,0.25,3.10526315789474,0,0.694444444444444,0.298245614035088,0,0.25,1.0,ReadingArea_rsl0-rcl25-esl310-rsm0-rcm69-esm29-rsr0-rcr25-esr100,exr/ReadingArea_rsl0-rcl25-esl310-rsm0-rcm69-esm29-rsr0-rcr25-esr100.exr,ReadingArea_rsl0-rcl25-esl310-rsm0-rcm69-esm29-rsr0-rcr25-esr100.npz,,,,,0,93,93,253,,right,red,1.04,645.2082018852234,645.654219865799,,2,,8,4,lightness,readingArea,realistic,75,2023-03-29_13h00.00.806,tripletExp_regina_11082022,2022.2.4,119.9932483657326,
0,9,11,0,0.027777777777778,0.298245614035088,0,0.444444444444444,1.0,0,1.0,1.0,ReadingArea_rsl0-rcl2-esl29-rsm0-rcm44-esm100-rsr0-rcr100-esr100,exr/ReadingArea_rsl0-rcl2-esl29-rsm0-rcm44-esm100-rsr0-rcr100-esr100.exr,ReadingArea_rsl0-rcl2-esl29-rsm0-rcm44-esm100-rsr0-rcr100-esr100.npz,,,,,0,94,94,448,,right,red,1.45,647.3688299655914,647.8496749401093,,2,,8,4,lightness,readingArea,realistic,75,2023-03-29_13h00.00.806,tripletExp_regina_11082022,2022.2.4,119.9932483657326,
3,4,0,0,0.444444444444444,0.298245614035088,0,0.694444444444444,0.298245614035088,0,0.027777777777778,0.298245614035088,ReadingArea_rsl0-rcl44-esl29-rsm0-rcm69-esm29-rsr0-rcr2-esr29,exr/ReadingArea_rsl0-rcl44-esl29-rsm0-rcm69-esm29-rsr0-rcr2-esr29.exr,ReadingArea_rsl0-rcl44-esl29-rsm0-rcm69-esm29-rsr0-rcr2-esr29.npz,,,,,0,95,95,130,,left,green,1.31,649.5665590763092,650.0374069213867,,2,,8,4,lightness,readingArea,realistic,75,2023-03-29_13h00.00.806,tripletExp_regina_11082022,2022.2.4,119.9932483657326,
10,12,11,0,0.694444444444444,1.0,0,0.027777777777778,3.10526315789474,0,1.0,1.0,ReadingArea_rsl0-rcl69-esl100-rsm0-rcm2-esm310-rsr0-rcr100-esr100,exr/ReadingArea_rsl0-rcl69-esl100-rsm0-rcm2-esm310-rsr0-rcr100-esr100.exr,ReadingArea_rsl0-rcl69-esl100-rsm0-rcm2-esm310-rsr0-rcr100-esr100.npz,,,,,0,96,96,317,,left,green,2.71,653.529886007309,653.9909789562225,,2,,8,4,lightness,readingArea,realistic,75,2023-03-29_13h00.00.806,tripletExp_regina_11082022,2022.2.4,119.9932483657326,
10,3,14,0,0.694444444444444,1.0,0,0.444444444444444,0.298245614035088,0,0.25,3.10526315789474,ReadingArea_rsl0-rcl69-esl100-rsm0-rcm44-esm29-rsr0-rcr25-esr310,exr/ReadingArea_rsl0-rcl69-esl100-rsm0-rcm44-esm29-rsr0-rcr25-esr310.exr,ReadingArea_rsl0-rcl69-esl100-rsm0-rcm44-esm29-rsr0-rcr25-esr310.npz,,,,,0,97,97,597,,left,green,2.79,657.4806699752808,657.9508419036865,,2,,8,4,lightness,readingArea,realistic,75,2023-03-29_13h00.00.806,tripletExp_regina_11082022,2022.2.4,119.9932483657326,
12,8,10,0,0.027777777777778,3.10526315789474,0,0.25,1.0,0,0.694444444444444,1.0,ReadingArea_rsl0-rcl2-esl310-rsm0-rcm25-esm100-rsr0-rcr69-esr100,exr/ReadingArea_rsl0-rcl2-esl310-rsm0-rcm25-esm100-rsr0-rcr69-esr100.exr,ReadingArea_rsl0-rcl2-esl310-rsm0-rcm25-esm100-rsr0-rcr69-esr100.npz,,,,,0,98,98,216,,left,green,1.83,659.6748609542847,,,2,,8,4,lightness,readingArea,realistic,75,2023-03-29_13h00.00.806,tripletExp_regina_11082022,2022.2.4,119.9932483657326,
7,9,8,0,0.111111111111111,1.0,0,0.444444444444444,1.0,0,0.25,1.0,ReadingArea_rsl0-rcl11-esl100-rsm0-rcm44-esm100-rsr0-rcr25-esr100,exr/ReadingArea_rsl0-rcl11-esl100-rsm0-rcm44-esm100-rsr0-rcr25-esr100.exr,ReadingArea_rsl0-rcl11-esl100-rsm0-rcm44-esm100-rsr0-rcr25-esr100.npz,,,,,0,99,99,515,,right,red,2.51,663.765832901001,664.3990409374237,,2,,8,4,lightness,readingArea,realistic,75,2023-03-29_13h00.00.806,tripletExp_regina_11082022,2022.2.4,119.9932483657326,
2,1,10,0,0.25,0.298245614035088,0,0.111111111111111,0.298245614035088,0,0.694444444444444,1.0,ReadingArea_rsl0-rcl25-esl29-rsm0-rcm11-esm29-rsr0-rcr69-esr100,exr/ReadingArea_rsl0-rcl25-esl29-rsm0-rcm11-esm29-rsr0-rcr69-esr100.exr,ReadingArea_rsl0-rcl25-esl29-rsm0-rcm11-esm29-rsr0-rcr69-esr100.npz,,,,,0,100,100,585,,left,green,2.7,667.8484160900116,668.3364129066467,,2,,8,4,lightness,readingArea,realistic,75,2023-03-29_13h00.00.806,tripletExp_regina_11082022,2022.2.4,119.9932483657326,
14,13,3,0,0.25,3.10526315789474,0,0.111111111111111,3.10526315789474,0,0.444444444444444,0.298245614035088,ReadingArea_rsl0-rcl25-esl310-rsm0-rcm11-esm310-rsr0-rcr44-esr29,exr/ReadingArea_rsl0-rcl25-esl310-rsm0-rcm11-esm310-rsr0-rcr44-esr29.exr,ReadingArea_rsl0-rcl25-esl310-rsm0-rcm11-esm310-rsr0-rcr44-esr29.npz,,,,,0,101,101,256,,right,red,4.56,673.6212160587311,674.091099023819,,2,,8,4,lightness,readingArea,realistic,75,2023-03-29_13h00.00.806,tripletExp_regina_11082022,2022.2.4,119.9932483657326,
8,12,13,0,0.25,1.0,0,0.027777777777778,3.10526315789474,0,0.111111111111111,3.10526315789474,ReadingArea_rsl0-rcl25-esl100-rsm0-rcm2-esm310-rsr0-rcr11-esr310,exr/ReadingArea_rsl0-rcl25-esl100-rsm0-rcm2-esm310-rsr0-rcr11-esr310.exr,ReadingArea_rsl0-rcl25-esl100-rsm0-rcm2-esm310-rsr0-rcr11-esr310.npz,,,,,0,102,102,275,,,red,4.56,679.2938599586487,679.9287068843842,,2,678.9641524076462,8,4,lightness,readingArea,realistic,75,2023-03-29_13h00.00.806,tripletExp_regina_11082022,2022.2.4,119.9932483657326,
14,12,0,0,0.25,3.10526315789474,0,0.027777777777778,3.10526315789474,0,0.027777777777778,0.298245614035088,ReadingArea_rsl0-rcl25-esl310-rsm0-rcm2-esm310-rsr0-rcr2-esr29,exr/ReadingArea_rsl0-rcl25-esl310-rsm0-rcm2-esm310-rsr0-rcr2-esr29.exr,ReadingArea_rsl0-rcl25-esl310-rsm0-rcm2-esm310-rsr0-rcr2-esr29.npz,,,,,0,103,103,409,,right,red,1.96,683.3904359340668,683.8801920413971,,2,,8,4,lightness,readingArea,realistic,75,2023-03-29_13h00.00.806,tripletExp_regina_11082022,2022.2.4,119.9932483657326,
3,4,13,0,0.444444444444444,0.298245614035088,0,0.694444444444444,0.298245614035088,0,0.111111111111111,3.10526315789474,ReadingArea_rsl0-rcl44-esl29-rsm0-rcm69-esm29-rsr0-rcr11-esr310,exr/ReadingArea_rsl0-rcl44-esl29-rsm0-rcm69-esm29-rsr0-rcr11-esr310.exr,ReadingArea_rsl0-rcl44-esl29-rsm0-rcm69-esm29-rsr0-rcr11-esr310.npz,,,,,0,104,104,63,,left,green,2.15,687.3542680740356,,,2,,8,4,lightness,readingArea,realistic,75,2023-03-29_13h00.00.806,tripletExp_regina_11082022,2022.2.4,119.9932483657326,
2,8,4,0,0.25,0.298245614035088,0,0.25,1.0,0,0.694444444444444,0.298245614035088,ReadingArea_rsl0-rcl25-esl29-rsm0-rcm25-esm100-rsr0-rcr69-esr29,exr/ReadingArea_rsl0-rcl25-esl29-rsm0-rcm25-esm100-rsr0-rcr69-esr29.exr,ReadingArea_rsl0-rcl25-esl29-rsm0-rcm25-esm100-rsr0-rcr69-esr29.npz,,,,,0,105,105,507,,right,red,1.31,689.5358319282532,690.0989499092102,,2,,8,4,lightness,readingArea,realistic,75,2023-03-29_13h00.00.806,tripletExp_regina_11082022,2022.2.4,119.9932483657326,
3,6,11,0,0.444444444444444,0.298245614035088,0,0.027777777777778,1.0,0,1.0,1.0,ReadingArea_rsl0-rcl44-esl29-rsm0-rcm2-esm100-rsr0-rcr100-esr100,exr/ReadingArea_rsl0-rcl44-esl29-rsm0-rcm2-esm100-rsr0-rcr100-esr100.exr,ReadingArea_rsl0-rcl44-esl29-rsm0-rcm2-esm100-rsr0-rcr100-esr100.npz,,,,,0,106,106,155,,left,green,1.2,691.7965888977051,,,2,,8,4,lightness,readingArea,realistic,75,2023-03-29_13h00.00.806,tripletExp_regina_11082022,2022.2.4,119.9932483657326,
5,1,4,0,1.0,0.298245614035088,0,0.111111111111111,0.298245614035088,0,0.694444444444444,0.298245614035088,ReadingArea_rsl0-rcl100-esl29-rsm0-rcm11-esm29-rsr0-rcr69-esr29,exr/ReadingArea_rsl0-rcl100-esl29-rsm0-rcm11-esm29-rsr0-rcr69-esr29.exr,ReadingArea_rsl0-rcl100-esl29-rsm0-rcm11-esm29-rsr0-rcr69-esr29.npz,,,,,0,107,107,287,,right,red,2.84,695.7618339061737,696.2744059562683,,2,,8,4,lightness,readingArea,realistic,75,2023-03-29_13h00.00.806,tripletExp_regina_11082022,2022.2.4,119.9932483657326,
4,7,5,0,0.694444444444444,0.298245614035088,0,0.111111111111111,1.0,0,1.0,0.298245614035088,ReadingArea_rsl0-rcl69-esl29-rsm0-rcm11-esm100-rsr0-rcr100-esr29,exr/ReadingArea_rsl0-rcl69-esl29-rsm0-rcm11-esm100-rsr0-rcr100-esr29.exr,ReadingArea_rsl0-rcl69-esl29-rsm0-rcm11-esm100-rsr0-rcr100-esr29.npz,,,,,0,108,108,195,,left,green,2.7,699.7544400691986,700.2232429981232,,2,,8,4,lightness,readingArea,realistic,75,2023-03-29_13h00.00.806,tripletExp_regina_11082022,2022.2.4,119.9932483657326,
0,13,12,0,0.027777777777778,0.298245614035088,0,0.111111111111111,3.10526315789474,0,0.027777777777778,3.10526315789474,ReadingArea_rsl0-rcl2-esl29-rsm0-rcm11-esm310-rsr0-rcr2-esr310,exr/ReadingArea_rsl0-rcl2-esl29-rsm0-rcm11-esm310-rsr0-rcr2-esr310.exr,ReadingArea_rsl0-rcl2-esl29-rsm0-rcm11-esm310-rsr0-rcr2-esr310.npz,,,,,0,109,109,501,,right,red,2.9,703.7132079601288,704.1820919513702,,2,,8,4,lightness,readingArea,realistic,75,2023-03-29_13h00.00.806,tripletExp_regina_11082022,2022.2.4,119.9932483657326,
13,6,8,0,0.111111111111111,3.10526315789474,0,0.027777777777778,1.0,0,0.25,1.0,ReadingArea_rsl0-rcl11-esl310-rsm0-rcm2-esm100-rsr0-rcr25-esr100,exr/ReadingArea_rsl0-rcl11-esl310-rsm0-rcm2-esm100-rsr0-rcr25-esr100.exr,ReadingArea_rsl0-rcl11-esl310-rsm0-rcm2-esm100-rsr0-rcr25-esr100.npz,,,,,0,110,110,340,,right,red,2.48,707.6802780628204,708.13507604599,,2,,8,4,lightness,readingArea,realistic,75,2023-03-29_13h00.00.806,tripletExp_regina_11082022,2022.2.4,119.9932483657326,
13,7,6,0,0.111111111111111,3.10526315789474,0,0.111111111111111,1.0,0,0.027777777777778,1.0,ReadingArea_rsl0-rcl11-esl310-rsm0-rcm11-esm100-rsr0-rcr2-esr100,exr/ReadingArea_rsl0-rcl11-esl310-rsm0-rcm11-esm100-rsr0-rcr2-esr100.exr,ReadingArea_rsl0-rcl11-esl310-rsm0-rcm11-esm100-rsr0-rcr2-esr100.npz,,,,,0,111,111,283,,right,red,2.87,711.6287760734558,712.2392868995667,,2,,8,4,lightness,readingArea,realistic,75,2023-03-29_13h00.00.806,tripletExp_regina_11082022,2022.2.4,119.9932483657326,
9,4,11,0,0.444444444444444,1.0,0,0.694444444444444,0.298245614035088,0,1.0,1.0,ReadingArea_rsl0-rcl44-esl100-rsm0-rcm69-esm29-rsr0-rcr100-esr100,exr/ReadingArea_rsl0-rcl44-esl100-rsm0-rcm69-esm29-rsr0-rcr100-esr100.exr,ReadingArea_rsl0-rcl44-esl100-rsm0-rcm69-esm29-rsr0-rcr100-esr100.npz,,,,,0,112,112,133,,left,green,2.31,715.712415933609,716.184238910675,,2,,8,4,lightness,readingArea,realistic,75,2023-03-29_13h00.00.806,tripletExp_regina_11082022,2022.2.4,119.9932483657326,
9,6,8,0,0.444444444444444,1.0,0,0.027777777777778,1.0,0,0.25,1.0,ReadingArea_rsl0-rcl44-esl100-rsm0-rcm2-esm100-rsr0-rcr25-esr100,exr/ReadingArea_rsl0-rcl44-esl100-rsm0-rcm2-esm100-rsr0-rcr25-esr100.exr,ReadingArea_rsl0-rcl44-esl100-rsm0-rcm2-esm100-rsr0-rcr25-esr100.npz,,,,,0,113,113,312,,right,red,2.2,719.666620016098,720.1364798545837,,2,,8,4,lightness,readingArea,realistic,75,2023-03-29_13h00.00.806,tripletExp_regina_11082022,2022.2.4,119.9932483657326,
10,0,3,0,0.694444444444444,1.0,0,0.027777777777778,0.298245614035088,0,0.444444444444444,0.298245614035088,ReadingArea_rsl0-rcl69-esl100-rsm0-rcm2-esm29-rsr0-rcr44-esr29,exr/ReadingArea_rsl0-rcl69-esl100-rsm0-rcm2-esm29-rsr0-rcr44-esr29.exr,ReadingArea_rsl0-rcl69-esl100-rsm0-rcm2-esm29-rsr0-rcr44-esr29.npz,,,,,0,114,114,87,,right,red,1.51,721.8616240024567,722.3232140541077,,2,,8,4,lightness,readingArea,realistic,75,2023-03-29_13h00.00.806,tripletExp_regina_11082022,2022.2.4,119.9932483657326,
8,4,2,0,0.25,1.0,0,0.694444444444444,0.298245614035088,0,0.25,0.298245614035088,ReadingArea_rsl0-rcl25-esl100-rsm0-rcm69-esm29-rsr0-rcr25-esr29,exr/ReadingArea_rsl0-rcl25-esl100-rsm0-rcm69-esm29-rsr0-rcr25-esr29.exr,ReadingArea_rsl0-rcl25-esl100-rsm0-rcm69-esm29-rsr0-rcr25-esr29.npz,,,,,0,115,115,184,,left,green,2.27,725.7954380512238,726.279550075531,,2,,8,4,lightness,readingArea,realistic,75,2023-03-29_13h00.00.806,tripletExp_regina_11082022,2022.2.4,119.9932483657326,
9,8,7,0,0.444444444444444,1.0,0,0.25,1.0,0,0.111111111111111,1.0,ReadingArea_rsl0-rcl44-esl100-rsm0-rcm25-esm100-rsr0-rcr11-esr100,exr/ReadingArea_rsl0-rcl44-esl100-rsm0-rcm25-esm100-rsr0-rcr11-esr100.exr,ReadingArea_rsl0-rcl44-esl100-rsm0-rcm25-esm100-rsr0-rcr11-esr100.npz,,,,,0,116,116,368,,right,red,1.32,728.0015339851379,728.4732789993286,,2,,8,4,lightness,readingArea,realistic,75,2023-03-29_13h00.00.806,tripletExp_regina_11082022,2022.2.4,119.9932483657326,
12,5,4,0,0.027777777777778,3.10526315789474,0,1.0,0.298245614035088,0,0.694444444444444,0.298245614035088,ReadingArea_rsl0-rcl2-esl310-rsm0-rcm100-esm29-rsr0-rcr69-esr29,exr/ReadingArea_rsl0-rcl2-esl310-rsm0-rcm100-esm29-rsr0-rcr69-esr29.exr,ReadingArea_rsl0-rcl2-esl310-rsm0-rcm100-esm29-rsr0-rcr69-esr29.npz,,,,,0,117,117,566,,right,red,1.02,730.1653649806976,730.6368930339813,,2,,8,4,lightness,readingArea,realistic,75,2023-03-29_13h00.00.806,tripletExp_regina_11082022,2022.2.4,119.9932483657326,
10,3,1,0,0.694444444444444,1.0,0,0.444444444444444,0.298245614035088,0,0.111111111111111,0.298245614035088,ReadingArea_rsl0-rcl69-esl100-rsm0-rcm44-esm29-rsr0-rcr11-esr29,exr/ReadingArea_rsl0-rcl69-esl100-rsm0-rcm44-esm29-rsr0-rcr11-esr29.exr,ReadingArea_rsl0-rcl69-esl100-rsm0-rcm44-esm29-rsr0-rcr11-esr29.npz,,,,,0,118,118,420,,right,red,2.2,734.0852010250092,734.5517580509186,,2,,8,4,lightness,readingArea,realistic,75,2023-03-29_13h00.00.806,tripletExp_regina_11082022,2022.2.4,119.9932483657326,
6,13,0,0,0.027777777777778,1.0,0,0.111111111111111,3.10526315789474,0,0.027777777777778,0.298245614035088,ReadingArea_rsl0-rcl2-esl100-rsm0-rcm11-esm310-rsr0-rcr2-esr29,exr/ReadingArea_rsl0-rcl2-esl100-rsm0-rcm11-esm310-rsr0-rcr2-esr29.exr,ReadingArea_rsl0-rcl2-esl100-rsm0-rcm11-esm310-rsr0-rcr2-esr29.npz,,,,,0,119,119,580,,left,green,4.22,739.7854950428009,740.2588760852814,,2,,8,4,lightness,readingArea,realistic,75,2023-03-29_13h00.00.806,tripletExp_regina_11082022,2022.2.4,119.9932483657326,
4,8,11,0,0.694444444444444,0.298245614035088,0,0.25,1.0,0,1.0,1.0,ReadingArea_rsl0-rcl69-esl29-rsm0-rcm25-esm100-rsr0-rcr100-esr100,exr/ReadingArea_rsl0-rcl69-esl29-rsm0-rcm25-esm100-rsr0-rcr100-esr100.exr,ReadingArea_rsl0-rcl69-esl29-rsm0-rcm25-esm100-rsr0-rcr100-esr100.npz,,,,,0,120,120,403,,left,green,1.19,741.9542548656464,,,2,,8,4,lightness,readingArea,realistic,75,2023-03-29_13h00.00.806,tripletExp_regina_11082022,2022.2.4,119.9932483657326,
5,4,10,0,1.0,0.298245614035088,0,0.694444444444444,0.298245614035088,0,0.694444444444444,1.0,ReadingArea_rsl0-rcl100-esl29-rsm0-rcm69-esm29-rsr0-rcr69-esr100,exr/ReadingArea_rsl0-rcl100-esl29-rsm0-rcm69-esm29-rsr0-rcr69-esr100.exr,ReadingArea_rsl0-rcl100-esl29-rsm0-rcm69-esm29-rsr0-rcr69-esr100.npz,,,,,0,121,121,536,,left,green,1.12,744.1126909255981,,,2,,8,4,lightness,readingArea,realistic,75,2023-03-29_13h00.00.806,tripletExp_regina_11082022,2022.2.4,119.9932483657326,
2,5,0,0,0.25,0.298245614035088,0,1.0,0.298245614035088,0,0.027777777777778,0.298245614035088,ReadingArea_rsl0-rcl25-esl29-rsm0-rcm100-esm29-rsr0-rcr2-esr29,exr/ReadingArea_rsl0-rcl25-esl29-rsm0-rcm100-esm29-rsr0-rcr2-esr29.exr,ReadingArea_rsl0-rcl25-esl29-rsm0-rcm100-esm29-rsr0-rcr2-esr29.npz,,,,,0,122,122,414,,left,green,1.36,746.304281949997,746.7701420783997,,2,,8,4,lightness,readingArea,realistic,75,2023-03-29_13h00.00.806,tripletExp_regina_11082022,2022.2.4,119.9932483657326,
10,7,13,0,0.694444444444444,1.0,0,0.111111111111111,1.0,0,0.111111111111111,3.10526315789474,ReadingArea_rsl0-rcl69-esl100-rsm0-rcm11-esm100-rsr0-rcr11-esr310,exr/ReadingArea_rsl0-rcl69-esl100-rsm0-rcm11-esm100-rsr0-rcr11-esr310.exr,ReadingArea_rsl0-rcl69-esl100-rsm0-rcm11-esm100-rsr0-rcr11-esr310.npz,,,,,0,123,123,379,,right,red,2.87,750.2261219024658,750.8657388687134,,2,,8,4,lightness,readingArea,realistic,75,2023-03-29_13h00.00.806,tripletExp_regina_11082022,2022.2.4,119.9932483657326,
7,8,6,0,0.111111111111111,1.0,0,0.25,1.0,0,0.027777777777778,1.0,ReadingArea_rsl0-rcl11-esl100-rsm0-rcm25-esm100-rsr0-rcr2-esr100,exr/ReadingArea_rsl0-rcl11-esl100-rsm0-rcm25-esm100-rsr0-rcr2-esr100.exr,ReadingArea_rsl0-rcl11-esl100-rsm0-rcm25-esm100-rsr0-rcr2-esr100.npz,,,,,0,124,124,387,,left,green,1.64,752.5559780597687,,,2,,8,4,lightness,readingArea,realistic,75,2023-03-29_13h00.00.806,tripletExp_regina_11082022,2022.2.4,119.9932483657326,
6,11,7,0,0.027777777777778,1.0,0,1.0,1.0,0,0.111111111111111,1.0,ReadingArea_rsl0-rcl2-esl100-rsm0-rcm100-esm100-rsr0-rcr11-esr100,exr/ReadingArea_rsl0-rcl2-esl100-rsm0-rcm100-esm100-rsr0-rcr11-esr100.exr,ReadingArea_rsl0-rcl2-esl100-rsm0-rcm100-esm100-rsr0-rcr11-esr100.npz,,,,,0,125,125,571,,right,red,1.12,754.7263169288635,755.1792168617249,,2,,8,4,lightness,readingArea,realistic,75,2023-03-29_13h00.00.806,tripletExp_regina_11082022,2022.2.4,119.9932483657326,
10,11,0,0,0.694444444444444,1.0,0,1.0,1.0,0,0.027777777777778,0.298245614035088,ReadingArea_rsl0-rcl69-esl100-rsm0-rcm100-esm100-rsr0-rcr2-esr29,exr/ReadingArea_rsl0-rcl69-esl100-rsm0-rcm100-esm100-rsr0-rcr2-esr29.exr,ReadingArea_rsl0-rcl69-esl100-rsm0-rcm100-esm100-rsr0-rcr2-esr29.npz,,,,,0,126,126,58,,left,green,1.08,756.9004380702972,757.3748610019684,,2,,8,4,lightness,readingArea,realistic,75,2023-03-29_13h00.00.806,tripletExp_regina_11082022,2022.2.4,119.9932483657326,
2,5,3,0,0.25,0.298245614035088,0,1.0,0.298245614035088,0,0.444444444444444,0.298245614035088,ReadingArea_rsl0-rcl25-esl29-rsm0-rcm100-esm29-rsr0-rcr44-esr29,exr/ReadingArea_rsl0-rcl25-esl29-rsm0-rcm100-esm29-rsr0-rcr44-esr29.exr,ReadingArea_rsl0-rcl25-esl29-rsm0-rcm100-esm29-rsr0-rcr44-esr29.npz,,,,,0,127,127,135,,right,red,2.17,760.8538780212402,761.3429050445557,,2,,8,4,lightness,readingArea,realistic,75,2023-03-29_13h00.00.806,tripletExp_regina_11082022,2022.2.4,119.9932483657326,
11,4,0,0,1.0,1.0,0,0.694444444444444,0.298245614035088,0,0.027777777777778,0.298245614035088,ReadingArea_rsl0-rcl100-esl100-rsm0-rcm69-esm29-rsr0-rcr2-esr29,exr/ReadingArea_rsl0-rcl100-esl100-rsm0-rcm69-esm29-rsr0-rcr2-esr29.exr,ReadingArea_rsl0-rcl100-esl100-rsm0-rcm69-esm29-rsr0-rcr2-esr29.npz,,,,,0,128,128,219,,left,green,3.26,764.7969410419464,765.264034986496,,2,,8,4,lightness,readingArea,realistic,75,2023-03-29_13h00.00.806,tripletExp_regina_11082022,2022.2.4,119.9932483657326,
10,11,13,0,0.694444444444444,1.0,0,1.0,1.0,0,0.111111111111111,3.10526315789474,ReadingArea_rsl0-rcl69-esl100-rsm0-rcm100-esm100-rsr0-rcr11-esr310,exr/ReadingArea_rsl0-rcl69-esl100-rsm0-rcm100-esm100-rsr0-rcr11-esr310.exr,ReadingArea_rsl0-rcl69-esl100-rsm0-rcm100-esm100-rsr0-rcr11-esr310.npz,,,,,0,129,129,79,,left,green,1.06,766.9529118537903,767.4321789741516,,2,,8,4,lightness,readingArea,realistic,75,2023-03-29_13h00.00.806,tripletExp_regina_11082022,2022.2.4,119.9932483657326,
3,9,13,0,0.444444444444444,0.298245614035088,0,0.444444444444444,1.0,0,0.111111111111111,3.10526315789474,ReadingArea_rsl0-rcl44-esl29-rsm0-rcm44-esm100-rsr0-rcr11-esr310,exr/ReadingArea_rsl0-rcl44-esl29-rsm0-rcm44-esm100-rsr0-rcr11-esr310.exr,ReadingArea_rsl0-rcl44-esl29-rsm0-rcm44-esm100-rsr0-rcr11-esr310.npz,,,,,0,130,130,341,,right,red,3.55,770.9135279655457,771.3807768821716,,2,,8,4,lightness,readingArea,realistic,75,2023-03-29_13h00.00.806,tripletExp_regina_11082022,2022.2.4,119.9932483657326,
14,13,2,0,0.25,3.10526315789474,0,0.111111111111111,3.10526315789474,0,0.25,0.298245614035088,ReadingArea_rsl0-rcl25-esl310-rsm0-rcm11-esm310-rsr0-rcr25-esr29,exr/ReadingArea_rsl0-rcl25-esl310-rsm0-rcm11-esm310-rsr0-rcr25-esr29.exr,ReadingArea_rsl0-rcl25-esl310-rsm0-rcm11-esm310-rsr0-rcr25-esr29.npz,,,,,0,131,131,377,,right,red,2.59,774.8600649833679,775.3382098674774,,2,,8,4,lightness,readingArea,realistic,75,2023-03-29_13h00.00.806,tripletExp_regina_11082022,2022.2.4,119.9932483657326,
14,8,3,0,0.25,3.10526315789474,0,0.25,1.0,0,0.444444444444444,0.298245614035088,ReadingArea_rsl0-rcl25-esl310-rsm0-rcm25-esm100-rsr0-rcr44-esr29,exr/ReadingArea_rsl0-rcl25-esl310-rsm0-rcm25-esm100-rsr0-rcr44-esr29.exr,ReadingArea_rsl0-rcl25-esl310-rsm0-rcm25-esm100-rsr0-rcr44-esr29.npz,,,,,0,132,132,100,,right,red,1.32,777.057070016861,777.5279989242554,,2,,8,4,lightness,readingArea,realistic,75,2023-03-29_13h00.00.806,tripletExp_regina_11082022,2022.2.4,119.9932483657326,
12,5,14,0,0.027777777777778,3.10526315789474,0,1.0,0.298245614035088,0,0.25,3.10526315789474,ReadingArea_rsl0-rcl2-esl310-rsm0-rcm100-esm29-rsr0-rcr25-esr310,exr/ReadingArea_rsl0-rcl2-esl310-rsm0-rcm100-esm29-rsr0-rcr25-esr310.exr,ReadingArea_rsl0-rcl2-esl310-rsm0-rcm100-esm29-rsr0-rcr25-esr310.npz,,,,,0,133,133,193,,right,red,2.45,781.0082700252533,781.4809970855713,,2,,8,4,lightness,readingArea,realistic,75,2023-03-29_13h00.00.806,tripletExp_regina_11082022,2022.2.4,119.9932483657326,
2,1,12,0,0.25,0.298245614035088,0,0.111111111111111,0.298245614035088,0,0.027777777777778,3.10526315789474,ReadingArea_rsl0-rcl25-esl29-rsm0-rcm11-esm29-rsr0-rcr2-esr310,exr/ReadingArea_rsl0-rcl25-esl29-rsm0-rcm11-esm29-rsr0-rcr2-esr310.exr,ReadingArea_rsl0-rcl25-esl29-rsm0-rcm11-esm29-rsr0-rcr2-esr310.npz,,,,,0,134,134,12,,left,green,2.54,784.9756050109863,785.4423999786377,,2,,8,4,lightness,readingArea,realistic,75,2023-03-29_13h00.00.806,tripletExp_regina_11082022,2022.2.4,119.9932483657326,
5,7,14,0,1.0,0.298245614035088,0,0.111111111111111,1.0,0,0.25,3.10526315789474,ReadingArea_rsl0-rcl100-esl29-rsm0-rcm11-esm100-rsr0-rcr25-esr310,exr/ReadingArea_rsl0-rcl100-esl29-rsm0-rcm11-esm100-rsr0-rcr25-esr310.exr,ReadingArea_rsl0-rcl100-esl29-rsm0-rcm11-esm100-rsr0-rcr25-esr310.npz,,,,,0,135,135,210,,left,green,3.01,788.9292979240417,789.4026448726654,,2,,8,4,lightness,readingArea,realistic,75,2023-03-29_13h00.00.806,tripletExp_regina_11082022,2022.2.4,119.9932483657326,
5,14,3,0,1.0,0.298245614035088,0,0.25,3.10526315789474,0,0.444444444444444,0.298245614035088,ReadingArea_rsl0-rcl100-esl29-rsm0-rcm25-esm310-rsr0-rcr44-esr29,exr/ReadingArea_rsl0-rcl100-esl29-rsm0-rcm25-esm310-rsr0-rcr44-esr29.exr,ReadingArea_rsl0-rcl100-esl29-rsm0-rcm25-esm310-rsr0-rcr44-esr29.npz,,,,,0,136,136,93,,left,green,2.43,792.864217042923,793.3460450172424,,2,,8,4,lightness,readingArea,realistic,75,2023-03-29_13h00.00.806,tripletExp_regina_11082022,2022.2.4,119.9932483657326,
5,12,7,0,1.0,0.298245614035088,0,0.027777777777778,3.10526315789474,0,0.111111111111111,1.0,ReadingArea_rsl0-rcl100-esl29-rsm0-rcm2-esm310-rsr0-rcr11-esr100,exr/ReadingArea_rsl0-rcl100-esl29-rsm0-rcm2-esm310-rsr0-rcr11-esr100.exr,ReadingArea_rsl0-rcl100-esl29-rsm0-rcm2-esm310-rsr0-rcr11-esr100.npz,,,,,0,137,137,447,,right,red,0.97,795.041848897934,795.5300869941711,,2,,8,4,lightness,readingArea,realistic,75,2023-03-29_13h00.00.806,tripletExp_regina_11082022,2022.2.4,119.9932483657326,
1,8,5,0,0.111111111111111,0.298245614035088,0,0.25,1.0,0,1.0,0.298245614035088,ReadingArea_rsl0-rcl11-esl29-rsm0-rcm25-esm100-rsr0-rcr100-esr29,exr/ReadingArea_rsl0-rcl11-esl29-rsm0-rcm25-esm100-rsr0-rcr100-esr29.exr,ReadingArea_rsl0-rcl11-esl29-rsm0-rcm25-esm100-rsr0-rcr100-esr29.npz,,,,,0,138,138,445,,left,green,2.97,799.0075180530548,799.5019500255585,,2,,8,4,lightness,readingArea,realistic,75,2023-03-29_13h00.00.806,tripletExp_regina_11082022,2022.2.4,119.9932483657326,
7,2,0,0,0.111111111111111,1.0,0,0.25,0.298245614035088,0,0.027777777777778,0.298245614035088,ReadingArea_rsl0-rcl11-esl100-rsm0-rcm25-esm29-rsr0-rcr2-esr29,exr/ReadingArea_rsl0-rcl11-esl100-rsm0-rcm25-esm29-rsr0-rcr2-esr29.exr,ReadingArea_rsl0-rcl11-esl100-rsm0-rcm25-esm29-rsr0-rcr2-esr29.npz,,,,,0,139,139,520,,left,green,1.65,801.2208349704742,801.7148959636688,,2,,8,4,lightness,readingArea,realistic,75,2023-03-29_13h00.00.806,tripletExp_regina_11082022,2022.2.4,119.9932483657326,
3,1,6,0,0.444444444444444,0.298245614035088,0,0.111111111111111,0.298245614035088,0,0.027777777777778,1.0,ReadingArea_rsl0-rcl44-esl29-rsm0-rcm11-esm29-rsr0-rcr2-esr100,exr/ReadingArea_rsl0-rcl44-esl29-rsm0-rcm11-esm29-rsr0-rcr2-esr100.exr,ReadingArea_rsl0-rcl44-esl29-rsm0-rcm11-esm29-rsr0-rcr2-esr100.npz,,,,,0,140,140,464,,right,red,1.05,803.408704996109,803.8628220558167,,2,,8,4,lightness,readingArea,realistic,75,2023-03-29_13h00.00.806,tripletExp_regina_11082022,2022.2.4,119.9932483657326,
12,14,8,0,0.027777777777778,3.10526315789474,0,0.25,3.10526315789474,0,0.25,1.0,ReadingArea_rsl0-rcl2-esl310-rsm0-rcm25-esm310-rsr0-rcr25-esr100,exr/ReadingArea_rsl0-rcl2-esl310-rsm0-rcm25-esm310-rsr0-rcr25-esr100.exr,ReadingArea_rsl0-rcl2-esl310-rsm0-rcm25-esm310-rsr0-rcr25-esr100.npz,,,,,0,141,141,466,,right,red,1.29,805.585813999176,806.0736649036407,,2,,8,4,lightness,readingArea,realistic,75,2023-03-29_13h00.00.806,tripletExp_regina_11082022,2022.2.4,119.9932483657326,
12,8,3,0,0.027777777777778,3.10526315789474,0,0.25,1.0,0,0.444444444444444,0.298245614035088,ReadingArea_rsl0-rcl2-esl310-rsm0-rcm25-esm100-rsr0-rcr44-esr29,exr/ReadingArea_rsl0-rcl2-esl310-rsm0-rcm25-esm100-rsr0-rcr44-esr29.exr,ReadingArea_rsl0-rcl2-esl310-rsm0-rcm25-esm100-rsr0-rcr44-esr29.npz,,,,,0,142,142,386,,right,red,1.29,807.8004350662231,808.2886629104614,,2,,8,4,lightness,readingArea,realistic,75,2023-03-29_13h00.00.806,tripletExp_regina_11082022,2022.2.4,119.9932483657326,
3,13,6,0,0.444444444444444,0.298245614035088,0,0.111111111111111,3.10526315789474,0,0.027777777777778,1.0,ReadingArea_rsl0-rcl44-esl29-rsm0-rcm11-esm310-rsr0-rcr2-esr100,exr/ReadingArea_rsl0-rcl44-esl29-rsm0-rcm11-esm310-rsr0-rcr2-esr100.exr,ReadingArea_rsl0-rcl44-esl29-rsm0-rcm11-esm310-rsr0-rcr2-esr100.npz,,,,,0,143,143,199,,left,green,1.26,809.9882349967957,810.4416708946228,,2,,8,4,lightness,readingArea,realistic,75,2023-03-29_13h00.00.806,tripletExp_regina_11082022,2022.2.4,119.9932483657326,
2,7,11,0,0.25,0.298245614035088,0,0.111111111111111,1.0,0,1.0,1.0,ReadingArea_rsl0-rcl25-esl29-rsm0-rcm11-esm100-rsr0-rcr100-esr100,exr/ReadingArea_rsl0-rcl25-esl29-rsm0-rcm11-esm100-rsr0-rcr100-esr100.exr,ReadingArea_rsl0-rcl25-esl29-rsm0-rcm11-esm100-rsr0-rcr100-esr100.npz,,,,,0,144,144,194,,left,green,1.16,812.1459488868713,812.6221849918365,,2,,8,4,lightness,readingArea,realistic,75,2023-03-29_13h00.00.806,tripletExp_regina_11082022,2022.2.4,119.9932483657326,
0,5,1,0,0.027777777777778,0.298245614035088,0,1.0,0.298245614035088,0,0.111111111111111,0.298245614035088,ReadingArea_rsl0-rcl2-esl29-rsm0-rcm100-esm29-rsr0-rcr11-esr29,exr/ReadingArea_rsl0-rcl2-esl29-rsm0-rcm100-esm29-rsr0-rcr11-esr29.exr,ReadingArea_rsl0-rcl2-esl29-rsm0-rcm100-esm29-rsr0-rcr11-esr29.npz,,,,,0,145,145,367,,right,red,2.67,816.1172778606415,816.5892598628998,,2,,8,4,lightness,readingArea,realistic,75,2023-03-29_13h00.00.806,tripletExp_regina_11082022,2022.2.4,119.9932483657326,
2,9,8,0,0.25,0.298245614035088,0,0.444444444444444,1.0,0,0.25,1.0,ReadingArea_rsl0-rcl25-esl29-rsm0-rcm44-esm100-rsr0-rcr25-esr100,exr/ReadingArea_rsl0-rcl25-esl29-rsm0-rcm44-esm100-rsr0-rcr25-esr100.exr,ReadingArea_rsl0-rcl25-esl29-rsm0-rcm44-esm100-rsr0-rcr25-esr100.npz,,,,,0,146,146,407,,right,red,1.22,818.2822439670563,818.7838950157166,,2,,8,4,lightness,readingArea,realistic,75,2023-03-29_13h00.00.806,tripletExp_regina_11082022,2022.2.4,119.9932483657326,
4,12,7,0,0.694444444444444,0.298245614035088,0,0.027777777777778,3.10526315789474,0,0.111111111111111,1.0,ReadingArea_rsl0-rcl69-esl29-rsm0-rcm2-esm310-rsr0-rcr11-esr100,exr/ReadingArea_rsl0-rcl69-esl29-rsm0-rcm2-esm310-rsr0-rcr11-esr100.exr,ReadingArea_rsl0-rcl69-esl29-rsm0-rcm2-esm310-rsr0-rcr11-esr100.npz,,,,,0,147,147,112,,right,red,1.27,820.5066339969635,820.967414855957,,2,,8,4,lightness,readingArea,realistic,75,2023-03-29_13h00.00.806,tripletExp_regina_11082022,2022.2.4,119.9932483657326,
4,9,13,0,0.694444444444444,0.298245614035088,0,0.444444444444444,1.0,0,0.111111111111111,3.10526315789474,ReadingArea_rsl0-rcl69-esl29-rsm0-rcm44-esm100-rsr0-rcr11-esr310,exr/ReadingArea_rsl0-rcl69-esl29-rsm0-rcm44-esm100-rsr0-rcr11-esr310.exr,ReadingArea_rsl0-rcl69-esl29-rsm0-rcm44-esm100-rsr0-rcr11-esr310.npz,,,,,0,148,148,488,,left,green,1.06,822.6587040424347,,,2,,8,4,lightness,readingArea,realistic,75,2023-03-29_13h00.00.806,tripletExp_regina_11082022,2022.2.4,119.9932483657326,
5,2,7,0,1.0,0.298245614035088,0,0.25,0.298245614035088,0,0.111111111111111,1.0,ReadingArea_rsl0-rcl100-esl29-rsm0-rcm25-esm29-rsr0-rcr11-esr100,exr/ReadingArea_rsl0-rcl100-esl29-rsm0-rcm25-esm29-rsr0-rcr11-esr100.exr,ReadingArea_rsl0-rcl100-esl29-rsm0-rcm25-esm29-rsr0-rcr11-esr100.npz,,,,,0,149,149,179,,right,red,1.09,824.8260369300842,,,2,,8,4,lightness,readingArea,realistic,75,2023-03-29_13h00.00.806,tripletExp_regina_11082022,2022.2.4,119.9932483657326,
5,3,4,0,1.0,0.298245614035088,0,0.444444444444444,0.298245614035088,0,0.694444444444444,0.298245614035088,ReadingArea_rsl0-rcl100-esl29-rsm0-rcm44-esm29-rsr0-rcr69-esr29,exr/ReadingArea_rsl0-rcl100-esl29-rsm0-rcm44-esm29-rsr0-rcr69-esr29.exr,ReadingArea_rsl0-rcl100-esl29-rsm0-rcm44-esm29-rsr0-rcr69-esr29.npz,,,,,0,150,150,201,,right,red,2.49,856.788901090622,,,3,,8,4,lightness,readingArea,realistic,75,2023-03-29_13h00.00.806,tripletExp_regina_11082022,2022.2.4,119.9932483657326,
10,8,1,0,0.694444444444444,1.0,0,0.25,1.0,0,0.111111111111111,0.298245614035088,ReadingArea_rsl0-rcl69-esl100-rsm0-rcm25-esm100-rsr0-rcr11-esr29,exr/ReadingArea_rsl0-rcl69-esl100-rsm0-rcm25-esm100-rsr0-rcr11-esr29.exr,ReadingArea_rsl0-rcl69-esl100-rsm0-rcm25-esm100-rsr0-rcr11-esr29.npz,,,,,0,151,151,247,,left,green,2.87,860.7809779644012,,,3,,8,4,lightness,readingArea,realistic,75,2023-03-29_13h00.00.806,tripletExp_regina_11082022,2022.2.4,119.9932483657326,
14,12,9,0,0.25,3.10526315789474,0,0.027777777777778,3.10526315789474,0,0.444444444444444,1.0,ReadingArea_rsl0-rcl25-esl310-rsm0-rcm2-esm310-rsr0-rcr44-esr100,exr/ReadingArea_rsl0-rcl25-esl310-rsm0-rcm2-esm310-rsr0-rcr44-esr100.exr,ReadingArea_rsl0-rcl25-esl310-rsm0-rcm2-esm310-rsr0-rcr44-esr100.npz,,,,,0,152,152,40,,right,red,1.43,862.9879450798035,863.4496228694916,,3,,8,4,lightness,readingArea,realistic,75,2023-03-29_13h00.00.806,tripletExp_regina_11082022,2022.2.4,119.9932483657326,
14,2,1,0,0.25,3.10526315789474,0,0.25,0.298245614035088,0,0.111111111111111,0.298245614035088,ReadingArea_rsl0-rcl25-esl310-rsm0-rcm25-esm29-rsr0-rcr11-esr29,exr/ReadingArea_rsl0-rcl25-esl310-rsm0-rcm25-esm29-rsr0-rcr11-esr29.exr,ReadingArea_rsl0-rcl25-esl310-rsm0-rcm25-esm29-rsr0-rcr11-esr29.npz,,,,,0,153,153,321,,right,red,0.83,865.1664409637451,865.6522450447083,,3,,8,4,lightness,readingArea,realistic,75,2023-03-29_13h00.00.806,tripletExp_regina_11082022,2022.2.4,119.9932483657326,
12,13,7,0,0.027777777777778,3.10526315789474,0,0.111111111111111,3.10526315789474,0,0.111111111111111,1.0,ReadingArea_rsl0-rcl2-esl310-rsm0-rcm11-esm310-rsr0-rcr11-esr100,exr/ReadingArea_rsl0-rcl2-esl310-rsm0-rcm11-esm310-rsr0-rcr11-esr100.exr,ReadingArea_rsl0-rcl2-esl310-rsm0-rcm11-esm310-rsr0-rcr11-esr100.npz,,,,,0,154,154,408,,right,red,3.28,869.1101279258728,869.6616649627686,,3,,8,4,lightness,readingArea,realistic,75,2023-03-29_13h00.00.806,tripletExp_regina_11082022,2022.2.4,119.9932483657326,
12,8,9,0,0.027777777777778,3.10526315789474,0,0.25,1.0,0,0.444444444444444,1.0,ReadingArea_rsl0-rcl2-esl310-rsm0-rcm25-esm100-rsr0-rcr44-esr100,exr/ReadingArea_rsl0-rcl2-esl310-rsm0-rcm25-esm100-rsr0-rcr44-esr100.exr,ReadingArea_rsl0-rcl2-esl310-rsm0-rcm25-esm100-rsr0-rcr44-esr100.npz,,,,,0,155,155,517,,left,green,3.12,873.1310830116272,873.6262810230255,,3,,8,4,lightness,readingArea,realistic,75,2023-03-29_13h00.00.806,tripletExp_regina_11082022,2022.2.4,119.9932483657326,
5,3,6,0,1.0,0.298245614035088,0,0.444444444444444,0.298245614035088,0,0.027777777777778,1.0,ReadingArea_rsl0-rcl100-esl29-rsm0-rcm44-esm29-rsr0-rcr2-esr100,exr/ReadingArea_rsl0-rcl100-esl29-rsm0-rcm44-esm29-rsr0-rcr2-esr100.exr,ReadingArea_rsl0-rcl100-esl29-rsm0-rcm44-esm29-rsr0-rcr2-esr100.npz,,,,,0,156,156,316,,left,green,1.53,875.3184490203857,875.7773509025574,,3,,8,4,lightness,readingArea,realistic,75,2023-03-29_13h00.00.806,tripletExp_regina_11082022,2022.2.4,119.9932483657326,
8,1,14,0,0.25,1.0,0,0.111111111111111,0.298245614035088,0,0.25,3.10526315789474,ReadingArea_rsl0-rcl25-esl100-rsm0-rcm11-esm29-rsr0-rcr25-esr310,exr/ReadingArea_rsl0-rcl25-esl100-rsm0-rcm11-esm29-rsr0-rcr25-esr310.exr,ReadingArea_rsl0-rcl25-esl100-rsm0-rcm11-esm29-rsr0-rcr25-esr310.npz,,,,,0,157,157,500,,left,green,1.35,877.4996430873871,877.9432339668274,,3,,8,4,lightness,readingArea,realistic,75,2023-03-29_13h00.00.806,tripletExp_regina_11082022,2022.2.4,119.9932483657326,
2,14,1,0,0.25,0.298245614035088,0,0.25,3.10526315789474,0,0.111111111111111,0.298245614035088,ReadingArea_rsl0-rcl25-esl29-rsm0-rcm25-esm310-rsr0-rcr11-esr29,exr/ReadingArea_rsl0-rcl25-esl29-rsm0-rcm25-esm310-rsr0-rcr11-esr29.exr,ReadingArea_rsl0-rcl25-esl29-rsm0-rcm25-esm310-rsr0-rcr11-esr29.npz,,,,,0,158,158,579,,left,green,1.47,879.6345338821411,,,3,,8,4,lightness,readingArea,realistic,75,2023-03-29_13h00.00.806,tripletExp_regina_11082022,2022.2.4,119.9932483657326,
9,3,8,0,0.444444444444444,1.0,0,0.444444444444444,0.298245614035088,0,0.25,1.0,ReadingArea_rsl0-rcl44-esl100-rsm0-rcm44-esm29-rsr0-rcr25-esr100,exr/ReadingArea_rsl0-rcl44-esl100-rsm0-rcm44-esm29-rsr0-rcr25-esr100.exr,ReadingArea_rsl0-rcl44-esl100-rsm0-rcm44-esm29-rsr0-rcr25-esr100.npz,,,,,0,159,159,530,,right,red,1.16,881.8149929046631,882.2916979789734,,3,,8,4,lightness,readingArea,realistic,75,2023-03-29_13h00.00.806,tripletExp_regina_11082022,2022.2.4,119.9932483657326,
12,6,8,0,0.027777777777778,3.10526315789474,0,0.027777777777778,1.0,0,0.25,1.0,ReadingArea_rsl0-rcl2-esl310-rsm0-rcm2-esm100-rsr0-rcr25-esr100,exr/ReadingArea_rsl0-rcl2-esl310-rsm0-rcm2-esm100-rsr0-rcr25-esr100.exr,ReadingArea_rsl0-rcl2-esl310-rsm0-rcm2-esm100-rsr0-rcr25-esr100.npz,,,,,0,160,160,540,,left,green,2.5,885.7670340538025,886.3822429180145,,3,,8,4,lightness,readingArea,realistic,75,2023-03-29_13h00.00.806,tripletExp_regina_11082022,2022.2.4,119.9932483657326,
12,3,0,0,0.027777777777778,3.10526315789474,0,0.444444444444444,0.298245614035088,0,0.027777777777778,0.298245614035088,ReadingArea_rsl0-rcl2-esl310-rsm0-rcm44-esm29-rsr0-rcr2-esr29,exr/ReadingArea_rsl0-rcl2-esl310-rsm0-rcm44-esm29-rsr0-rcr2-esr29.exr,ReadingArea_rsl0-rcl2-esl310-rsm0-rcm44-esm29-rsr0-rcr2-esr29.npz,,,,,0,161,161,502,,left,green,1.73,888.0688829421997,,,3,,8,4,lightness,readingArea,realistic,75,2023-03-29_13h00.00.806,tripletExp_regina_11082022,2022.2.4,119.9932483657326,
1,9,11,0,0.111111111111111,0.298245614035088,0,0.444444444444444,1.0,0,1.0,1.0,ReadingArea_rsl0-rcl11-esl29-rsm0-rcm44-esm100-rsr0-rcr100-esr100,exr/ReadingArea_rsl0-rcl11-esl29-rsm0-rcm44-esm100-rsr0-rcr100-esr100.exr,ReadingArea_rsl0-rcl11-esl29-rsm0-rcm44-esm100-rsr0-rcr100-esr100.npz,,,,,0,162,162,215,,right,red,1.34,890.267550945282,890.7609479427338,,3,,8,4,lightness,readingArea,realistic,75,2023-03-29_13h00.00.806,tripletExp_regina_11082022,2022.2.4,119.9932483657326,
14,12,10,0,0.25,3.10526315789474,0,0.027777777777778,3.10526315789474,0,0.694444444444444,1.0,ReadingArea_rsl0-rcl25-esl310-rsm0-rcm2-esm310-rsr0-rcr69-esr100,exr/ReadingArea_rsl0-rcl25-esl310-rsm0-rcm2-esm310-rsr0-rcr69-esr100.exr,ReadingArea_rsl0-rcl25-esl310-rsm0-rcm2-esm310-rsr0-rcr69-esr100.npz,,,,,0,163,163,331,,right,red,4.03,895.9928970336914,896.4707019329071,,3,,8,4,lightness,readingArea,realistic,75,2023-03-29_13h00.00.806,tripletExp_regina_11082022,2022.2.4,119.9932483657326,
12,13,10,0,0.027777777777778,3.10526315789474,0,0.111111111111111,3.10526315789474,0,0.694444444444444,1.0,ReadingArea_rsl0-rcl2-esl310-rsm0-rcm11-esm310-rsr0-rcr69-esr100,exr/ReadingArea_rsl0-rcl2-esl310-rsm0-rcm11-esm310-rsr0-rcr69-esr100.exr,ReadingArea_rsl0-rcl2-esl310-rsm0-rcm11-esm310-rsr0-rcr69-esr100.npz,,,,,0,164,164,295,,right,red,3.15,899.9275009632111,900.3830659389496,,3,,8,4,lightness,readingArea,realistic,75,2023-03-29_13h00.00.806,tripletExp_regina_11082022,2022.2.4,119.9932483657326,
12,6,2,0,0.027777777777778,3.10526315789474,0,0.027777777777778,1.0,0,0.25,0.298245614035088,ReadingArea_rsl0-rcl2-esl310-rsm0-rcm2-esm100-rsr0-rcr25-esr29,exr/ReadingArea_rsl0-rcl2-esl310-rsm0-rcm2-esm100-rsr0-rcr25-esr29.exr,ReadingArea_rsl0-rcl2-esl310-rsm0-rcm2-esm100-rsr0-rcr25-esr29.npz,,,,,0,165,165,106,,left,green,2.94,903.8388249874116,904.3631730079652,,3,,8,4,lightness,readingArea,realistic,75,2023-03-29_13h00.00.806,tripletExp_regina_11082022,2022.2.4,119.9932483657326,
11,13,8,0,1.0,1.0,0,0.111111111111111,3.10526315789474,0,0.25,1.0,ReadingArea_rsl0-rcl100-esl100-rsm0-rcm11-esm310-rsr0-rcr25-esr100,exr/ReadingArea_rsl0-rcl100-esl100-rsm0-rcm11-esm310-rsr0-rcr25-esr100.exr,ReadingArea_rsl0-rcl100-esl100-rsm0-rcm11-esm310-rsr0-rcr25-esr100.npz,,,,,0,166,166,198,,right,red,1.34,906.0591909885406,906.5158500671388,,3,,8,4,lightness,readingArea,realistic,75,2023-03-29_13h00.00.806,tripletExp_regina_11082022,2022.2.4,119.9932483657326,
2,4,14,0,0.25,0.298245614035088,0,0.694444444444444,0.298245614035088,0,0.25,3.10526315789474,ReadingArea_rsl0-rcl25-esl29-rsm0-rcm69-esm29-rsr0-rcr25-esr310,exr/ReadingArea_rsl0-rcl25-esl29-rsm0-rcm69-esm29-rsr0-rcr25-esr310.exr,ReadingArea_rsl0-rcl25-esl29-rsm0-rcm69-esm29-rsr0-rcr25-esr310.npz,,,,,0,167,167,356,,left,green,2.9,909.9722318649292,,,3,,8,4,lightness,readingArea,realistic,75,2023-03-29_13h00.00.806,tripletExp_regina_11082022,2022.2.4,119.9932483657326,
14,5,10,0,0.25,3.10526315789474,0,1.0,0.298245614035088,0,0.694444444444444,1.0,ReadingArea_rsl0-rcl25-esl310-rsm0-rcm100-esm29-rsr0-rcr69-esr100,exr/ReadingArea_rsl0-rcl25-esl310-rsm0-rcm100-esm29-rsr0-rcr69-esr100.exr,ReadingArea_rsl0-rcl25-esl310-rsm0-rcm100-esm29-rsr0-rcr69-esr100.npz,,,,,0,168,168,170,,right,red,2.27,913.9688379764556,914.4537470340728,,3,,8,4,lightness,readingArea,realistic,75,2023-03-29_13h00.00.806,tripletExp_regina_11082022,2022.2.4,119.9932483657326,
8,9,13,0,0.25,1.0,0,0.444444444444444,1.0,0,0.111111111111111,3.10526315789474,ReadingArea_rsl0-rcl25-esl100-rsm0-rcm44-esm100-rsr0-rcr11-esr310,exr/ReadingArea_rsl0-rcl25-esl100-rsm0-rcm44-esm100-rsr0-rcr11-esr310.exr,ReadingArea_rsl0-rcl25-esl100-rsm0-rcm44-esm100-rsr0-rcr11-esr310.npz,,,,,0,169,169,519,,left,green,3.07,917.931519985199,,,3,,8,4,lightness,readingArea,realistic,75,2023-03-29_13h00.00.806,tripletExp_regina_11082022,2022.2.4,119.9932483657326,
12,6,9,0,0.027777777777778,3.10526315789474,0,0.027777777777778,1.0,0,0.444444444444444,1.0,ReadingArea_rsl0-rcl2-esl310-rsm0-rcm2-esm100-rsr0-rcr44-esr100,exr/ReadingArea_rsl0-rcl2-esl310-rsm0-rcm2-esm100-rsr0-rcr44-esr100.exr,ReadingArea_rsl0-rcl2-esl310-rsm0-rcm2-esm100-rsr0-rcr44-esr100.npz,,,,,0,170,170,177,,left,green,2.37,921.8859889507294,922.3561780452728,,3,,8,4,lightness,readingArea,realistic,75,2023-03-29_13h00.00.806,tripletExp_regina_11082022,2022.2.4,119.9932483657326,
14,4,7,0,0.25,3.10526315789474,0,0.694444444444444,0.298245614035088,0,0.111111111111111,1.0,ReadingArea_rsl0-rcl25-esl310-rsm0-rcm69-esm29-rsr0-rcr11-esr100,exr/ReadingArea_rsl0-rcl25-esl310-rsm0-rcm69-esm29-rsr0-rcr11-esr100.exr,ReadingArea_rsl0-rcl25-esl310-rsm0-rcm69-esm29-rsr0-rcr11-esr100.npz,,,,,0,171,171,136,,right,red,2.48,925.8274550437928,926.44375705719,,3,,8,4,lightness,readingArea,realistic,75,2023-03-29_13h00.00.806,tripletExp_regina_11082022,2022.2.4,119.9932483657326,
13,7,11,0,0.111111111111111,3.10526315789474,0,0.111111111111111,1.0,0,1.0,1.0,ReadingArea_rsl0-rcl11-esl310-rsm0-rcm11-esm100-rsr0-rcr100-esr100,exr/ReadingArea_rsl0-rcl11-esl310-rsm0-rcm11-esm100-rsr0-rcr100-esr100.exr,ReadingArea_rsl0-rcl11-esl310-rsm0-rcm11-esm100-rsr0-rcr100-esr100.npz,,,,,0,172,172,121,,left,green,2.54,929.8953769207,930.3658339977264,,3,,8,4,lightness,readingArea,realistic,75,2023-03-29_13h00.00.806,tripletExp_regina_11082022,2022.2.4,119.9932483657326,
4,14,12,0,0.694444444444444,0.298245614035088,0,0.25,3.10526315789474,0,0.027777777777778,3.10526315789474,ReadingArea_rsl0-rcl69-esl29-rsm0-rcm25-esm310-rsr0-rcr2-esr310,exr/ReadingArea_rsl0-rcl69-esl29-rsm0-rcm25-esm310-rsr0-rcr2-esr310.exr,ReadingArea_rsl0-rcl69-esl29-rsm0-rcm25-esm310-rsr0-rcr2-esr310.npz,,,,,0,173,173,392,,left,green,2.81,933.8457250595092,934.334466934204,,3,,8,4,lightness,readingArea,realistic,75,2023-03-29_13h00.00.806,tripletExp_regina_11082022,2022.2.4,119.9932483657326,
3,10,4,0,0.444444444444444,0.298245614035088,0,0.694444444444444,1.0,0,0.694444444444444,0.298245614035088,ReadingArea_rsl0-rcl44-esl29-rsm0-rcm69-esm100-rsr0-rcr69-esr29,exr/ReadingArea_rsl0-rcl44-esl29-rsm0-rcm69-esm100-rsr0-rcr69-esr29.exr,ReadingArea_rsl0-rcl44-esl29-rsm0-rcm69-esm100-rsr0-rcr69-esr29.npz,,,,,0,174,174,435,,right,red,1.37,936.0301818847656,936.4985899925232,,3,,8,4,lightness,readingArea,realistic,75,2023-03-29_13h00.00.806,tripletExp_regina_11082022,2022.2.4,119.9932483657326,
9,11,13,0,0.444444444444444,1.0,0,1.0,1.0,0,0.111111111111111,3.10526315789474,ReadingArea_rsl0-rcl44-esl100-rsm0-rcm100-esm100-rsr0-rcr11-esr310,exr/ReadingArea_rsl0-rcl44-esl100-rsm0-rcm100-esm100-rsr0-rcr11-esr310.exr,ReadingArea_rsl0-rcl44-esl100-rsm0-rcm100-esm100-rsr0-rcr11-esr310.npz,,,,,0,175,175,254,,left,green,2.31,939.9800469875336,940.4774298667908,,3,,8,4,lightness,readingArea,realistic,75,2023-03-29_13h00.00.806,tripletExp_regina_11082022,2022.2.4,119.9932483657326,
4,13,2,0,0.694444444444444,0.298245614035088,0,0.111111111111111,3.10526315789474,0,0.25,0.298245614035088,ReadingArea_rsl0-rcl69-esl29-rsm0-rcm11-esm310-rsr0-rcr25-esr29,exr/ReadingArea_rsl0-rcl69-esl29-rsm0-rcm11-esm310-rsr0-rcr25-esr29.exr,ReadingArea_rsl0-rcl69-esl29-rsm0-rcm11-esm310-rsr0-rcr25-esr29.npz,,,,,0,176,176,592,,right,red,3.02,943.9409499168396,944.4211480617524,,3,,8,4,lightness,readingArea,realistic,75,2023-03-29_13h00.00.806,tripletExp_regina_11082022,2022.2.4,119.9932483657326,
4,2,5,0,0.694444444444444,0.298245614035088,0,0.25,0.298245614035088,0,1.0,0.298245614035088,ReadingArea_rsl0-rcl69-esl29-rsm0-rcm25-esm29-rsr0-rcr100-esr29,exr/ReadingArea_rsl0-rcl69-esl29-rsm0-rcm25-esm29-rsr0-rcr100-esr29.exr,ReadingArea_rsl0-rcl69-esl29-rsm0-rcm25-esm29-rsr0-rcr100-esr29.npz,,,,,0,177,177,101,,left,green,1.03,946.1166970729828,946.6498630046844,,3,,8,4,lightness,readingArea,realistic,75,2023-03-29_13h00.00.806,tripletExp_regina_11082022,2022.2.4,119.9932483657326,
9,11,2,0,0.444444444444444,1.0,0,1.0,1.0,0,0.25,0.298245614035088,ReadingArea_rsl0-rcl44-esl100-rsm0-rcm100-esm100-rsr0-rcr25-esr29,exr/ReadingArea_rsl0-rcl44-esl100-rsm0-rcm100-esm100-rsr0-rcr25-esr29.exr,ReadingArea_rsl0-rcl44-esl100-rsm0-rcm100-esm100-rsr0-rcr25-esr29.npz,,,,,0,178,178,329,,left,green,1.36,948.350790977478,948.824872970581,,3,,8,4,lightness,readingArea,realistic,75,2023-03-29_13h00.00.806,tripletExp_regina_11082022,2022.2.4,119.9932483657326,
2,3,6,0,0.25,0.298245614035088,0,0.444444444444444,0.298245614035088,0,0.027777777777778,1.0,ReadingArea_rsl0-rcl25-esl29-rsm0-rcm44-esm29-rsr0-rcr2-esr100,exr/ReadingArea_rsl0-rcl25-esl29-rsm0-rcm44-esm29-rsr0-rcr2-esr100.exr,ReadingArea_rsl0-rcl25-esl29-rsm0-rcm44-esm29-rsr0-rcr2-esr100.npz,,,,,0,179,179,357,,left,green,2.13,952.2709519863128,,,3,,8,4,lightness,readingArea,realistic,75,2023-03-29_13h00.00.806,tripletExp_regina_11082022,2022.2.4,119.9932483657326,
11,1,4,0,1.0,1.0,0,0.111111111111111,0.298245614035088,0,0.694444444444444,0.298245614035088,ReadingArea_rsl0-rcl100-esl100-rsm0-rcm11-esm29-rsr0-rcr69-esr29,exr/ReadingArea_rsl0-rcl100-esl100-rsm0-rcm11-esm29-rsr0-rcr69-esr29.exr,ReadingArea_rsl0-rcl100-esl100-rsm0-rcm11-esm29-rsr0-rcr69-esr29.npz,,,,,0,180,180,110,,right,red,1.63,954.546303987503,,,3,,8,4,lightness,readingArea,realistic,75,2023-03-29_13h00.00.806,tripletExp_regina_11082022,2022.2.4,119.9932483657326,
4,8,14,0,0.694444444444444,0.298245614035088,0,0.25,1.0,0,0.25,3.10526315789474,ReadingArea_rsl0-rcl69-esl29-rsm0-rcm25-esm100-rsr0-rcr25-esr310,exr/ReadingArea_rsl0-rcl69-esl29-rsm0-rcm25-esm100-rsr0-rcr25-esr310.exr,ReadingArea_rsl0-rcl69-esl29-rsm0-rcm25-esm100-rsr0-rcr25-esr310.npz,,,,,0,181,181,234,,left,green,1.35,956.7362489700316,957.2266490459442,,3,,8,4,lightness,readingArea,realistic,75,2023-03-29_13h00.00.806,tripletExp_regina_11082022,2022.2.4,119.9932483657326,
12,9,11,0,0.027777777777778,3.10526315789474,0,0.444444444444444,1.0,0,1.0,1.0,ReadingArea_rsl0-rcl2-esl310-rsm0-rcm44-esm100-rsr0-rcr100-esr100,exr/ReadingArea_rsl0-rcl2-esl310-rsm0-rcm44-esm100-rsr0-rcr100-esr100.exr,ReadingArea_rsl0-rcl2-esl310-rsm0-rcm44-esm100-rsr0-rcr100-esr100.npz,,,,,0,182,182,18,,left,green,4.37,962.446830034256,962.9263138771056,,3,,8,4,lightness,readingArea,realistic,75,2023-03-29_13h00.00.806,tripletExp_regina_11082022,2022.2.4,119.9932483657326,
9,7,10,0,0.444444444444444,1.0,0,0.111111111111111,1.0,0,0.694444444444444,1.0,ReadingArea_rsl0-rcl44-esl100-rsm0-rcm11-esm100-rsr0-rcr69-esr100,exr/ReadingArea_rsl0-rcl44-esl100-rsm0-rcm11-esm100-rsr0-rcr69-esr100.exr,ReadingArea_rsl0-rcl44-esl100-rsm0-rcm11-esm100-rsr0-rcr69-esr100.npz,,,,,0,183,183,508,,left,green,2.28,966.397185087204,966.8613140583038,,3,,8,4,lightness,readingArea,realistic,75,2023-03-29_13h00.00.806,tripletExp_regina_11082022,2022.2.4,119.9932483657326,
1,12,10,0,0.111111111111111,0.298245614035088,0,0.027777777777778,3.10526315789474,0,0.694444444444444,1.0,ReadingArea_rsl0-rcl11-esl29-rsm0-rcm2-esm310-rsr0-rcr69-esr100,exr/ReadingArea_rsl0-rcl11-esl29-rsm0-rcm2-esm310-rsr0-rcr69-esr100.exr,ReadingArea_rsl0-rcl11-esl29-rsm0-rcm2-esm310-rsr0-rcr69-esr100.npz,,,,,0,184,184,567,,left,green,0.96,968.55278301239,969.0342299938202,,3,,8,4,lightness,readingArea,realistic,75,2023-03-29_13h00.00.806,tripletExp_regina_11082022,2022.2.4,119.9932483657326,
5,10,12,0,1.0,0.298245614035088,0,0.694444444444444,1.0,0,0.027777777777778,3.10526315789474,ReadingArea_rsl0-rcl100-esl29-rsm0-rcm69-esm100-rsr0-rcr2-esr310,exr/ReadingArea_rsl0-rcl100-esl29-rsm0-rcm69-esm100-rsr0-rcr2-esr310.exr,ReadingArea_rsl0-rcl100-esl29-rsm0-rcm69-esm100-rsr0-rcr2-esr310.npz,,,,,0,185,185,587,,left,green,1.24,970.7457349300385,971.2308158874512,,3,,8,4,lightness,readingArea,realistic,75,2023-03-29_13h00.00.806,tripletExp_regina_11082022,2022.2.4,119.9932483657326,
14,2,7,0,0.25,3.10526315789474,0,0.25,0.298245614035088,0,0.111111111111111,1.0,ReadingArea_rsl0-rcl25-esl310-rsm0-rcm25-esm29-rsr0-rcr11-esr100,exr/ReadingArea_rsl0-rcl25-esl310-rsm0-rcm25-esm29-rsr0-rcr11-esr100.exr,ReadingArea_rsl0-rcl25-esl310-rsm0-rcm25-esm29-rsr0-rcr11-esr100.npz,,,,,0,186,186,569,,right,red,0.94,972.9294829368592,973.4997658729552,,3,,8,4,lightness,readingArea,realistic,75,2023-03-29_13h00.00.806,tripletExp_regina_11082022,2022.2.4,119.9932483657326,
2,9,12,0,0.25,0.298245614035088,0,0.444444444444444,1.0,0,0.027777777777778,3.10526315789474,ReadingArea_rsl0-rcl25-esl29-rsm0-rcm44-esm100-rsr0-rcr2-esr310,exr/ReadingArea_rsl0-rcl25-esl29-rsm0-rcm44-esm100-rsr0-rcr2-esr310.exr,ReadingArea_rsl0-rcl25-esl29-rsm0-rcm44-esm100-rsr0-rcr2-esr310.npz,,,,,0,187,187,354,,right,red,4.51,978.7371509075164,979.2268099784852,,3,,8,4,lightness,readingArea,realistic,75,2023-03-29_13h00.00.806,tripletExp_regina_11082022,2022.2.4,119.9932483657326,
14,13,6,0,0.25,3.10526315789474,0,0.111111111111111,3.10526315789474,0,0.027777777777778,1.0,ReadingArea_rsl0-rcl25-esl310-rsm0-rcm11-esm310-rsr0-rcr2-esr100,exr/ReadingArea_rsl0-rcl25-esl310-rsm0-rcm11-esm310-rsr0-rcr2-esr100.exr,ReadingArea_rsl0-rcl25-esl310-rsm0-rcm11-esm310-rsr0-rcr2-esr100.npz,,,,,0,188,188,102,,left,green,1.39,980.9269800186156,981.395397901535,,3,,8,4,lightness,readingArea,realistic,75,2023-03-29_13h00.00.806,tripletExp_regina_11082022,2022.2.4,119.9932483657326,
10,14,4,0,0.694444444444444,1.0,0,0.25,3.10526315789474,0,0.694444444444444,0.298245614035088,ReadingArea_rsl0-rcl69-esl100-rsm0-rcm25-esm310-rsr0-rcr69-esr29,exr/ReadingArea_rsl0-rcl69-esl100-rsm0-rcm25-esm310-rsr0-rcr69-esr29.exr,ReadingArea_rsl0-rcl69-esl100-rsm0-rcm25-esm310-rsr0-rcr69-esr29.npz,,,,,0,189,189,267,,left,green,1.41,983.0920839309692,,,3,,8,4,lightness,readingArea,realistic,75,2023-03-29_13h00.00.806,tripletExp_regina_11082022,2022.2.4,119.9932483657326,
4,2,9,0,0.694444444444444,0.298245614035088,0,0.25,0.298245614035088,0,0.444444444444444,1.0,ReadingArea_rsl0-rcl69-esl29-rsm0-rcm25-esm29-rsr0-rcr44-esr100,exr/ReadingArea_rsl0-rcl69-esl29-rsm0-rcm25-esm29-rsr0-rcr44-esr100.exr,ReadingArea_rsl0-rcl69-esl29-rsm0-rcm25-esm29-rsr0-rcr44-esr100.npz,,,,,0,190,190,479,,left,green,1.51,985.4046590328217,985.8855628967284,,3,,8,4,lightness,readingArea,realistic,75,2023-03-29_13h00.00.806,tripletExp_regina_11082022,2022.2.4,119.9932483657326,
13,10,7,0,0.111111111111111,3.10526315789474,0,0.694444444444444,1.0,0,0.111111111111111,1.0,ReadingArea_rsl0-rcl11-esl310-rsm0-rcm69-esm100-rsr0-rcr11-esr100,exr/ReadingArea_rsl0-rcl11-esl310-rsm0-rcm69-esm100-rsr0-rcr11-esr100.exr,ReadingArea_rsl0-rcl11-esl310-rsm0-rcm69-esm100-rsr0-rcr11-esr100.npz,,,,,0,191,191,385,,left,green,3.16,989.3676269054412,989.84125995636,,3,,8,4,lightness,readingArea,realistic,75,2023-03-29_13h00.00.806,tripletExp_regina_11082022,2022.2.4,119.9932483657326,
0,8,12,0,0.027777777777778,0.298245614035088,0,0.25,1.0,0,0.027777777777778,3.10526315789474,ReadingArea_rsl0-rcl2-esl29-rsm0-rcm25-esm100-rsr0-rcr2-esr310,exr/ReadingArea_rsl0-rcl2-esl29-rsm0-rcm25-esm100-rsr0-rcr2-esr310.exr,ReadingArea_rsl0-rcl2-esl29-rsm0-rcm25-esm100-rsr0-rcr2-esr310.npz,,,,,0,192,192,314,,right,red,2.78,993.324786901474,993.9145169258118,,3,,8,4,lightness,readingArea,realistic,75,2023-03-29_13h00.00.806,tripletExp_regina_11082022,2022.2.4,119.9932483657326,
10,3,0,0,0.694444444444444,1.0,0,0.444444444444444,0.298245614035088,0,0.027777777777778,0.298245614035088,ReadingArea_rsl0-rcl69-esl100-rsm0-rcm44-esm29-rsr0-rcr2-esr29,exr/ReadingArea_rsl0-rcl69-esl100-rsm0-rcm44-esm29-rsr0-rcr2-esr29.exr,ReadingArea_rsl0-rcl69-esl100-rsm0-rcm44-esm29-rsr0-rcr2-esr29.npz,,,,,0,193,193,203,,left,green,3.38,997.3716678619384,997.8657989501952,,3,,8,4,lightness,readingArea,realistic,75,2023-03-29_13h00.00.806,tripletExp_regina_11082022,2022.2.4,119.9932483657326,
2,9,11,0,0.25,0.298245614035088,0,0.444444444444444,1.0,0,1.0,1.0,ReadingArea_rsl0-rcl25-esl29-rsm0-rcm44-esm100-rsr0-rcr100-esr100,exr/ReadingArea_rsl0-rcl25-esl29-rsm0-rcm44-esm100-rsr0-rcr100-esr100.exr,ReadingArea_rsl0-rcl25-esl29-rsm0-rcm44-esm100-rsr0-rcr100-esr100.npz,,,,,0,194,194,164,,left,green,3.08,1001.3193600177764,1001.7957708835602,,3,,8,4,lightness,readingArea,realistic,75,2023-03-29_13h00.00.806,tripletExp_regina_11082022,2022.2.4,119.9932483657326,
3,8,7,0,0.444444444444444,0.298245614035088,0,0.25,1.0,0,0.111111111111111,1.0,ReadingArea_rsl0-rcl44-esl29-rsm0-rcm25-esm100-rsr0-rcr11-esr100,exr/ReadingArea_rsl0-rcl44-esl29-rsm0-rcm25-esm100-rsr0-rcr11-esr100.exr,ReadingArea_rsl0-rcl44-esl29-rsm0-rcm25-esm100-rsr0-rcr11-esr100.npz,,,,,0,195,195,484,,right,red,3.05,1005.2615330219268,1005.7475838661194,,3,,8,4,lightness,readingArea,realistic,75,2023-03-29_13h00.00.806,tripletExp_regina_11082022,2022.2.4,119.9932483657326,
7,10,5,0,0.111111111111111,1.0,0,0.694444444444444,1.0,0,1.0,0.298245614035088,ReadingArea_rsl0-rcl11-esl100-rsm0-rcm69-esm100-rsr0-rcr100-esr29,exr/ReadingArea_rsl0-rcl11-esl100-rsm0-rcm69-esm100-rsr0-rcr100-esr29.exr,ReadingArea_rsl0-rcl11-esl100-rsm0-rcm69-esm100-rsr0-rcr100-esr29.npz,,,,,0,196,196,395,,right,red,1.51,1007.4402740001678,1007.9139080047609,,3,,8,4,lightness,readingArea,realistic,75,2023-03-29_13h00.00.806,tripletExp_regina_11082022,2022.2.4,119.9932483657326,
1,12,0,0,0.111111111111111,0.298245614035088,0,0.027777777777778,3.10526315789474,0,0.027777777777778,0.298245614035088,ReadingArea_rsl0-rcl11-esl29-rsm0-rcm2-esm310-rsr0-rcr2-esr29,exr/ReadingArea_rsl0-rcl11-esl29-rsm0-rcm2-esm310-rsr0-rcr2-esr29.exr,ReadingArea_rsl0-rcl11-esl29-rsm0-rcm2-esm310-rsr0-rcr2-esr29.npz,,,,,0,197,197,113,,left,green,2.77,1011.367866039276,1011.8495299816132,,3,,8,4,lightness,readingArea,realistic,75,2023-03-29_13h00.00.806,tripletExp_regina_11082022,2022.2.4,119.9932483657326,
1,10,7,0,0.111111111111111,0.298245614035088,0,0.694444444444444,1.0,0,0.111111111111111,1.0,ReadingArea_rsl0-rcl11-esl29-rsm0-rcm69-esm100-rsr0-rcr11-esr100,exr/ReadingArea_rsl0-rcl11-esl29-rsm0-rcm69-esm100-rsr0-rcr11-esr100.exr,ReadingArea_rsl0-rcl11-esl29-rsm0-rcm69-esm100-rsr0-rcr11-esr100.npz,,,,,0,198,198,94,,right,red,2.65,1015.334300994873,1015.8096249103546,,3,,8,4,lightness,readingArea,realistic,75,2023-03-29_13h00.00.806,tripletExp_regina_11082022,2022.2.4,119.9932483657326,
11,5,1,0,1.0,1.0,0,1.0,0.298245614035088,0,0.111111111111111,0.298245614035088,ReadingArea_rsl0-rcl100-esl100-rsm0-rcm100-esm29-rsr0-rcr11-esr29,exr/ReadingArea_rsl0-rcl100-esl100-rsm0-rcm100-esm29-rsr0-rcr11-esr29.exr,ReadingArea_rsl0-rcl100-esl100-rsm0-rcm100-esm29-rsr0-rcr11-esr29.npz,,,,,0,199,199,48,,left,green,1.43,1017.522022008896,1017.9936718940736,,3,,8,4,lightness,readingArea,realistic,75,2023-03-29_13h00.00.806,tripletExp_regina_11082022,2022.2.4,119.9932483657326,
9,6,11,0,0.444444444444444,1.0,0,0.027777777777778,1.0,0,1.0,1.0,ReadingArea_rsl0-rcl44-esl100-rsm0-rcm2-esm100-rsr0-rcr100-esr100,exr/ReadingArea_rsl0-rcl44-esl100-rsm0-rcm2-esm100-rsr0-rcr100-esr100.exr,ReadingArea_rsl0-rcl44-esl100-rsm0-rcm2-esm100-rsr0-rcr100-esr100.npz,,,,,0,200,200,572,,left,green,3.0,1021.460114955902,1021.9566888809204,,3,,8,4,lightness,readingArea,realistic,75,2023-03-29_13h00.00.806,tripletExp_regina_11082022,2022.2.4,119.9932483657326,
11,12,4,0,1.0,1.0,0,0.027777777777778,3.10526315789474,0,0.694444444444444,0.298245614035088,ReadingArea_rsl0-rcl100-esl100-rsm0-rcm2-esm310-rsr0-rcr69-esr29,exr/ReadingArea_rsl0-rcl100-esl100-rsm0-rcm2-esm310-rsr0-rcr69-esr29.exr,ReadingArea_rsl0-rcl100-esl100-rsm0-rcm2-esm310-rsr0-rcr69-esr29.npz,,,,,0,201,201,250,,right,red,3.06,1025.430517911911,1025.9236040115356,,3,,8,4,lightness,readingArea,realistic,75,2023-03-29_13h00.00.806,tripletExp_regina_11082022,2022.2.4,119.9932483657326,
8,1,10,0,0.25,1.0,0,0.111111111111111,0.298245614035088,0,0.694444444444444,1.0,ReadingArea_rsl0-rcl25-esl100-rsm0-rcm11-esm29-rsr0-rcr69-esr100,exr/ReadingArea_rsl0-rcl25-esl100-rsm0-rcm11-esm29-rsr0-rcr69-esr100.exr,ReadingArea_rsl0-rcl25-esl100-rsm0-rcm11-esm29-rsr0-rcr69-esr100.npz,,,,,0,202,202,442,,left,green,3.03,1029.4070270061493,1029.9040639400482,,3,,8,4,lightness,readingArea,realistic,75,2023-03-29_13h00.00.806,tripletExp_regina_11082022,2022.2.4,119.9932483657326,
1,8,12,0,0.111111111111111,0.298245614035088,0,0.25,1.0,0,0.027777777777778,3.10526315789474,ReadingArea_rsl0-rcl11-esl29-rsm0-rcm25-esm100-rsr0-rcr2-esr310,exr/ReadingArea_rsl0-rcl11-esl29-rsm0-rcm25-esm100-rsr0-rcr2-esr310.exr,ReadingArea_rsl0-rcl11-esl29-rsm0-rcm25-esm100-rsr0-rcr2-esr310.npz,,,,,0,203,203,156,,right,red,2.17,1033.3967130184174,1033.8700878620148,,3,,8,4,lightness,readingArea,realistic,75,2023-03-29_13h00.00.806,tripletExp_regina_11082022,2022.2.4,119.9932483657326,
