index_left,index_middle,index_right,reflectance_surround_left,reflectance_center_left,emission_spot_left,reflectance_surround_middle,reflectance_center_middle,emission_spot_middle,reflectance_surround_right,reflectance_center_right,emission_spot_right,ImageName,ImageExr,ImageNpy,trials_2.thisRepN,trials_2.thisTrialN,trials_2.thisN,trials_2.thisIndex,trials.thisRepN,trials.thisTrialN,trials.thisN,trials.thisIndex,sound_1.started,BB_Trial.resp,BB_Trial.color,BB_Trial.rt,text.started,text.stopped,block,sound_4.started,participant,session,L/B,scene,condition,nTrialsPerBlock,date,expName,psychopyVersion,frameRate,Unnamed: 41
7,13,5,2,0.111111111111111,1.0,2,0.111111111111111,3.10526315789474,2,1.0,0.298245614035088,ReadingArea_rsl2-rcl11-esl100-rsm2-rcm11-esm310-rsr2-rcr100-esr29,exr/ReadingArea_rsl2-rcl11-esl100-rsm2-rcm11-esm310-rsr2-rcr100-esr29.exr,ReadingArea_rsl2-rcl11-esl100-rsm2-rcm11-esm310-rsr2-rcr100-esr29.npz,,,,,0,0,0,332,169.28769519329072,right,red,1.34,176.8481240272522,169.9639880657196,1,,3,2,lightness,readingArea,realistic,75,2023-03-17_13h40.15.956,tripletExp_regina_11082022,2022.2.4,119.99496481089432,
4,10,6,2,0.694444444444444,0.298245614035088,2,0.694444444444444,1.0,2,0.027777777777778,1.0,ReadingArea_rsl2-rcl69-esl29-rsm2-rcm69-esm100-rsr2-rcr2-esr100,exr/ReadingArea_rsl2-rcl69-esl29-rsm2-rcm69-esm100-rsr2-rcr2-esr100.exr,ReadingArea_rsl2-rcl69-esl29-rsm2-rcm69-esm100-rsr2-rcr2-esr100.npz,,,,,0,1,1,468,,left,green,0.65,178.92347407341003,,1,,3,2,lightness,readingArea,realistic,75,2023-03-17_13h40.15.956,tripletExp_regina_11082022,2022.2.4,119.99496481089432,
2,0,13,2,0.25,0.298245614035088,2,0.027777777777778,0.298245614035088,2,0.111111111111111,3.10526315789474,ReadingArea_rsl2-rcl25-esl29-rsm2-rcm2-esm29-rsr2-rcr11-esr310,exr/ReadingArea_rsl2-rcl25-esl29-rsm2-rcm2-esm29-rsr2-rcr11-esr310.exr,ReadingArea_rsl2-rcl25-esl29-rsm2-rcm2-esm29-rsr2-rcr11-esr310.npz,,,,,0,2,2,50,,left,green,1.04,180.9820711612701,,1,,3,2,lightness,readingArea,realistic,75,2023-03-17_13h40.15.956,tripletExp_regina_11082022,2022.2.4,119.99496481089432,
3,13,12,2,0.444444444444444,0.298245614035088,2,0.111111111111111,3.10526315789474,2,0.027777777777778,3.10526315789474,ReadingArea_rsl2-rcl44-esl29-rsm2-rcm11-esm310-rsr2-rcr2-esr310,exr/ReadingArea_rsl2-rcl44-esl29-rsm2-rcm11-esm310-rsr2-rcr2-esr310.exr,ReadingArea_rsl2-rcl44-esl29-rsm2-rcm11-esm310-rsr2-rcr2-esr310.npz,,,,,0,3,3,34,,left,green,2.36,184.80405402183533,185.1505901813507,1,,3,2,lightness,readingArea,realistic,75,2023-03-17_13h40.15.956,tripletExp_regina_11082022,2022.2.4,119.99496481089432,
8,1,14,2,0.25,1.0,2,0.111111111111111,0.298245614035088,2,0.25,3.10526315789474,ReadingArea_rsl2-rcl25-esl100-rsm2-rcm11-esm29-rsr2-rcr25-esr310,exr/ReadingArea_rsl2-rcl25-esl100-rsm2-rcm11-esm29-rsr2-rcr25-esr310.exr,ReadingArea_rsl2-rcl25-esl100-rsm2-rcm11-esm29-rsr2-rcr25-esr310.npz,,,,,0,4,4,500,,left,green,1.41,186.85505199432373,187.2058720588684,1,,3,2,lightness,readingArea,realistic,75,2023-03-17_13h40.15.956,tripletExp_regina_11082022,2022.2.4,119.99496481089432,
4,1,3,2,0.694444444444444,0.298245614035088,2,0.111111111111111,0.298245614035088,2,0.444444444444444,0.298245614035088,ReadingArea_rsl2-rcl69-esl29-rsm2-rcm11-esm29-rsr2-rcr44-esr29,exr/ReadingArea_rsl2-rcl69-esl29-rsm2-rcm11-esm29-rsr2-rcr44-esr29.exr,ReadingArea_rsl2-rcl69-esl29-rsm2-rcm11-esm29-rsr2-rcr44-esr29.npz,,,,,0,5,5,70,,right,red,1.39,188.9267179965973,189.27935218811035,1,,3,2,lightness,readingArea,realistic,75,2023-03-17_13h40.15.956,tripletExp_regina_11082022,2022.2.4,119.99496481089432,
2,4,10,2,0.25,0.298245614035088,2,0.694444444444444,0.298245614035088,2,0.694444444444444,1.0,ReadingArea_rsl2-rcl25-esl29-rsm2-rcm69-esm29-rsr2-rcr69-esr100,exr/ReadingArea_rsl2-rcl25-esl29-rsm2-rcm69-esm29-rsr2-rcr69-esr100.exr,ReadingArea_rsl2-rcl25-esl29-rsm2-rcm69-esm29-rsr2-rcr69-esr100.npz,,,,,0,6,6,174,,left,green,1.4,190.96704721450809,,1,,3,2,lightness,readingArea,realistic,75,2023-03-17_13h40.15.956,tripletExp_regina_11082022,2022.2.4,119.99496481089432,
13,0,4,2,0.111111111111111,3.10526315789474,2,0.027777777777778,0.298245614035088,2,0.694444444444444,0.298245614035088,ReadingArea_rsl2-rcl11-esl310-rsm2-rcm2-esm29-rsr2-rcr69-esr29,exr/ReadingArea_rsl2-rcl11-esl310-rsm2-rcm2-esm29-rsr2-rcr69-esr29.exr,ReadingArea_rsl2-rcl11-esl310-rsm2-rcm2-esm29-rsr2-rcr69-esr29.npz,,,,,0,7,7,270,,right,red,1.69,193.019198179245,193.37991213798523,1,,3,2,lightness,readingArea,realistic,75,2023-03-17_13h40.15.956,tripletExp_regina_11082022,2022.2.4,119.99496481089432,
13,3,14,2,0.111111111111111,3.10526315789474,2,0.444444444444444,0.298245614035088,2,0.25,3.10526315789474,ReadingArea_rsl2-rcl11-esl310-rsm2-rcm44-esm29-rsr2-rcr25-esr310,exr/ReadingArea_rsl2-rcl11-esl310-rsm2-rcm44-esm29-rsr2-rcr25-esr310.exr,ReadingArea_rsl2-rcl11-esl310-rsm2-rcm44-esm29-rsr2-rcr25-esr310.npz,,,,,0,8,8,38,,left,green,1.88,196.8354320526123,197.1831181049347,1,,3,2,lightness,readingArea,realistic,75,2023-03-17_13h40.15.956,tripletExp_regina_11082022,2022.2.4,119.99496481089432,
11,7,12,2,1.0,1.0,2,0.111111111111111,1.0,2,0.027777777777778,3.10526315789474,ReadingArea_rsl2-rcl100-esl100-rsm2-rcm11-esm100-rsr2-rcr2-esr310,exr/ReadingArea_rsl2-rcl100-esl100-rsm2-rcm11-esm100-rsr2-rcr2-esr310.exr,ReadingArea_rsl2-rcl100-esl100-rsm2-rcm11-esm100-rsr2-rcr2-esr310.npz,,,,,0,9,9,352,,right,red,2.23,200.66708517074585,201.06433200836184,1,,3,2,lightness,readingArea,realistic,75,2023-03-17_13h40.15.956,tripletExp_regina_11082022,2022.2.4,119.99496481089432,
1,9,7,2,0.111111111111111,0.298245614035088,2,0.444444444444444,1.0,2,0.111111111111111,1.0,ReadingArea_rsl2-rcl11-esl29-rsm2-rcm44-esm100-rsr2-rcr11-esr100,exr/ReadingArea_rsl2-rcl11-esl29-rsm2-rcm44-esm100-rsr2-rcr11-esr100.exr,ReadingArea_rsl2-rcl11-esl29-rsm2-rcm44-esm100-rsr2-rcr11-esr100.npz,,,,,0,10,10,397,,right,red,1.03,202.7796740531921,203.13161516189567,1,,3,2,lightness,readingArea,realistic,75,2023-03-17_13h40.15.956,tripletExp_regina_11082022,2022.2.4,119.99496481089432,
9,0,11,2,0.444444444444444,1.0,2,0.027777777777778,0.298245614035088,2,1.0,1.0,ReadingArea_rsl2-rcl44-esl100-rsm2-rcm2-esm29-rsr2-rcr100-esr100,exr/ReadingArea_rsl2-rcl44-esl100-rsm2-rcm2-esm29-rsr2-rcr100-esr100.exr,ReadingArea_rsl2-rcl44-esl100-rsm2-rcm2-esm29-rsr2-rcr100-esr100.npz,,,,,0,11,11,319,,left,green,1.48,204.8416771888733,205.18830013275144,1,,3,2,lightness,readingArea,realistic,75,2023-03-17_13h40.15.956,tripletExp_regina_11082022,2022.2.4,119.99496481089432,
11,2,4,2,1.0,1.0,2,0.25,0.298245614035088,2,0.694444444444444,0.298245614035088,ReadingArea_rsl2-rcl100-esl100-rsm2-rcm25-esm29-rsr2-rcr69-esr29,exr/ReadingArea_rsl2-rcl100-esl100-rsm2-rcm25-esm29-rsr2-rcr69-esr29.exr,ReadingArea_rsl2-rcl100-esl100-rsm2-rcm25-esm29-rsr2-rcr69-esr29.npz,,,,,0,12,12,359,,right,red,3.29,208.6549780368805,208.9922502040863,1,,3,2,lightness,readingArea,realistic,75,2023-03-17_13h40.15.956,tripletExp_regina_11082022,2022.2.4,119.99496481089432,
14,9,12,2,0.25,3.10526315789474,2,0.444444444444444,1.0,2,0.027777777777778,3.10526315789474,ReadingArea_rsl2-rcl25-esl310-rsm2-rcm44-esm100-rsr2-rcr2-esr310,exr/ReadingArea_rsl2-rcl25-esl310-rsm2-rcm44-esm100-rsr2-rcr2-esr310.exr,ReadingArea_rsl2-rcl25-esl310-rsm2-rcm44-esm100-rsr2-rcr2-esr310.npz,,,,,0,13,13,378,,left,green,1.39,210.6843271255493,211.03113722801208,1,,3,2,lightness,readingArea,realistic,75,2023-03-17_13h40.15.956,tripletExp_regina_11082022,2022.2.4,119.99496481089432,
9,0,14,2,0.444444444444444,1.0,2,0.027777777777778,0.298245614035088,2,0.25,3.10526315789474,ReadingArea_rsl2-rcl44-esl100-rsm2-rcm2-esm29-rsr2-rcr25-esr310,exr/ReadingArea_rsl2-rcl44-esl100-rsm2-rcm2-esm29-rsr2-rcr25-esr310.exr,ReadingArea_rsl2-rcl44-esl100-rsm2-rcm2-esm29-rsr2-rcr25-esr310.npz,,,,,0,14,14,550,,left,green,1.48,212.7441132068634,213.2763671875,1,,3,2,lightness,readingArea,realistic,75,2023-03-17_13h40.15.956,tripletExp_regina_11082022,2022.2.4,119.99496481089432,
3,1,6,2,0.444444444444444,0.298245614035088,2,0.111111111111111,0.298245614035088,2,0.027777777777778,1.0,ReadingArea_rsl2-rcl44-esl29-rsm2-rcm11-esm29-rsr2-rcr2-esr100,exr/ReadingArea_rsl2-rcl44-esl29-rsm2-rcm11-esm29-rsr2-rcr2-esr100.exr,ReadingArea_rsl2-rcl44-esl29-rsm2-rcm11-esm29-rsr2-rcr2-esr100.npz,,,,,0,15,15,464,,right,red,1.43,214.9872682094574,,1,,3,2,lightness,readingArea,realistic,75,2023-03-17_13h40.15.956,tripletExp_regina_11082022,2022.2.4,119.99496481089432,
13,0,10,2,0.111111111111111,3.10526315789474,2,0.027777777777778,0.298245614035088,2,0.694444444444444,1.0,ReadingArea_rsl2-rcl11-esl310-rsm2-rcm2-esm29-rsr2-rcr69-esr100,exr/ReadingArea_rsl2-rcl11-esl310-rsm2-rcm2-esm29-rsr2-rcr69-esr100.exr,ReadingArea_rsl2-rcl11-esl310-rsm2-rcm2-esm29-rsr2-rcr69-esr100.npz,,,,,0,16,16,505,,left,green,1.17,217.02648901939392,217.3811070919037,1,,3,2,lightness,readingArea,realistic,75,2023-03-17_13h40.15.956,tripletExp_regina_11082022,2022.2.4,119.99496481089432,
7,0,3,2,0.111111111111111,1.0,2,0.027777777777778,0.298245614035088,2,0.444444444444444,0.298245614035088,ReadingArea_rsl2-rcl11-esl100-rsm2-rcm2-esm29-rsr2-rcr44-esr29,exr/ReadingArea_rsl2-rcl11-esl100-rsm2-rcm2-esm29-rsr2-rcr44-esr29.exr,ReadingArea_rsl2-rcl11-esl100-rsm2-rcm2-esm29-rsr2-rcr44-esr29.npz,,,,,0,17,17,237,,left,green,3.06,220.87335109710693,221.2184791564941,1,,3,2,lightness,readingArea,realistic,75,2023-03-17_13h40.15.956,tripletExp_regina_11082022,2022.2.4,119.99496481089432,
12,5,4,2,0.027777777777778,3.10526315789474,2,1.0,0.298245614035088,2,0.694444444444444,0.298245614035088,ReadingArea_rsl2-rcl2-esl310-rsm2-rcm100-esm29-rsr2-rcr69-esr29,exr/ReadingArea_rsl2-rcl2-esl310-rsm2-rcm100-esm29-rsr2-rcr69-esr29.exr,ReadingArea_rsl2-rcl2-esl310-rsm2-rcm100-esm29-rsr2-rcr69-esr29.npz,,,,,0,18,18,566,,right,red,3.14,224.6842761039734,225.03136801719663,1,,3,2,lightness,readingArea,realistic,75,2023-03-17_13h40.15.956,tripletExp_regina_11082022,2022.2.4,119.99496481089432,
13,9,6,2,0.111111111111111,3.10526315789474,2,0.444444444444444,1.0,2,0.027777777777778,1.0,ReadingArea_rsl2-rcl11-esl310-rsm2-rcm44-esm100-rsr2-rcr2-esr100,exr/ReadingArea_rsl2-rcl11-esl310-rsm2-rcm44-esm100-rsr2-rcr2-esr100.exr,ReadingArea_rsl2-rcl11-esl310-rsm2-rcm44-esm100-rsr2-rcr2-esr100.npz,,,,,0,19,19,19,,left,green,0.93,226.7497010231018,227.1994290351868,1,,3,2,lightness,readingArea,realistic,75,2023-03-17_13h40.15.956,tripletExp_regina_11082022,2022.2.4,119.99496481089432,
2,5,14,2,0.25,0.298245614035088,2,1.0,0.298245614035088,2,0.25,3.10526315789474,ReadingArea_rsl2-rcl25-esl29-rsm2-rcm100-esm29-rsr2-rcr25-esr310,exr/ReadingArea_rsl2-rcl25-esl29-rsm2-rcm100-esm29-rsr2-rcr25-esr310.exr,ReadingArea_rsl2-rcl25-esl29-rsm2-rcm100-esm29-rsr2-rcr25-esr310.npz,,,,,0,20,20,390,,right,red,0.72,228.92222118377688,229.2673799991608,1,,3,2,lightness,readingArea,realistic,75,2023-03-17_13h40.15.956,tripletExp_regina_11082022,2022.2.4,119.99496481089432,
12,7,9,2,0.027777777777778,3.10526315789474,2,0.111111111111111,1.0,2,0.444444444444444,1.0,ReadingArea_rsl2-rcl2-esl310-rsm2-rcm11-esm100-rsr2-rcr44-esr100,exr/ReadingArea_rsl2-rcl2-esl310-rsm2-rcm11-esm100-rsr2-rcr44-esr100.exr,ReadingArea_rsl2-rcl2-esl310-rsm2-rcm11-esm100-rsr2-rcr44-esr100.npz,,,,,0,21,21,124,,left,green,0.84,230.9855790138245,231.32590413093567,1,,3,2,lightness,readingArea,realistic,75,2023-03-17_13h40.15.956,tripletExp_regina_11082022,2022.2.4,119.99496481089432,
1,14,6,2,0.111111111111111,0.298245614035088,2,0.25,3.10526315789474,2,0.027777777777778,1.0,ReadingArea_rsl2-rcl11-esl29-rsm2-rcm25-esm310-rsr2-rcr2-esr100,exr/ReadingArea_rsl2-rcl11-esl29-rsm2-rcm25-esm310-rsr2-rcr2-esr100.exr,ReadingArea_rsl2-rcl11-esl29-rsm2-rcm25-esm310-rsr2-rcr2-esr100.npz,,,,,0,22,22,475,,left,green,3.23,234.79542016983032,235.14581203460693,1,,3,2,lightness,readingArea,realistic,75,2023-03-17_13h40.15.956,tripletExp_regina_11082022,2022.2.4,119.99496481089432,
11,3,12,2,1.0,1.0,2,0.444444444444444,0.298245614035088,2,0.027777777777778,3.10526315789474,ReadingArea_rsl2-rcl100-esl100-rsm2-rcm44-esm29-rsr2-rcr2-esr310,exr/ReadingArea_rsl2-rcl100-esl100-rsm2-rcm44-esm29-rsr2-rcr2-esr310.exr,ReadingArea_rsl2-rcl100-esl100-rsm2-rcm44-esm29-rsr2-rcr2-esr310.npz,,,,,0,23,23,355,,right,red,1.45,236.84556102752688,237.2008390426636,1,,3,2,lightness,readingArea,realistic,75,2023-03-17_13h40.15.956,tripletExp_regina_11082022,2022.2.4,119.99496481089432,
12,14,8,2,0.027777777777778,3.10526315789474,2,0.25,3.10526315789474,2,0.25,1.0,ReadingArea_rsl2-rcl2-esl310-rsm2-rcm25-esm310-rsr2-rcr25-esr100,exr/ReadingArea_rsl2-rcl2-esl310-rsm2-rcm25-esm310-rsr2-rcr25-esr100.exr,ReadingArea_rsl2-rcl2-esl310-rsm2-rcm25-esm310-rsr2-rcr25-esr100.npz,,,,,0,24,24,466,,right,red,1.17,238.90691113471985,239.2476830482483,1,,3,2,lightness,readingArea,realistic,75,2023-03-17_13h40.15.956,tripletExp_regina_11082022,2022.2.4,119.99496481089432,
1,14,5,2,0.111111111111111,0.298245614035088,2,0.25,3.10526315789474,2,1.0,0.298245614035088,ReadingArea_rsl2-rcl11-esl29-rsm2-rcm25-esm310-rsr2-rcr100-esr29,exr/ReadingArea_rsl2-rcl11-esl29-rsm2-rcm25-esm310-rsr2-rcr100-esr29.exr,ReadingArea_rsl2-rcl11-esl29-rsm2-rcm25-esm310-rsr2-rcr100-esr29.npz,,,,,0,25,25,509,,right,red,0.9,240.9660680294037,241.3478331565857,1,,3,2,lightness,readingArea,realistic,75,2023-03-17_13h40.15.956,tripletExp_regina_11082022,2022.2.4,119.99496481089432,
5,14,3,2,1.0,0.298245614035088,2,0.25,3.10526315789474,2,0.444444444444444,0.298245614035088,ReadingArea_rsl2-rcl100-esl29-rsm2-rcm25-esm310-rsr2-rcr44-esr29,exr/ReadingArea_rsl2-rcl100-esl29-rsm2-rcm25-esm310-rsr2-rcr44-esr29.exr,ReadingArea_rsl2-rcl100-esl29-rsm2-rcm25-esm310-rsr2-rcr44-esr29.npz,,,,,0,26,26,93,,left,green,1.12,243.03493213653564,243.38744115829468,1,,3,2,lightness,readingArea,realistic,75,2023-03-17_13h40.15.956,tripletExp_regina_11082022,2022.2.4,119.99496481089432,
0,7,13,2,0.027777777777778,0.298245614035088,2,0.111111111111111,1.0,2,0.111111111111111,3.10526315789474,ReadingArea_rsl2-rcl2-esl29-rsm2-rcm11-esm100-rsr2-rcr11-esr310,exr/ReadingArea_rsl2-rcl2-esl29-rsm2-rcm11-esm100-rsr2-rcr11-esr310.exr,ReadingArea_rsl2-rcl2-esl29-rsm2-rcm11-esm100-rsr2-rcr11-esr310.npz,,,,,0,27,27,159,,right,red,1.08,245.0836501121521,,1,,3,2,lightness,readingArea,realistic,75,2023-03-17_13h40.15.956,tripletExp_regina_11082022,2022.2.4,119.99496481089432,
10,0,8,2,0.694444444444444,1.0,2,0.027777777777778,0.298245614035088,2,0.25,1.0,ReadingArea_rsl2-rcl69-esl100-rsm2-rcm2-esm29-rsr2-rcr25-esr100,exr/ReadingArea_rsl2-rcl69-esl100-rsm2-rcm2-esm29-rsr2-rcr25-esr100.exr,ReadingArea_rsl2-rcl69-esl100-rsm2-rcm2-esm29-rsr2-rcr25-esr100.npz,,,,,0,28,28,552,,right,red,0.96,247.13548803329468,247.4988150596619,1,,3,2,lightness,readingArea,realistic,75,2023-03-17_13h40.15.956,tripletExp_regina_11082022,2022.2.4,119.99496481089432,
7,4,1,2,0.111111111111111,1.0,2,0.694444444444444,0.298245614035088,2,0.111111111111111,0.298245614035088,ReadingArea_rsl2-rcl11-esl100-rsm2-rcm69-esm29-rsr2-rcr11-esr29,exr/ReadingArea_rsl2-rcl11-esl100-rsm2-rcm69-esm29-rsr2-rcr11-esr29.exr,ReadingArea_rsl2-rcl11-esl100-rsm2-rcm69-esm29-rsr2-rcr11-esr29.npz,,,,,0,29,29,369,,left,green,0.98,249.21247816085813,249.56313610076904,1,,3,2,lightness,readingArea,realistic,75,2023-03-17_13h40.15.956,tripletExp_regina_11082022,2022.2.4,119.99496481089432,
2,13,3,2,0.25,0.298245614035088,2,0.111111111111111,3.10526315789474,2,0.444444444444444,0.298245614035088,ReadingArea_rsl2-rcl25-esl29-rsm2-rcm11-esm310-rsr2-rcr44-esr29,exr/ReadingArea_rsl2-rcl25-esl29-rsm2-rcm11-esm310-rsr2-rcr44-esr29.exr,ReadingArea_rsl2-rcl25-esl29-rsm2-rcm11-esm310-rsr2-rcr44-esr29.npz,,,,,0,30,30,473,,right,red,0.97,251.2615702152252,251.6250560283661,1,,3,2,lightness,readingArea,realistic,75,2023-03-17_13h40.15.956,tripletExp_regina_11082022,2022.2.4,119.99496481089432,
7,9,5,2,0.111111111111111,1.0,2,0.444444444444444,1.0,2,1.0,0.298245614035088,ReadingArea_rsl2-rcl11-esl100-rsm2-rcm44-esm100-rsr2-rcr100-esr29,exr/ReadingArea_rsl2-rcl11-esl100-rsm2-rcm44-esm100-rsr2-rcr100-esr29.exr,ReadingArea_rsl2-rcl11-esl100-rsm2-rcm44-esm100-rsr2-rcr100-esr29.npz,,,,,0,31,31,291,,right,red,1.15,253.347421169281,253.70168709754944,1,,3,2,lightness,readingArea,realistic,75,2023-03-17_13h40.15.956,tripletExp_regina_11082022,2022.2.4,119.99496481089432,
9,6,13,2,0.444444444444444,1.0,2,0.027777777777778,1.0,2,0.111111111111111,3.10526315789474,ReadingArea_rsl2-rcl44-esl100-rsm2-rcm2-esm100-rsr2-rcr11-esr310,exr/ReadingArea_rsl2-rcl44-esl100-rsm2-rcm2-esm100-rsr2-rcr11-esr310.exr,ReadingArea_rsl2-rcl44-esl100-rsm2-rcm2-esm100-rsr2-rcr11-esr310.npz,,,,,0,32,32,285,,right,red,1.54,255.4175550937653,255.77373123168945,1,,3,2,lightness,readingArea,realistic,75,2023-03-17_13h40.15.956,tripletExp_regina_11082022,2022.2.4,119.99496481089432,
7,2,0,2,0.111111111111111,1.0,2,0.25,0.298245614035088,2,0.027777777777778,0.298245614035088,ReadingArea_rsl2-rcl11-esl100-rsm2-rcm25-esm29-rsr2-rcr2-esr29,exr/ReadingArea_rsl2-rcl11-esl100-rsm2-rcm25-esm29-rsr2-rcr2-esr29.exr,ReadingArea_rsl2-rcl11-esl100-rsm2-rcm25-esm29-rsr2-rcr2-esr29.npz,,,,,0,33,33,520,,left,green,1.14,257.4874830245972,257.8256230354309,1,,3,2,lightness,readingArea,realistic,75,2023-03-17_13h40.15.956,tripletExp_regina_11082022,2022.2.4,119.99496481089432,
11,12,2,2,1.0,1.0,2,0.027777777777778,3.10526315789474,2,0.25,0.298245614035088,ReadingArea_rsl2-rcl100-esl100-rsm2-rcm2-esm310-rsr2-rcr25-esr29,exr/ReadingArea_rsl2-rcl100-esl100-rsm2-rcm2-esm310-rsr2-rcr25-esr29.exr,ReadingArea_rsl2-rcl100-esl100-rsm2-rcm2-esm310-rsr2-rcr25-esr29.npz,,,,,0,34,34,423,,right,red,0.91,259.5210711956024,259.869469165802,1,,3,2,lightness,readingArea,realistic,75,2023-03-17_13h40.15.956,tripletExp_regina_11082022,2022.2.4,119.99496481089432,
5,13,6,2,1.0,0.298245614035088,2,0.111111111111111,3.10526315789474,2,0.027777777777778,1.0,ReadingArea_rsl2-rcl100-esl29-rsm2-rcm11-esm310-rsr2-rcr2-esr100,exr/ReadingArea_rsl2-rcl100-esl29-rsm2-rcm11-esm310-rsr2-rcr2-esr100.exr,ReadingArea_rsl2-rcl100-esl29-rsm2-rcm11-esm310-rsr2-rcr2-esr100.npz,,,,,0,35,35,263,,left,green,1.06,261.5932650566101,261.93170619010925,1,,3,2,lightness,readingArea,realistic,75,2023-03-17_13h40.15.956,tripletExp_regina_11082022,2022.2.4,119.99496481089432,
7,9,8,2,0.111111111111111,1.0,2,0.444444444444444,1.0,2,0.25,1.0,ReadingArea_rsl2-rcl11-esl100-rsm2-rcm44-esm100-rsr2-rcr25-esr100,exr/ReadingArea_rsl2-rcl11-esl100-rsm2-rcm44-esm100-rsr2-rcr25-esr100.exr,ReadingArea_rsl2-rcl11-esl100-rsm2-rcm44-esm100-rsr2-rcr25-esr100.npz,,,,,0,36,36,515,,right,red,1.27,263.63249015808105,263.9943962097168,1,,3,2,lightness,readingArea,realistic,75,2023-03-17_13h40.15.956,tripletExp_regina_11082022,2022.2.4,119.99496481089432,
7,14,10,2,0.111111111111111,1.0,2,0.25,3.10526315789474,2,0.694444444444444,1.0,ReadingArea_rsl2-rcl11-esl100-rsm2-rcm25-esm310-rsr2-rcr69-esr100,exr/ReadingArea_rsl2-rcl11-esl100-rsm2-rcm25-esm310-rsr2-rcr69-esr100.exr,ReadingArea_rsl2-rcl11-esl100-rsm2-rcm25-esm310-rsr2-rcr69-esr100.npz,,,,,0,37,37,472,,right,red,0.97,265.6896331310272,266.03755617141724,1,,3,2,lightness,readingArea,realistic,75,2023-03-17_13h40.15.956,tripletExp_regina_11082022,2022.2.4,119.99496481089432,
2,7,11,2,0.25,0.298245614035088,2,0.111111111111111,1.0,2,1.0,1.0,ReadingArea_rsl2-rcl25-esl29-rsm2-rcm11-esm100-rsr2-rcr100-esr100,exr/ReadingArea_rsl2-rcl25-esl29-rsm2-rcm11-esm100-rsr2-rcr100-esr100.exr,ReadingArea_rsl2-rcl25-esl29-rsm2-rcm11-esm100-rsr2-rcr100-esr100.npz,,,,,0,38,38,194,,left,green,2.92,269.5168650150299,269.8646490573883,1,,3,2,lightness,readingArea,realistic,75,2023-03-17_13h40.15.956,tripletExp_regina_11082022,2022.2.4,119.99496481089432,
7,5,11,2,0.111111111111111,1.0,2,1.0,0.298245614035088,2,1.0,1.0,ReadingArea_rsl2-rcl11-esl100-rsm2-rcm100-esm29-rsr2-rcr100-esr100,exr/ReadingArea_rsl2-rcl11-esl100-rsm2-rcm100-esm29-rsr2-rcr100-esr100.exr,ReadingArea_rsl2-rcl11-esl100-rsm2-rcm100-esm29-rsr2-rcr100-esr100.npz,,,,,0,39,39,10,,left,green,1.32,271.5842192173004,271.95061707496643,1,,3,2,lightness,readingArea,realistic,75,2023-03-17_13h40.15.956,tripletExp_regina_11082022,2022.2.4,119.99496481089432,
14,5,10,2,0.25,3.10526315789474,2,1.0,0.298245614035088,2,0.694444444444444,1.0,ReadingArea_rsl2-rcl25-esl310-rsm2-rcm100-esm29-rsr2-rcr69-esr100,exr/ReadingArea_rsl2-rcl25-esl310-rsm2-rcm100-esm29-rsr2-rcr69-esr100.exr,ReadingArea_rsl2-rcl25-esl310-rsm2-rcm100-esm29-rsr2-rcr69-esr100.npz,,,,,0,40,40,170,,right,red,1.46,273.65231800079346,274.13627004623413,1,,3,2,lightness,readingArea,realistic,75,2023-03-17_13h40.15.956,tripletExp_regina_11082022,2022.2.4,119.99496481089432,
4,11,14,2,0.694444444444444,0.298245614035088,2,1.0,1.0,2,0.25,3.10526315789474,ReadingArea_rsl2-rcl69-esl29-rsm2-rcm100-esm100-rsr2-rcr25-esr310,exr/ReadingArea_rsl2-rcl69-esl29-rsm2-rcm100-esm100-rsr2-rcr25-esr310.exr,ReadingArea_rsl2-rcl69-esl29-rsm2-rcm100-esm100-rsr2-rcr25-esr310.npz,,,,,0,41,41,165,,right,red,1.04,275.86083722114563,276.2068810462952,1,,3,2,lightness,readingArea,realistic,75,2023-03-17_13h40.15.956,tripletExp_regina_11082022,2022.2.4,119.99496481089432,
8,6,13,2,0.25,1.0,2,0.027777777777778,1.0,2,0.111111111111111,3.10526315789474,ReadingArea_rsl2-rcl25-esl100-rsm2-rcm2-esm100-rsr2-rcr11-esr310,exr/ReadingArea_rsl2-rcl25-esl100-rsm2-rcm2-esm100-rsr2-rcr11-esr310.exr,ReadingArea_rsl2-rcl25-esl100-rsm2-rcm2-esm100-rsr2-rcr11-esr310.npz,,,,,0,42,42,440,,left,green,1.47,277.8963670730591,278.2356610298157,1,,3,2,lightness,readingArea,realistic,75,2023-03-17_13h40.15.956,tripletExp_regina_11082022,2022.2.4,119.99496481089432,
6,12,7,2,0.027777777777778,1.0,2,0.027777777777778,3.10526315789474,2,0.111111111111111,1.0,ReadingArea_rsl2-rcl2-esl100-rsm2-rcm2-esm310-rsr2-rcr11-esr100,exr/ReadingArea_rsl2-rcl2-esl100-rsm2-rcm2-esm310-rsr2-rcr11-esr100.exr,ReadingArea_rsl2-rcl2-esl100-rsm2-rcm2-esm310-rsr2-rcr11-esr100.npz,,,,,0,43,43,157,,right,red,2.83,281.6801950931549,282.02902722358704,1,,3,2,lightness,readingArea,realistic,75,2023-03-17_13h40.15.956,tripletExp_regina_11082022,2022.2.4,119.99496481089432,
12,7,2,2,0.027777777777778,3.10526315789474,2,0.111111111111111,1.0,2,0.25,0.298245614035088,ReadingArea_rsl2-rcl2-esl310-rsm2-rcm11-esm100-rsr2-rcr25-esr29,exr/ReadingArea_rsl2-rcl2-esl310-rsm2-rcm11-esm100-rsr2-rcr25-esr29.exr,ReadingArea_rsl2-rcl2-esl310-rsm2-rcm11-esm100-rsr2-rcr25-esr29.npz,,,,,0,44,44,248,,left,green,1.37,283.7336530685425,284.1106460094452,1,,3,2,lightness,readingArea,realistic,75,2023-03-17_13h40.15.956,tripletExp_regina_11082022,2022.2.4,119.99496481089432,
12,10,5,2,0.027777777777778,3.10526315789474,2,0.694444444444444,1.0,2,1.0,0.298245614035088,ReadingArea_rsl2-rcl2-esl310-rsm2-rcm69-esm100-rsr2-rcr100-esr29,exr/ReadingArea_rsl2-rcl2-esl310-rsm2-rcm69-esm100-rsr2-rcr100-esr29.exr,ReadingArea_rsl2-rcl2-esl310-rsm2-rcm69-esm100-rsr2-rcr100-esr29.npz,,,,,0,45,45,470,,right,red,1.24,285.8302710056305,286.165509223938,1,,3,2,lightness,readingArea,realistic,75,2023-03-17_13h40.15.956,tripletExp_regina_11082022,2022.2.4,119.99496481089432,
2,14,7,2,0.25,0.298245614035088,2,0.25,3.10526315789474,2,0.111111111111111,1.0,ReadingArea_rsl2-rcl25-esl29-rsm2-rcm25-esm310-rsr2-rcr11-esr100,exr/ReadingArea_rsl2-rcl25-esl29-rsm2-rcm25-esm310-rsr2-rcr11-esr100.exr,ReadingArea_rsl2-rcl25-esl29-rsm2-rcm25-esm310-rsr2-rcr11-esr100.npz,,,,,0,46,46,310,,right,red,1.37,287.86274909973145,288.2069489955902,1,,3,2,lightness,readingArea,realistic,75,2023-03-17_13h40.15.956,tripletExp_regina_11082022,2022.2.4,119.99496481089432,
8,10,9,2,0.25,1.0,2,0.694444444444444,1.0,2,0.444444444444444,1.0,ReadingArea_rsl2-rcl25-esl100-rsm2-rcm69-esm100-rsr2-rcr44-esr100,exr/ReadingArea_rsl2-rcl25-esl100-rsm2-rcm69-esm100-rsr2-rcr44-esr100.exr,ReadingArea_rsl2-rcl25-esl100-rsm2-rcm69-esm100-rsr2-rcr44-esr100.npz,,,,,0,47,47,342,,right,red,1.49,289.92658019065857,290.29178619384766,1,,3,2,lightness,readingArea,realistic,75,2023-03-17_13h40.15.956,tripletExp_regina_11082022,2022.2.4,119.99496481089432,
12,10,6,2,0.027777777777778,3.10526315789474,2,0.694444444444444,1.0,2,0.027777777777778,1.0,ReadingArea_rsl2-rcl2-esl310-rsm2-rcm69-esm100-rsr2-rcr2-esr100,exr/ReadingArea_rsl2-rcl2-esl310-rsm2-rcm69-esm100-rsr2-rcr2-esr100.exr,ReadingArea_rsl2-rcl2-esl310-rsm2-rcm69-esm100-rsr2-rcr2-esr100.npz,,,,,0,48,48,273,,left,green,1.55,291.9989330768585,292.3431131839752,1,,3,2,lightness,readingArea,realistic,75,2023-03-17_13h40.15.956,tripletExp_regina_11082022,2022.2.4,119.99496481089432,
14,8,3,2,0.25,3.10526315789474,2,0.25,1.0,2,0.444444444444444,0.298245614035088,ReadingArea_rsl2-rcl25-esl310-rsm2-rcm25-esm100-rsr2-rcr44-esr29,exr/ReadingArea_rsl2-rcl25-esl310-rsm2-rcm25-esm100-rsr2-rcr44-esr29.exr,ReadingArea_rsl2-rcl25-esl310-rsm2-rcm25-esm100-rsr2-rcr44-esr29.npz,,,,,0,49,49,100,,right,red,1.61,294.06102418899536,294.39816403388977,1,,3,2,lightness,readingArea,realistic,75,2023-03-17_13h40.15.956,tripletExp_regina_11082022,2022.2.4,119.99496481089432,
7,5,1,2,0.111111111111111,1.0,2,1.0,0.298245614035088,2,0.111111111111111,0.298245614035088,ReadingArea_rsl2-rcl11-esl100-rsm2-rcm100-esm29-rsr2-rcr11-esr29,exr/ReadingArea_rsl2-rcl11-esl100-rsm2-rcm100-esm29-rsr2-rcr11-esr29.exr,ReadingArea_rsl2-rcl11-esl100-rsm2-rcm100-esm29-rsr2-rcr11-esr29.npz,,,,,0,50,50,513,,left,green,1.32,296.09552001953125,296.4443850517273,1,,3,2,lightness,readingArea,realistic,75,2023-03-17_13h40.15.956,tripletExp_regina_11082022,2022.2.4,119.99496481089432,
14,8,9,2,0.25,3.10526315789474,2,0.25,1.0,2,0.444444444444444,1.0,ReadingArea_rsl2-rcl25-esl310-rsm2-rcm25-esm100-rsr2-rcr44-esr100,exr/ReadingArea_rsl2-rcl25-esl310-rsm2-rcm25-esm100-rsr2-rcr44-esr100.exr,ReadingArea_rsl2-rcl25-esl310-rsm2-rcm25-esm100-rsr2-rcr44-esr100.npz,,,,,0,51,51,518,,right,red,1.46,298.1521260738373,298.4913010597229,1,,3,2,lightness,readingArea,realistic,75,2023-03-17_13h40.15.956,tripletExp_regina_11082022,2022.2.4,119.99496481089432,
9,12,11,2,0.444444444444444,1.0,2,0.027777777777778,3.10526315789474,2,1.0,1.0,ReadingArea_rsl2-rcl44-esl100-rsm2-rcm2-esm310-rsr2-rcr100-esr100,exr/ReadingArea_rsl2-rcl44-esl100-rsm2-rcm2-esm310-rsr2-rcr100-esr100.exr,ReadingArea_rsl2-rcl44-esl100-rsm2-rcm2-esm310-rsr2-rcr100-esr100.npz,,,,,0,52,52,144,,left,green,1.36,300.1849892139435,300.5497610569,1,,3,2,lightness,readingArea,realistic,75,2023-03-17_13h40.15.956,tripletExp_regina_11082022,2022.2.4,119.99496481089432,
8,6,5,2,0.25,1.0,2,0.027777777777778,1.0,2,1.0,0.298245614035088,ReadingArea_rsl2-rcl25-esl100-rsm2-rcm2-esm100-rsr2-rcr100-esr29,exr/ReadingArea_rsl2-rcl25-esl100-rsm2-rcm2-esm100-rsr2-rcr100-esr29.exr,ReadingArea_rsl2-rcl25-esl100-rsm2-rcm2-esm100-rsr2-rcr100-esr29.npz,,,,,0,53,53,241,,left,green,4.12,305.78687620162964,306.1482980251312,1,,3,2,lightness,readingArea,realistic,75,2023-03-17_13h40.15.956,tripletExp_regina_11082022,2022.2.4,119.99496481089432,
11,13,1,2,1.0,1.0,2,0.111111111111111,3.10526315789474,2,0.111111111111111,0.298245614035088,ReadingArea_rsl2-rcl100-esl100-rsm2-rcm11-esm310-rsr2-rcr11-esr29,exr/ReadingArea_rsl2-rcl100-esl100-rsm2-rcm11-esm310-rsr2-rcr11-esr29.exr,ReadingArea_rsl2-rcl100-esl100-rsm2-rcm11-esm310-rsr2-rcr11-esr29.npz,,,,,0,54,54,185,,right,red,1.6,307.8467972278595,308.19014406204224,1,,3,2,lightness,readingArea,realistic,75,2023-03-17_13h40.15.956,tripletExp_regina_11082022,2022.2.4,119.99496481089432,
13,2,4,2,0.111111111111111,3.10526315789474,2,0.25,0.298245614035088,2,0.694444444444444,0.298245614035088,ReadingArea_rsl2-rcl11-esl310-rsm2-rcm25-esm29-rsr2-rcr69-esr29,exr/ReadingArea_rsl2-rcl11-esl310-rsm2-rcm25-esm29-rsr2-rcr69-esr29.exr,ReadingArea_rsl2-rcl11-esl310-rsm2-rcm25-esm29-rsr2-rcr69-esr29.npz,,,,,0,55,55,307,,right,red,1.73,309.87559509277344,310.2349231243133,1,,3,2,lightness,readingArea,realistic,75,2023-03-17_13h40.15.956,tripletExp_regina_11082022,2022.2.4,119.99496481089432,
1,14,8,2,0.111111111111111,0.298245614035088,2,0.25,3.10526315789474,2,0.25,1.0,ReadingArea_rsl2-rcl11-esl29-rsm2-rcm25-esm310-rsr2-rcr25-esr100,exr/ReadingArea_rsl2-rcl11-esl29-rsm2-rcm25-esm310-rsr2-rcr25-esr100.exr,ReadingArea_rsl2-rcl11-esl29-rsm2-rcm25-esm310-rsr2-rcr25-esr100.npz,,,,,0,56,56,108,,right,red,1.37,311.9494860172272,312.3093430995941,1,,3,2,lightness,readingArea,realistic,75,2023-03-17_13h40.15.956,tripletExp_regina_11082022,2022.2.4,119.99496481089432,
1,7,2,2,0.111111111111111,0.298245614035088,2,0.111111111111111,1.0,2,0.25,0.298245614035088,ReadingArea_rsl2-rcl11-esl29-rsm2-rcm11-esm100-rsr2-rcr25-esr29,exr/ReadingArea_rsl2-rcl11-esl29-rsm2-rcm11-esm100-rsr2-rcr25-esr29.exr,ReadingArea_rsl2-rcl11-esl29-rsm2-rcm11-esm100-rsr2-rcr25-esr29.npz,,,,,0,57,57,162,,right,red,1.35,314.00202918052673,314.36611914634705,1,,3,2,lightness,readingArea,realistic,75,2023-03-17_13h40.15.956,tripletExp_regina_11082022,2022.2.4,119.99496481089432,
8,2,0,2,0.25,1.0,2,0.25,0.298245614035088,2,0.027777777777778,0.298245614035088,ReadingArea_rsl2-rcl25-esl100-rsm2-rcm25-esm29-rsr2-rcr2-esr29,exr/ReadingArea_rsl2-rcl25-esl100-rsm2-rcm25-esm29-rsr2-rcr2-esr29.exr,ReadingArea_rsl2-rcl25-esl100-rsm2-rcm25-esm29-rsr2-rcr2-esr29.npz,,,,,0,58,58,574,,left,green,1.54,316.0722692012787,316.43770718574524,1,,3,2,lightness,readingArea,realistic,75,2023-03-17_13h40.15.956,tripletExp_regina_11082022,2022.2.4,119.99496481089432,
1,10,0,2,0.111111111111111,0.298245614035088,2,0.694444444444444,1.0,2,0.027777777777778,0.298245614035088,ReadingArea_rsl2-rcl11-esl29-rsm2-rcm69-esm100-rsr2-rcr2-esr29,exr/ReadingArea_rsl2-rcl11-esl29-rsm2-rcm69-esm100-rsr2-rcr2-esr29.exr,ReadingArea_rsl2-rcl11-esl29-rsm2-rcm69-esm100-rsr2-rcr2-esr29.npz,,,,,0,59,59,196,,left,green,1.48,318.12574100494385,318.486878156662,1,,3,2,lightness,readingArea,realistic,75,2023-03-17_13h40.15.956,tripletExp_regina_11082022,2022.2.4,119.99496481089432,
6,1,14,2,0.027777777777778,1.0,2,0.111111111111111,0.298245614035088,2,0.25,3.10526315789474,ReadingArea_rsl2-rcl2-esl100-rsm2-rcm11-esm29-rsr2-rcr25-esr310,exr/ReadingArea_rsl2-rcl2-esl100-rsm2-rcm11-esm29-rsr2-rcr25-esr310.exr,ReadingArea_rsl2-rcl2-esl100-rsm2-rcm11-esm29-rsr2-rcr25-esr310.npz,,,,,0,60,60,381,,left,green,1.54,320.18111300468445,320.5406711101532,1,,3,2,lightness,readingArea,realistic,75,2023-03-17_13h40.15.956,tripletExp_regina_11082022,2022.2.4,119.99496481089432,
13,10,9,2,0.111111111111111,3.10526315789474,2,0.694444444444444,1.0,2,0.444444444444444,1.0,ReadingArea_rsl2-rcl11-esl310-rsm2-rcm69-esm100-rsr2-rcr44-esr100,exr/ReadingArea_rsl2-rcl11-esl310-rsm2-rcm69-esm100-rsr2-rcr44-esr100.exr,ReadingArea_rsl2-rcl11-esl310-rsm2-rcm69-esm100-rsr2-rcr44-esr100.npz,,,,,0,61,61,330,,right,red,1.4,322.24724102020264,322.6130142211914,1,,3,2,lightness,readingArea,realistic,75,2023-03-17_13h40.15.956,tripletExp_regina_11082022,2022.2.4,119.99496481089432,
3,8,1,2,0.444444444444444,0.298245614035088,2,0.25,1.0,2,0.111111111111111,0.298245614035088,ReadingArea_rsl2-rcl44-esl29-rsm2-rcm25-esm100-rsr2-rcr11-esr29,exr/ReadingArea_rsl2-rcl44-esl29-rsm2-rcm25-esm100-rsr2-rcr11-esr29.exr,ReadingArea_rsl2-rcl44-esl29-rsm2-rcm25-esm100-rsr2-rcr11-esr29.npz,,,,,0,62,62,230,,left,green,1.23,324.31427121162415,324.6547701358795,1,,3,2,lightness,readingArea,realistic,75,2023-03-17_13h40.15.956,tripletExp_regina_11082022,2022.2.4,119.99496481089432,
0,8,7,2,0.027777777777778,0.298245614035088,2,0.25,1.0,2,0.111111111111111,1.0,ReadingArea_rsl2-rcl2-esl29-rsm2-rcm25-esm100-rsr2-rcr11-esr100,exr/ReadingArea_rsl2-rcl2-esl29-rsm2-rcm25-esm100-rsr2-rcr11-esr100.exr,ReadingArea_rsl2-rcl2-esl29-rsm2-rcm25-esm100-rsr2-rcr11-esr100.npz,,,,,0,63,63,9,,right,red,1.21,326.3507721424103,326.710312128067,1,,3,2,lightness,readingArea,realistic,75,2023-03-17_13h40.15.956,tripletExp_regina_11082022,2022.2.4,119.99496481089432,
0,1,8,2,0.027777777777778,0.298245614035088,2,0.111111111111111,0.298245614035088,2,0.25,1.0,ReadingArea_rsl2-rcl2-esl29-rsm2-rcm11-esm29-rsr2-rcr25-esr100,exr/ReadingArea_rsl2-rcl2-esl29-rsm2-rcm11-esm29-rsr2-rcr25-esr100.exr,ReadingArea_rsl2-rcl2-esl29-rsm2-rcm11-esm29-rsr2-rcr25-esr100.npz,,,,,0,64,64,107,,left,green,1.31,328.4032380580902,328.7496871948242,1,,3,2,lightness,readingArea,realistic,75,2023-03-17_13h40.15.956,tripletExp_regina_11082022,2022.2.4,119.99496481089432,
9,3,8,2,0.444444444444444,1.0,2,0.444444444444444,0.298245614035088,2,0.25,1.0,ReadingArea_rsl2-rcl44-esl100-rsm2-rcm44-esm29-rsr2-rcr25-esr100,exr/ReadingArea_rsl2-rcl44-esl100-rsm2-rcm44-esm29-rsr2-rcr25-esr100.exr,ReadingArea_rsl2-rcl44-esl100-rsm2-rcm44-esm29-rsr2-rcr25-esr100.npz,,,,,0,65,65,530,,right,red,2.41,332.2133400440216,332.5553472042084,1,,3,2,lightness,readingArea,realistic,75,2023-03-17_13h40.15.956,tripletExp_regina_11082022,2022.2.4,119.99496481089432,
6,5,13,2,0.027777777777778,1.0,2,1.0,0.298245614035088,2,0.111111111111111,3.10526315789474,ReadingArea_rsl2-rcl2-esl100-rsm2-rcm100-esm29-rsr2-rcr11-esr310,exr/ReadingArea_rsl2-rcl2-esl100-rsm2-rcm100-esm29-rsr2-rcr11-esr310.exr,ReadingArea_rsl2-rcl2-esl100-rsm2-rcm100-esm29-rsr2-rcr11-esr310.npz,,,,,0,66,66,450,,right,red,0.89,334.2466480731964,334.6062550544739,1,,3,2,lightness,readingArea,realistic,75,2023-03-17_13h40.15.956,tripletExp_regina_11082022,2022.2.4,119.99496481089432,
4,3,10,2,0.694444444444444,0.298245614035088,2,0.444444444444444,0.298245614035088,2,0.694444444444444,1.0,ReadingArea_rsl2-rcl69-esl29-rsm2-rcm44-esm29-rsr2-rcr69-esr100,exr/ReadingArea_rsl2-rcl69-esl29-rsm2-rcm44-esm29-rsr2-rcr69-esr100.exr,ReadingArea_rsl2-rcl69-esl29-rsm2-rcm44-esm29-rsr2-rcr69-esr100.npz,,,,,0,67,67,371,,left,green,0.79,336.3008830547333,336.67983508110046,1,,3,2,lightness,readingArea,realistic,75,2023-03-17_13h40.15.956,tripletExp_regina_11082022,2022.2.4,119.99496481089432,
2,0,3,2,0.25,0.298245614035088,2,0.027777777777778,0.298245614035088,2,0.444444444444444,0.298245614035088,ReadingArea_rsl2-rcl25-esl29-rsm2-rcm2-esm29-rsr2-rcr44-esr29,exr/ReadingArea_rsl2-rcl25-esl29-rsm2-rcm2-esm29-rsr2-rcr44-esr29.exr,ReadingArea_rsl2-rcl25-esl29-rsm2-rcm2-esm29-rsr2-rcr44-esr29.npz,,,,,0,68,68,338,,left,green,1.6,338.3672151565552,338.7171471118927,1,,3,2,lightness,readingArea,realistic,75,2023-03-17_13h40.15.956,tripletExp_regina_11082022,2022.2.4,119.99496481089432,
1,8,5,2,0.111111111111111,0.298245614035088,2,0.25,1.0,2,1.0,0.298245614035088,ReadingArea_rsl2-rcl11-esl29-rsm2-rcm25-esm100-rsr2-rcr100-esr29,exr/ReadingArea_rsl2-rcl11-esl29-rsm2-rcm25-esm100-rsr2-rcr100-esr29.exr,ReadingArea_rsl2-rcl11-esl29-rsm2-rcm25-esm100-rsr2-rcr100-esr29.npz,,,,,0,69,69,445,,right,red,1.71,340.4352180957794,340.77467107772827,1,,3,2,lightness,readingArea,realistic,75,2023-03-17_13h40.15.956,tripletExp_regina_11082022,2022.2.4,119.99496481089432,
14,13,2,2,0.25,3.10526315789474,2,0.111111111111111,3.10526315789474,2,0.25,0.298245614035088,ReadingArea_rsl2-rcl25-esl310-rsm2-rcm11-esm310-rsr2-rcr25-esr29,exr/ReadingArea_rsl2-rcl25-esl310-rsm2-rcm11-esm310-rsr2-rcr25-esr29.exr,ReadingArea_rsl2-rcl25-esl310-rsm2-rcm11-esm310-rsr2-rcr25-esr29.npz,,,,,0,70,70,377,,left,green,4.66,346.0072951316833,346.4034161567688,1,,3,2,lightness,readingArea,realistic,75,2023-03-17_13h40.15.956,tripletExp_regina_11082022,2022.2.4,119.99496481089432,
10,14,1,2,0.694444444444444,1.0,2,0.25,3.10526315789474,2,0.111111111111111,0.298245614035088,ReadingArea_rsl2-rcl69-esl100-rsm2-rcm25-esm310-rsr2-rcr11-esr29,exr/ReadingArea_rsl2-rcl69-esl100-rsm2-rcm25-esm310-rsr2-rcr11-esr29.exr,ReadingArea_rsl2-rcl69-esl100-rsm2-rcm25-esm310-rsr2-rcr11-esr29.npz,,,,,0,71,71,544,,left,green,0.89,348.1227240562439,348.4594042301178,1,,3,2,lightness,readingArea,realistic,75,2023-03-17_13h40.15.956,tripletExp_regina_11082022,2022.2.4,119.99496481089432,
14,10,13,2,0.25,3.10526315789474,2,0.694444444444444,1.0,2,0.111111111111111,3.10526315789474,ReadingArea_rsl2-rcl25-esl310-rsm2-rcm69-esm100-rsr2-rcr11-esr310,exr/ReadingArea_rsl2-rcl25-esl310-rsm2-rcm69-esm100-rsr2-rcr11-esr310.exr,ReadingArea_rsl2-rcl25-esl310-rsm2-rcm69-esm100-rsr2-rcr11-esr310.npz,,,,,0,72,72,204,,left,green,0.88,350.15386509895325,350.55345916748047,1,,3,2,lightness,readingArea,realistic,75,2023-03-17_13h40.15.956,tripletExp_regina_11082022,2022.2.4,119.99496481089432,
10,1,0,2,0.694444444444444,1.0,2,0.111111111111111,0.298245614035088,2,0.027777777777778,0.298245614035088,ReadingArea_rsl2-rcl69-esl100-rsm2-rcm11-esm29-rsr2-rcr2-esr29,exr/ReadingArea_rsl2-rcl69-esl100-rsm2-rcm11-esm29-rsr2-rcr2-esr29.exr,ReadingArea_rsl2-rcl69-esl100-rsm2-rcm11-esm29-rsr2-rcr2-esr29.npz,,,,,0,73,73,276,,left,green,4.73,355.7866380214691,356.1644971370697,1,,3,2,lightness,readingArea,realistic,75,2023-03-17_13h40.15.956,tripletExp_regina_11082022,2022.2.4,119.99496481089432,
10,7,2,2,0.694444444444444,1.0,2,0.111111111111111,1.0,2,0.25,0.298245614035088,ReadingArea_rsl2-rcl69-esl100-rsm2-rcm11-esm100-rsr2-rcr25-esr29,exr/ReadingArea_rsl2-rcl69-esl100-rsm2-rcm11-esm100-rsr2-rcr25-esr29.exr,ReadingArea_rsl2-rcl69-esl100-rsm2-rcm11-esm100-rsr2-rcr25-esr29.npz,,,,,0,74,74,523,,right,red,0.85,357.86287021636963,358.067036151886,1,,3,2,lightness,readingArea,realistic,75,2023-03-17_13h40.15.956,tripletExp_regina_11082022,2022.2.4,119.99496481089432,
0,4,6,2,0.027777777777778,0.298245614035088,2,0.694444444444444,0.298245614035088,2,0.027777777777778,1.0,ReadingArea_rsl2-rcl2-esl29-rsm2-rcm69-esm29-rsr2-rcr2-esr100,exr/ReadingArea_rsl2-rcl2-esl29-rsm2-rcm69-esm29-rsr2-rcr2-esr100.exr,ReadingArea_rsl2-rcl2-esl29-rsm2-rcm69-esm29-rsr2-rcr2-esr100.npz,,,,,0,75,75,49,,right,red,1.25,361.2430980205536,361.6152191162109,2,,3,2,lightness,readingArea,realistic,75,2023-03-17_13h40.15.956,tripletExp_regina_11082022,2022.2.4,119.99496481089432,
14,8,1,2,0.25,3.10526315789474,2,0.25,1.0,2,0.111111111111111,0.298245614035088,ReadingArea_rsl2-rcl25-esl310-rsm2-rcm25-esm100-rsr2-rcr11-esr29,exr/ReadingArea_rsl2-rcl25-esl310-rsm2-rcm25-esm100-rsr2-rcr11-esr29.exr,ReadingArea_rsl2-rcl25-esl310-rsm2-rcm25-esm100-rsr2-rcr11-esr29.npz,,,,,0,76,76,141,,left,green,0.94,363.3149070739746,363.6556420326233,2,,3,2,lightness,readingArea,realistic,75,2023-03-17_13h40.15.956,tripletExp_regina_11082022,2022.2.4,119.99496481089432,
14,6,5,2,0.25,3.10526315789474,2,0.027777777777778,1.0,2,1.0,0.298245614035088,ReadingArea_rsl2-rcl25-esl310-rsm2-rcm2-esm100-rsr2-rcr100-esr29,exr/ReadingArea_rsl2-rcl25-esl310-rsm2-rcm2-esm100-rsr2-rcr100-esr29.exr,ReadingArea_rsl2-rcl25-esl310-rsm2-rcm2-esm100-rsr2-rcr100-esr29.npz,,,,,0,77,77,297,,right,red,1.12,365.3666110038757,365.72705602645874,2,,3,2,lightness,readingArea,realistic,75,2023-03-17_13h40.15.956,tripletExp_regina_11082022,2022.2.4,119.99496481089432,
2,14,8,2,0.25,0.298245614035088,2,0.25,3.10526315789474,2,0.25,1.0,ReadingArea_rsl2-rcl25-esl29-rsm2-rcm25-esm310-rsr2-rcr25-esr100,exr/ReadingArea_rsl2-rcl25-esl29-rsm2-rcm25-esm310-rsr2-rcr25-esr100.exr,ReadingArea_rsl2-rcl25-esl29-rsm2-rcm25-esm310-rsr2-rcr25-esr100.npz,,,,,0,78,78,255,,right,red,0.93,367.4507620334625,367.80860900878906,2,,3,2,lightness,readingArea,realistic,75,2023-03-17_13h40.15.956,tripletExp_regina_11082022,2022.2.4,119.99496481089432,
4,2,5,2,0.694444444444444,0.298245614035088,2,0.25,0.298245614035088,2,1.0,0.298245614035088,ReadingArea_rsl2-rcl69-esl29-rsm2-rcm25-esm29-rsr2-rcr100-esr29,exr/ReadingArea_rsl2-rcl69-esl29-rsm2-rcm25-esm29-rsr2-rcr100-esr29.exr,ReadingArea_rsl2-rcl69-esl29-rsm2-rcm25-esm29-rsr2-rcr100-esr29.npz,,,,,0,79,79,101,,left,green,1.43,369.5052001476288,369.873960018158,2,,3,2,lightness,readingArea,realistic,75,2023-03-17_13h40.15.956,tripletExp_regina_11082022,2022.2.4,119.99496481089432,
11,7,9,2,1.0,1.0,2,0.111111111111111,1.0,2,0.444444444444444,1.0,ReadingArea_rsl2-rcl100-esl100-rsm2-rcm11-esm100-rsr2-rcr44-esr100,exr/ReadingArea_rsl2-rcl100-esl100-rsm2-rcm11-esm100-rsr2-rcr44-esr100.exr,ReadingArea_rsl2-rcl100-esl100-rsm2-rcm11-esm100-rsr2-rcr44-esr100.npz,,,,,0,80,80,521,,right,red,1.44,371.56158900260925,371.9063160419464,2,,3,2,lightness,readingArea,realistic,75,2023-03-17_13h40.15.956,tripletExp_regina_11082022,2022.2.4,119.99496481089432,
10,11,0,2,0.694444444444444,1.0,2,1.0,1.0,2,0.027777777777778,0.298245614035088,ReadingArea_rsl2-rcl69-esl100-rsm2-rcm100-esm100-rsr2-rcr2-esr29,exr/ReadingArea_rsl2-rcl69-esl100-rsm2-rcm100-esm100-rsr2-rcr2-esr29.exr,ReadingArea_rsl2-rcl69-esl100-rsm2-rcm100-esm100-rsr2-rcr2-esr29.npz,,,,,0,81,81,58,,left,green,1.02,373.60371017456055,373.967148065567,2,,3,2,lightness,readingArea,realistic,75,2023-03-17_13h40.15.956,tripletExp_regina_11082022,2022.2.4,119.99496481089432,
9,4,14,2,0.444444444444444,1.0,2,0.694444444444444,0.298245614035088,2,0.25,3.10526315789474,ReadingArea_rsl2-rcl44-esl100-rsm2-rcm69-esm29-rsr2-rcr25-esr310,exr/ReadingArea_rsl2-rcl44-esl100-rsm2-rcm69-esm29-rsr2-rcr25-esr310.exr,ReadingArea_rsl2-rcl44-esl100-rsm2-rcm69-esm29-rsr2-rcr25-esr310.npz,,,,,0,82,82,104,,left,green,1.1,375.6640031337738,376.01482701301575,2,,3,2,lightness,readingArea,realistic,75,2023-03-17_13h40.15.956,tripletExp_regina_11082022,2022.2.4,119.99496481089432,
14,12,10,2,0.25,3.10526315789474,2,0.027777777777778,3.10526315789474,2,0.694444444444444,1.0,ReadingArea_rsl2-rcl25-esl310-rsm2-rcm2-esm310-rsr2-rcr69-esr100,exr/ReadingArea_rsl2-rcl25-esl310-rsm2-rcm2-esm310-rsr2-rcr69-esr100.exr,ReadingArea_rsl2-rcl25-esl310-rsm2-rcm2-esm310-rsr2-rcr69-esr100.npz,,,,,0,83,83,331,,left,green,4.82,381.27650213241577,381.6381649971008,2,,3,2,lightness,readingArea,realistic,75,2023-03-17_13h40.15.956,tripletExp_regina_11082022,2022.2.4,119.99496481089432,
8,4,2,2,0.25,1.0,2,0.694444444444444,0.298245614035088,2,0.25,0.298245614035088,ReadingArea_rsl2-rcl25-esl100-rsm2-rcm69-esm29-rsr2-rcr25-esr29,exr/ReadingArea_rsl2-rcl25-esl100-rsm2-rcm69-esm29-rsr2-rcr25-esr29.exr,ReadingArea_rsl2-rcl25-esl100-rsm2-rcm69-esm29-rsr2-rcr25-esr29.npz,,,,,0,84,84,184,,left,green,1.18,383.3414011001587,383.7150921821594,2,,3,2,lightness,readingArea,realistic,75,2023-03-17_13h40.15.956,tripletExp_regina_11082022,2022.2.4,119.99496481089432,
8,10,7,2,0.25,1.0,2,0.694444444444444,1.0,2,0.111111111111111,1.0,ReadingArea_rsl2-rcl25-esl100-rsm2-rcm69-esm100-rsr2-rcr11-esr100,exr/ReadingArea_rsl2-rcl25-esl100-rsm2-rcm69-esm100-rsr2-rcr11-esr100.exr,ReadingArea_rsl2-rcl25-esl100-rsm2-rcm69-esm100-rsr2-rcr11-esr100.npz,,,,,0,85,85,424,,left,green,1.16,385.4235911369324,385.772292137146,2,,3,2,lightness,readingArea,realistic,75,2023-03-17_13h40.15.956,tripletExp_regina_11082022,2022.2.4,119.99496481089432,
10,4,9,2,0.694444444444444,1.0,2,0.694444444444444,0.298245614035088,2,0.444444444444444,1.0,ReadingArea_rsl2-rcl69-esl100-rsm2-rcm69-esm29-rsr2-rcr44-esr100,exr/ReadingArea_rsl2-rcl69-esl100-rsm2-rcm69-esm29-rsr2-rcr44-esr100.exr,ReadingArea_rsl2-rcl69-esl100-rsm2-rcm69-esm29-rsr2-rcr44-esr100.npz,,,,,0,86,86,452,,right,red,1.29,387.4873831272125,387.8502461910248,2,,3,2,lightness,readingArea,realistic,75,2023-03-17_13h40.15.956,tripletExp_regina_11082022,2022.2.4,119.99496481089432,
7,8,6,2,0.111111111111111,1.0,2,0.25,1.0,2,0.027777777777778,1.0,ReadingArea_rsl2-rcl11-esl100-rsm2-rcm25-esm100-rsr2-rcr2-esr100,exr/ReadingArea_rsl2-rcl11-esl100-rsm2-rcm25-esm100-rsr2-rcr2-esr100.exr,ReadingArea_rsl2-rcl11-esl100-rsm2-rcm25-esm100-rsr2-rcr2-esr100.npz,,,,,0,87,87,387,,left,green,0.78,389.56710505485535,389.91946721076965,2,,3,2,lightness,readingArea,realistic,75,2023-03-17_13h40.15.956,tripletExp_regina_11082022,2022.2.4,119.99496481089432,
6,2,12,2,0.027777777777778,1.0,2,0.25,0.298245614035088,2,0.027777777777778,3.10526315789474,ReadingArea_rsl2-rcl2-esl100-rsm2-rcm25-esm29-rsr2-rcr2-esr310,exr/ReadingArea_rsl2-rcl2-esl100-rsm2-rcm25-esm29-rsr2-rcr2-esr310.exr,ReadingArea_rsl2-rcl2-esl100-rsm2-rcm25-esm29-rsr2-rcr2-esr310.npz,,,,,0,88,88,480,,right,red,0.96,391.62010407447815,391.9853711128235,2,,3,2,lightness,readingArea,realistic,75,2023-03-17_13h40.15.956,tripletExp_regina_11082022,2022.2.4,119.99496481089432,
6,13,5,2,0.027777777777778,1.0,2,0.111111111111111,3.10526315789474,2,1.0,0.298245614035088,ReadingArea_rsl2-rcl2-esl100-rsm2-rcm11-esm310-rsr2-rcr100-esr29,exr/ReadingArea_rsl2-rcl2-esl100-rsm2-rcm11-esm310-rsr2-rcr100-esr29.exr,ReadingArea_rsl2-rcl2-esl100-rsm2-rcm11-esm310-rsr2-rcr100-esr29.npz,,,,,0,89,89,53,,right,red,0.93,393.6854040622711,394.0457100868225,2,,3,2,lightness,readingArea,realistic,75,2023-03-17_13h40.15.956,tripletExp_regina_11082022,2022.2.4,119.99496481089432,
8,13,9,2,0.25,1.0,2,0.111111111111111,3.10526315789474,2,0.444444444444444,1.0,ReadingArea_rsl2-rcl25-esl100-rsm2-rcm11-esm310-rsr2-rcr44-esr100,exr/ReadingArea_rsl2-rcl25-esl100-rsm2-rcm11-esm310-rsr2-rcr44-esr100.exr,ReadingArea_rsl2-rcl25-esl100-rsm2-rcm11-esm310-rsr2-rcr44-esr100.npz,,,,,0,90,90,487,,left,green,1.28,395.7498211860657,396.117751121521,2,,3,2,lightness,readingArea,realistic,75,2023-03-17_13h40.15.956,tripletExp_regina_11082022,2022.2.4,119.99496481089432,
0,4,12,2,0.027777777777778,0.298245614035088,2,0.694444444444444,0.298245614035088,2,0.027777777777778,3.10526315789474,ReadingArea_rsl2-rcl2-esl29-rsm2-rcm69-esm29-rsr2-rcr2-esr310,exr/ReadingArea_rsl2-rcl2-esl29-rsm2-rcm69-esm29-rsr2-rcr2-esr310.exr,ReadingArea_rsl2-rcl2-esl29-rsm2-rcm69-esm29-rsr2-rcr2-esr310.npz,,,,,0,91,91,150,,right,red,1.23,397.8060131072998,398.1709070205689,2,,3,2,lightness,readingArea,realistic,75,2023-03-17_13h40.15.956,tripletExp_regina_11082022,2022.2.4,119.99496481089432,
7,12,3,2,0.111111111111111,1.0,2,0.027777777777778,3.10526315789474,2,0.444444444444444,0.298245614035088,ReadingArea_rsl2-rcl11-esl100-rsm2-rcm2-esm310-rsr2-rcr44-esr29,exr/ReadingArea_rsl2-rcl11-esl100-rsm2-rcm2-esm310-rsr2-rcr44-esr29.exr,ReadingArea_rsl2-rcl11-esl100-rsm2-rcm2-esm310-rsr2-rcr44-esr29.npz,,,,,0,92,92,584,,left,green,2.97,401.6327610015869,401.9710440635681,2,,3,2,lightness,readingArea,realistic,75,2023-03-17_13h40.15.956,tripletExp_regina_11082022,2022.2.4,119.99496481089432,
13,7,11,2,0.111111111111111,3.10526315789474,2,0.111111111111111,1.0,2,1.0,1.0,ReadingArea_rsl2-rcl11-esl310-rsm2-rcm11-esm100-rsr2-rcr100-esr100,exr/ReadingArea_rsl2-rcl11-esl310-rsm2-rcm11-esm100-rsr2-rcr100-esr100.exr,ReadingArea_rsl2-rcl11-esl310-rsm2-rcm11-esm100-rsr2-rcr100-esr100.npz,,,,,0,93,93,121,,left,green,1.28,403.69296503067017,404.0826361179352,2,,3,2,lightness,readingArea,realistic,75,2023-03-17_13h40.15.956,tripletExp_regina_11082022,2022.2.4,119.99496481089432,
3,13,6,2,0.444444444444444,0.298245614035088,2,0.111111111111111,3.10526315789474,2,0.027777777777778,1.0,ReadingArea_rsl2-rcl44-esl29-rsm2-rcm11-esm310-rsr2-rcr2-esr100,exr/ReadingArea_rsl2-rcl44-esl29-rsm2-rcm11-esm310-rsr2-rcr2-esr100.exr,ReadingArea_rsl2-rcl44-esl29-rsm2-rcm11-esm310-rsr2-rcr2-esr100.npz,,,,,0,94,94,199,,left,green,1.04,405.78522515296936,406.1553220748901,2,,3,2,lightness,readingArea,realistic,75,2023-03-17_13h40.15.956,tripletExp_regina_11082022,2022.2.4,119.99496481089432,
8,7,13,2,0.25,1.0,2,0.111111111111111,1.0,2,0.111111111111111,3.10526315789474,ReadingArea_rsl2-rcl25-esl100-rsm2-rcm11-esm100-rsr2-rcr11-esr310,exr/ReadingArea_rsl2-rcl25-esl100-rsm2-rcm11-esm100-rsr2-rcr11-esr310.exr,ReadingArea_rsl2-rcl25-esl100-rsm2-rcm11-esm100-rsr2-rcr11-esr310.npz,,,,,0,95,95,512,,left,green,1.05,407.8721160888672,408.2246332168579,2,,3,2,lightness,readingArea,realistic,75,2023-03-17_13h40.15.956,tripletExp_regina_11082022,2022.2.4,119.99496481089432,
4,14,12,2,0.694444444444444,0.298245614035088,2,0.25,3.10526315789474,2,0.027777777777778,3.10526315789474,ReadingArea_rsl2-rcl69-esl29-rsm2-rcm25-esm310-rsr2-rcr2-esr310,exr/ReadingArea_rsl2-rcl69-esl29-rsm2-rcm25-esm310-rsr2-rcr2-esr310.exr,ReadingArea_rsl2-rcl69-esl29-rsm2-rcm25-esm310-rsr2-rcr2-esr310.npz,,,,,0,96,96,392,,left,green,1.04,409.9412410259247,410.3053131103516,2,,3,2,lightness,readingArea,realistic,75,2023-03-17_13h40.15.956,tripletExp_regina_11082022,2022.2.4,119.99496481089432,
1,3,4,2,0.111111111111111,0.298245614035088,2,0.444444444444444,0.298245614035088,2,0.694444444444444,0.298245614035088,ReadingArea_rsl2-rcl11-esl29-rsm2-rcm44-esm29-rsr2-rcr69-esr29,exr/ReadingArea_rsl2-rcl11-esl29-rsm2-rcm44-esm29-rsr2-rcr69-esr29.exr,ReadingArea_rsl2-rcl11-esl29-rsm2-rcm44-esm29-rsr2-rcr69-esr29.npz,,,,,0,97,97,153,,right,red,0.75,411.9981150627136,412.355208158493,2,,3,2,lightness,readingArea,realistic,75,2023-03-17_13h40.15.956,tripletExp_regina_11082022,2022.2.4,119.99496481089432,
5,3,2,2,1.0,0.298245614035088,2,0.444444444444444,0.298245614035088,2,0.25,0.298245614035088,ReadingArea_rsl2-rcl100-esl29-rsm2-rcm44-esm29-rsr2-rcr25-esr29,exr/ReadingArea_rsl2-rcl100-esl29-rsm2-rcm44-esm29-rsr2-rcr25-esr29.exr,ReadingArea_rsl2-rcl100-esl29-rsm2-rcm44-esm29-rsr2-rcr25-esr29.npz,,,,,0,98,98,143,,left,green,1.2,414.0586760044098,414.3970081806183,2,,3,2,lightness,readingArea,realistic,75,2023-03-17_13h40.15.956,tripletExp_regina_11082022,2022.2.4,119.99496481089432,
7,1,9,2,0.111111111111111,1.0,2,0.111111111111111,0.298245614035088,2,0.444444444444444,1.0,ReadingArea_rsl2-rcl11-esl100-rsm2-rcm11-esm29-rsr2-rcr44-esr100,exr/ReadingArea_rsl2-rcl11-esl100-rsm2-rcm11-esm29-rsr2-rcr44-esr100.exr,ReadingArea_rsl2-rcl11-esl100-rsm2-rcm11-esm29-rsr2-rcr44-esr100.npz,,,,,0,99,99,89,,left,green,1.06,416.1187410354614,,2,,3,2,lightness,readingArea,realistic,75,2023-03-17_13h40.15.956,tripletExp_regina_11082022,2022.2.4,119.99496481089432,
4,5,9,2,0.694444444444444,0.298245614035088,2,1.0,0.298245614035088,2,0.444444444444444,1.0,ReadingArea_rsl2-rcl69-esl29-rsm2-rcm100-esm29-rsr2-rcr44-esr100,exr/ReadingArea_rsl2-rcl69-esl29-rsm2-rcm100-esm29-rsr2-rcr44-esr100.exr,ReadingArea_rsl2-rcl69-esl29-rsm2-rcm100-esm29-rsr2-rcr44-esr100.npz,,,,,0,100,100,211,,right,red,3.08,419.9276061058045,420.28386402130127,2,,3,2,lightness,readingArea,realistic,75,2023-03-17_13h40.15.956,tripletExp_regina_11082022,2022.2.4,119.99496481089432,
0,14,11,2,0.027777777777778,0.298245614035088,2,0.25,3.10526315789474,2,1.0,1.0,ReadingArea_rsl2-rcl2-esl29-rsm2-rcm25-esm310-rsr2-rcr100-esr100,exr/ReadingArea_rsl2-rcl2-esl29-rsm2-rcm25-esm310-rsr2-rcr100-esr100.exr,ReadingArea_rsl2-rcl2-esl29-rsm2-rcm25-esm310-rsr2-rcr100-esr100.npz,,,,,0,101,101,557,,right,red,0.99,421.9814670085907,422.3753581047058,2,,3,2,lightness,readingArea,realistic,75,2023-03-17_13h40.15.956,tripletExp_regina_11082022,2022.2.4,119.99496481089432,
5,9,10,2,1.0,0.298245614035088,2,0.444444444444444,1.0,2,0.694444444444444,1.0,ReadingArea_rsl2-rcl100-esl29-rsm2-rcm44-esm100-rsr2-rcr69-esr100,exr/ReadingArea_rsl2-rcl100-esl29-rsm2-rcm44-esm100-rsr2-rcr69-esr100.exr,ReadingArea_rsl2-rcl100-esl29-rsm2-rcm44-esm100-rsr2-rcr69-esr100.npz,,,,,0,102,102,322,,right,red,0.99,424.0750260353088,424.41476917266846,2,,3,2,lightness,readingArea,realistic,75,2023-03-17_13h40.15.956,tripletExp_regina_11082022,2022.2.4,119.99496481089432,
5,4,10,2,1.0,0.298245614035088,2,0.694444444444444,0.298245614035088,2,0.694444444444444,1.0,ReadingArea_rsl2-rcl100-esl29-rsm2-rcm69-esm29-rsr2-rcr69-esr100,exr/ReadingArea_rsl2-rcl100-esl29-rsm2-rcm69-esm29-rsr2-rcr69-esr100.exr,ReadingArea_rsl2-rcl100-esl29-rsm2-rcm69-esm29-rsr2-rcr69-esr100.npz,,,,,0,103,103,536,,left,green,1.42,426.13864302635193,426.50110602378845,2,,3,2,lightness,readingArea,realistic,75,2023-03-17_13h40.15.956,tripletExp_regina_11082022,2022.2.4,119.99496481089432,
10,3,1,2,0.694444444444444,1.0,2,0.444444444444444,0.298245614035088,2,0.111111111111111,0.298245614035088,ReadingArea_rsl2-rcl69-esl100-rsm2-rcm44-esm29-rsr2-rcr11-esr29,exr/ReadingArea_rsl2-rcl69-esl100-rsm2-rcm44-esm29-rsr2-rcr11-esr29.exr,ReadingArea_rsl2-rcl69-esl100-rsm2-rcm44-esm29-rsr2-rcr11-esr29.npz,,,,,0,104,104,420,,left,green,4.16,431.7511010169983,432.136381149292,2,,3,2,lightness,readingArea,realistic,75,2023-03-17_13h40.15.956,tripletExp_regina_11082022,2022.2.4,119.99496481089432,
13,2,9,2,0.111111111111111,3.10526315789474,2,0.25,0.298245614035088,2,0.444444444444444,1.0,ReadingArea_rsl2-rcl11-esl310-rsm2-rcm25-esm29-rsr2-rcr44-esr100,exr/ReadingArea_rsl2-rcl11-esl310-rsm2-rcm25-esm29-rsr2-rcr44-esr100.exr,ReadingArea_rsl2-rcl11-esl310-rsm2-rcm25-esm29-rsr2-rcr44-esr100.npz,,,,,0,105,105,457,,left,green,1.62,433.8386430740357,,2,,3,2,lightness,readingArea,realistic,75,2023-03-17_13h40.15.956,tripletExp_regina_11082022,2022.2.4,119.99496481089432,
12,2,9,2,0.027777777777778,3.10526315789474,2,0.25,0.298245614035088,2,0.444444444444444,1.0,ReadingArea_rsl2-rcl2-esl310-rsm2-rcm25-esm29-rsr2-rcr44-esr100,exr/ReadingArea_rsl2-rcl2-esl310-rsm2-rcm25-esm29-rsr2-rcr44-esr100.exr,ReadingArea_rsl2-rcl2-esl310-rsm2-rcm25-esm29-rsr2-rcr44-esr100.npz,,,,,0,106,106,495,,left,green,1.22,435.8940269947052,436.2613971233368,2,,3,2,lightness,readingArea,realistic,75,2023-03-17_13h40.15.956,tripletExp_regina_11082022,2022.2.4,119.99496481089432,
14,12,0,2,0.25,3.10526315789474,2,0.027777777777778,3.10526315789474,2,0.027777777777778,0.298245614035088,ReadingArea_rsl2-rcl25-esl310-rsm2-rcm2-esm310-rsr2-rcr2-esr29,exr/ReadingArea_rsl2-rcl25-esl310-rsm2-rcm2-esm310-rsr2-rcr2-esr29.exr,ReadingArea_rsl2-rcl25-esl310-rsm2-rcm2-esm310-rsr2-rcr2-esr29.npz,,,,,0,107,107,409,,right,red,3.33,439.7603771686554,440.11754322052,2,,3,2,lightness,readingArea,realistic,75,2023-03-17_13h40.15.956,tripletExp_regina_11082022,2022.2.4,119.99496481089432,
4,7,5,2,0.694444444444444,0.298245614035088,2,0.111111111111111,1.0,2,1.0,0.298245614035088,ReadingArea_rsl2-rcl69-esl29-rsm2-rcm11-esm100-rsr2-rcr100-esr29,exr/ReadingArea_rsl2-rcl69-esl29-rsm2-rcm11-esm100-rsr2-rcr100-esr29.exr,ReadingArea_rsl2-rcl69-esl29-rsm2-rcm11-esm100-rsr2-rcr100-esr29.npz,,,,,0,108,108,195,,left,green,1.11,441.8353111743927,442.19841718673706,2,,3,2,lightness,readingArea,realistic,75,2023-03-17_13h40.15.956,tripletExp_regina_11082022,2022.2.4,119.99496481089432,
1,12,6,2,0.111111111111111,0.298245614035088,2,0.027777777777778,3.10526315789474,2,0.027777777777778,1.0,ReadingArea_rsl2-rcl11-esl29-rsm2-rcm2-esm310-rsr2-rcr2-esr100,exr/ReadingArea_rsl2-rcl11-esl29-rsm2-rcm2-esm310-rsr2-rcr2-esr100.exr,ReadingArea_rsl2-rcl11-esl29-rsm2-rcm2-esm310-rsr2-rcr2-esr100.npz,,,,,0,109,109,277,,left,green,2.46,445.6687471866608,446.0416750907898,2,,3,2,lightness,readingArea,realistic,75,2023-03-17_13h40.15.956,tripletExp_regina_11082022,2022.2.4,119.99496481089432,
4,5,1,2,0.694444444444444,0.298245614035088,2,1.0,0.298245614035088,2,0.111111111111111,0.298245614035088,ReadingArea_rsl2-rcl69-esl29-rsm2-rcm100-esm29-rsr2-rcr11-esr29,exr/ReadingArea_rsl2-rcl69-esl29-rsm2-rcm100-esm29-rsr2-rcr11-esr29.exr,ReadingArea_rsl2-rcl69-esl29-rsm2-rcm100-esm29-rsr2-rcr11-esr29.npz,,,,,0,110,110,240,,left,green,0.98,447.7541410923004,448.1197850704193,2,,3,2,lightness,readingArea,realistic,75,2023-03-17_13h40.15.956,tripletExp_regina_11082022,2022.2.4,119.99496481089432,
5,3,4,2,1.0,0.298245614035088,2,0.444444444444444,0.298245614035088,2,0.694444444444444,0.298245614035088,ReadingArea_rsl2-rcl100-esl29-rsm2-rcm44-esm29-rsr2-rcr69-esr29,exr/ReadingArea_rsl2-rcl100-esl29-rsm2-rcm44-esm29-rsr2-rcr69-esr29.exr,ReadingArea_rsl2-rcl100-esl29-rsm2-rcm44-esm29-rsr2-rcr69-esr29.npz,,,,,0,111,111,201,,right,red,1.08,449.8078670501709,,2,,3,2,lightness,readingArea,realistic,75,2023-03-17_13h40.15.956,tripletExp_regina_11082022,2022.2.4,119.99496481089432,
1,5,14,2,0.111111111111111,0.298245614035088,2,1.0,0.298245614035088,2,0.25,3.10526315789474,ReadingArea_rsl2-rcl11-esl29-rsm2-rcm100-esm29-rsr2-rcr25-esr310,exr/ReadingArea_rsl2-rcl11-esl29-rsm2-rcm100-esm29-rsr2-rcr25-esr310.exr,ReadingArea_rsl2-rcl11-esl29-rsm2-rcm100-esm29-rsr2-rcr25-esr310.npz,,,,,0,112,112,191,,right,red,2.94,453.6607820987701,454.0335850715637,2,,3,2,lightness,readingArea,realistic,75,2023-03-17_13h40.15.956,tripletExp_regina_11082022,2022.2.4,119.99496481089432,
8,11,1,2,0.25,1.0,2,1.0,1.0,2,0.111111111111111,0.298245614035088,ReadingArea_rsl2-rcl25-esl100-rsm2-rcm100-esm100-rsr2-rcr11-esr29,exr/ReadingArea_rsl2-rcl25-esl100-rsm2-rcm100-esm100-rsr2-rcr11-esr29.exr,ReadingArea_rsl2-rcl25-esl100-rsm2-rcm100-esm100-rsr2-rcr11-esr29.npz,,,,,0,113,113,132,,left,green,0.91,455.7236180305481,456.1252331733704,2,,3,2,lightness,readingArea,realistic,75,2023-03-17_13h40.15.956,tripletExp_regina_11082022,2022.2.4,119.99496481089432,
0,9,14,2,0.027777777777778,0.298245614035088,2,0.444444444444444,1.0,2,0.25,3.10526315789474,ReadingArea_rsl2-rcl2-esl29-rsm2-rcm44-esm100-rsr2-rcr25-esr310,exr/ReadingArea_rsl2-rcl2-esl29-rsm2-rcm44-esm100-rsr2-rcr25-esr310.exr,ReadingArea_rsl2-rcl2-esl29-rsm2-rcm44-esm100-rsr2-rcr25-esr310.npz,,,,,0,114,114,433,,right,red,1.05,457.8306710720062,458.195778131485,2,,3,2,lightness,readingArea,realistic,75,2023-03-17_13h40.15.956,tripletExp_regina_11082022,2022.2.4,119.99496481089432,
14,5,13,2,0.25,3.10526315789474,2,1.0,0.298245614035088,2,0.111111111111111,3.10526315789474,ReadingArea_rsl2-rcl25-esl310-rsm2-rcm100-esm29-rsr2-rcr11-esr310,exr/ReadingArea_rsl2-rcl25-esl310-rsm2-rcm100-esm29-rsr2-rcr11-esr310.exr,ReadingArea_rsl2-rcl25-esl310-rsm2-rcm100-esm29-rsr2-rcr11-esr310.npz,,,,,0,115,115,524,,right,red,1.01,459.9078230857849,460.3050630092621,2,,3,2,lightness,readingArea,realistic,75,2023-03-17_13h40.15.956,tripletExp_regina_11082022,2022.2.4,119.99496481089432,
6,11,7,2,0.027777777777778,1.0,2,1.0,1.0,2,0.111111111111111,1.0,ReadingArea_rsl2-rcl2-esl100-rsm2-rcm100-esm100-rsr2-rcr11-esr100,exr/ReadingArea_rsl2-rcl2-esl100-rsm2-rcm100-esm100-rsr2-rcr11-esr100.exr,ReadingArea_rsl2-rcl2-esl100-rsm2-rcm100-esm100-rsr2-rcr11-esr100.npz,,,,,0,116,116,571,,right,red,1.24,462.0167181491852,462.3838591575623,2,,3,2,lightness,readingArea,realistic,75,2023-03-17_13h40.15.956,tripletExp_regina_11082022,2022.2.4,119.99496481089432,
1,8,12,2,0.111111111111111,0.298245614035088,2,0.25,1.0,2,0.027777777777778,3.10526315789474,ReadingArea_rsl2-rcl11-esl29-rsm2-rcm25-esm100-rsr2-rcr2-esr310,exr/ReadingArea_rsl2-rcl11-esl29-rsm2-rcm25-esm100-rsr2-rcr2-esr310.exr,ReadingArea_rsl2-rcl11-esl29-rsm2-rcm25-esm100-rsr2-rcr2-esr310.npz,,,,,0,117,117,156,,right,red,3.21,465.8587551116944,466.2072131633759,2,,3,2,lightness,readingArea,realistic,75,2023-03-17_13h40.15.956,tripletExp_regina_11082022,2022.2.4,119.99496481089432,
11,8,10,2,1.0,1.0,2,0.25,1.0,2,0.694444444444444,1.0,ReadingArea_rsl2-rcl100-esl100-rsm2-rcm25-esm100-rsr2-rcr69-esr100,exr/ReadingArea_rsl2-rcl100-esl100-rsm2-rcm25-esm100-rsr2-rcr69-esr100.exr,ReadingArea_rsl2-rcl100-esl100-rsm2-rcm25-esm100-rsr2-rcr69-esr100.npz,,,,,0,118,118,67,,right,red,1.38,467.9186429977417,,2,,3,2,lightness,readingArea,realistic,75,2023-03-17_13h40.15.956,tripletExp_regina_11082022,2022.2.4,119.99496481089432,
0,4,7,2,0.027777777777778,0.298245614035088,2,0.694444444444444,0.298245614035088,2,0.111111111111111,1.0,ReadingArea_rsl2-rcl2-esl29-rsm2-rcm69-esm29-rsr2-rcr11-esr100,exr/ReadingArea_rsl2-rcl2-esl29-rsm2-rcm69-esm29-rsr2-rcr11-esr100.exr,ReadingArea_rsl2-rcl2-esl29-rsm2-rcm69-esm29-rsr2-rcr11-esr100.npz,,,,,0,119,119,200,,right,red,1.36,469.9992480278015,470.36738109588623,2,,3,2,lightness,readingArea,realistic,75,2023-03-17_13h40.15.956,tripletExp_regina_11082022,2022.2.4,119.99496481089432,
14,3,2,2,0.25,3.10526315789474,2,0.444444444444444,0.298245614035088,2,0.25,0.298245614035088,ReadingArea_rsl2-rcl25-esl310-rsm2-rcm44-esm29-rsr2-rcr25-esr29,exr/ReadingArea_rsl2-rcl25-esl310-rsm2-rcm44-esm29-rsr2-rcr25-esr29.exr,ReadingArea_rsl2-rcl25-esl310-rsm2-rcm44-esm29-rsr2-rcr25-esr29.npz,,,,,0,120,120,52,,right,red,3.31,473.8621950149536,474.2307090759277,2,,3,2,lightness,readingArea,realistic,75,2023-03-17_13h40.15.956,tripletExp_regina_11082022,2022.2.4,119.99496481089432,
6,12,3,2,0.027777777777778,1.0,2,0.027777777777778,3.10526315789474,2,0.444444444444444,0.298245614035088,ReadingArea_rsl2-rcl2-esl100-rsm2-rcm2-esm310-rsr2-rcr44-esr29,exr/ReadingArea_rsl2-rcl2-esl100-rsm2-rcm2-esm310-rsr2-rcr44-esr29.exr,ReadingArea_rsl2-rcl2-esl100-rsm2-rcm2-esm310-rsr2-rcr44-esr29.npz,,,,,0,121,121,284,,right,red,3.13,477.6854600906372,478.0751950740814,2,,3,2,lightness,readingArea,realistic,75,2023-03-17_13h40.15.956,tripletExp_regina_11082022,2022.2.4,119.99496481089432,
3,13,1,2,0.444444444444444,0.298245614035088,2,0.111111111111111,3.10526315789474,2,0.111111111111111,0.298245614035088,ReadingArea_rsl2-rcl44-esl29-rsm2-rcm11-esm310-rsr2-rcr11-esr29,exr/ReadingArea_rsl2-rcl44-esl29-rsm2-rcm11-esm310-rsr2-rcr11-esr29.exr,ReadingArea_rsl2-rcl44-esl29-rsm2-rcm11-esm310-rsr2-rcr11-esr29.npz,,,,,0,122,122,421,,left,green,1.17,479.7611970901489,480.16761207580566,2,,3,2,lightness,readingArea,realistic,75,2023-03-17_13h40.15.956,tripletExp_regina_11082022,2022.2.4,119.99496481089432,
2,1,3,2,0.25,0.298245614035088,2,0.111111111111111,0.298245614035088,2,0.444444444444444,0.298245614035088,ReadingArea_rsl2-rcl25-esl29-rsm2-rcm11-esm29-rsr2-rcr44-esr29,exr/ReadingArea_rsl2-rcl25-esl29-rsm2-rcm11-esm29-rsr2-rcr44-esr29.exr,ReadingArea_rsl2-rcl25-esl29-rsm2-rcm11-esm29-rsr2-rcr44-esr29.npz,,,,,0,123,123,85,,left,green,1.37,481.88034319877625,482.257639169693,2,,3,2,lightness,readingArea,realistic,75,2023-03-17_13h40.15.956,tripletExp_regina_11082022,2022.2.4,119.99496481089432,
1,7,8,2,0.111111111111111,0.298245614035088,2,0.111111111111111,1.0,2,0.25,1.0,ReadingArea_rsl2-rcl11-esl29-rsm2-rcm11-esm100-rsr2-rcr25-esr100,exr/ReadingArea_rsl2-rcl11-esl29-rsm2-rcm11-esm100-rsr2-rcr25-esr100.exr,ReadingArea_rsl2-rcl11-esl29-rsm2-rcm11-esm100-rsr2-rcr25-esr100.npz,,,,,0,124,124,260,,right,red,1.59,483.9591920375824,484.3245761394501,2,,3,2,lightness,readingArea,realistic,75,2023-03-17_13h40.15.956,tripletExp_regina_11082022,2022.2.4,119.99496481089432,
11,8,7,2,1.0,1.0,2,0.25,1.0,2,0.111111111111111,1.0,ReadingArea_rsl2-rcl100-esl100-rsm2-rcm25-esm100-rsr2-rcr11-esr100,exr/ReadingArea_rsl2-rcl100-esl100-rsm2-rcm25-esm100-rsr2-rcr11-esr100.exr,ReadingArea_rsl2-rcl100-esl100-rsm2-rcm25-esm100-rsr2-rcr11-esr100.npz,,,,,0,125,125,105,,right,red,1.35,486.0275740623474,486.3990070819855,2,,3,2,lightness,readingArea,realistic,75,2023-03-17_13h40.15.956,tripletExp_regina_11082022,2022.2.4,119.99496481089432,
13,10,7,2,0.111111111111111,3.10526315789474,2,0.694444444444444,1.0,2,0.111111111111111,1.0,ReadingArea_rsl2-rcl11-esl310-rsm2-rcm69-esm100-rsr2-rcr11-esr100,exr/ReadingArea_rsl2-rcl11-esl310-rsm2-rcm69-esm100-rsr2-rcr11-esr100.exr,ReadingArea_rsl2-rcl11-esl310-rsm2-rcm69-esm100-rsr2-rcr11-esr100.npz,,,,,0,126,126,385,,left,green,1.26,488.1122310161591,488.4572560787201,2,,3,2,lightness,readingArea,realistic,75,2023-03-17_13h40.15.956,tripletExp_regina_11082022,2022.2.4,119.99496481089432,
14,0,5,2,0.25,3.10526315789474,2,0.027777777777778,0.298245614035088,2,1.0,0.298245614035088,ReadingArea_rsl2-rcl25-esl310-rsm2-rcm2-esm29-rsr2-rcr100-esr29,exr/ReadingArea_rsl2-rcl25-esl310-rsm2-rcm2-esm29-rsr2-rcr100-esr29.exr,ReadingArea_rsl2-rcl25-esl310-rsm2-rcm2-esm29-rsr2-rcr100-esr29.npz,,,,,0,127,127,418,,right,red,1.27,490.169958114624,490.5478410720825,2,,3,2,lightness,readingArea,realistic,75,2023-03-17_13h40.15.956,tripletExp_regina_11082022,2022.2.4,119.99496481089432,
3,12,14,2,0.444444444444444,0.298245614035088,2,0.027777777777778,3.10526315789474,2,0.25,3.10526315789474,ReadingArea_rsl2-rcl44-esl29-rsm2-rcm2-esm310-rsr2-rcr25-esr310,exr/ReadingArea_rsl2-rcl44-esl29-rsm2-rcm2-esm310-rsr2-rcr25-esr310.exr,ReadingArea_rsl2-rcl44-esl29-rsm2-rcm2-esm310-rsr2-rcr25-esr310.npz,,,,,0,128,128,16,,left,green,1.46,492.26953315734863,492.63299012184143,2,,3,2,lightness,readingArea,realistic,75,2023-03-17_13h40.15.956,tripletExp_regina_11082022,2022.2.4,119.99496481089432,
8,0,6,2,0.25,1.0,2,0.027777777777778,0.298245614035088,2,0.027777777777778,1.0,ReadingArea_rsl2-rcl25-esl100-rsm2-rcm2-esm29-rsr2-rcr2-esr100,exr/ReadingArea_rsl2-rcl25-esl100-rsm2-rcm2-esm29-rsr2-rcr2-esr100.exr,ReadingArea_rsl2-rcl25-esl100-rsm2-rcm2-esm29-rsr2-rcr2-esr100.npz,,,,,0,129,129,401,,right,red,1.22,494.3428180217743,494.6891520023346,2,,3,2,lightness,readingArea,realistic,75,2023-03-17_13h40.15.956,tripletExp_regina_11082022,2022.2.4,119.99496481089432,
13,9,4,2,0.111111111111111,3.10526315789474,2,0.444444444444444,1.0,2,0.694444444444444,0.298245614035088,ReadingArea_rsl2-rcl11-esl310-rsm2-rcm44-esm100-rsr2-rcr69-esr29,exr/ReadingArea_rsl2-rcl11-esl310-rsm2-rcm44-esm100-rsr2-rcr69-esr29.exr,ReadingArea_rsl2-rcl11-esl310-rsm2-rcm44-esm100-rsr2-rcr69-esr29.npz,,,,,0,130,130,444,,left,green,3.48,498.1822671890259,,2,,3,2,lightness,readingArea,realistic,75,2023-03-17_13h40.15.956,tripletExp_regina_11082022,2022.2.4,119.99496481089432,
12,11,6,2,0.027777777777778,3.10526315789474,2,1.0,1.0,2,0.027777777777778,1.0,ReadingArea_rsl2-rcl2-esl310-rsm2-rcm100-esm100-rsr2-rcr2-esr100,exr/ReadingArea_rsl2-rcl2-esl310-rsm2-rcm100-esm100-rsr2-rcr2-esr100.exr,ReadingArea_rsl2-rcl2-esl310-rsm2-rcm100-esm100-rsr2-rcr2-esr100.npz,,,,,0,131,131,163,,left,green,1.63,500.26220703125,500.61221408844,2,,3,2,lightness,readingArea,realistic,75,2023-03-17_13h40.15.956,tripletExp_regina_11082022,2022.2.4,119.99496481089432,
10,11,12,2,0.694444444444444,1.0,2,1.0,1.0,2,0.027777777777778,3.10526315789474,ReadingArea_rsl2-rcl69-esl100-rsm2-rcm100-esm100-rsr2-rcr2-esr310,exr/ReadingArea_rsl2-rcl69-esl100-rsm2-rcm100-esm100-rsr2-rcr2-esr310.exr,ReadingArea_rsl2-rcl69-esl100-rsm2-rcm100-esm100-rsr2-rcr2-esr310.npz,,,,,0,132,132,533,,left,green,1.19,502.316153049469,,2,,3,2,lightness,readingArea,realistic,75,2023-03-17_13h40.15.956,tripletExp_regina_11082022,2022.2.4,119.99496481089432,
8,13,3,2,0.25,1.0,2,0.111111111111111,3.10526315789474,2,0.444444444444444,0.298245614035088,ReadingArea_rsl2-rcl25-esl100-rsm2-rcm11-esm310-rsr2-rcr44-esr29,exr/ReadingArea_rsl2-rcl25-esl100-rsm2-rcm11-esm310-rsr2-rcr44-esr29.exr,ReadingArea_rsl2-rcl25-esl100-rsm2-rcm11-esm310-rsr2-rcr44-esr29.npz,,,,,0,133,133,553,,left,green,1.51,504.4100379943848,504.7817001342773,2,,3,2,lightness,readingArea,realistic,75,2023-03-17_13h40.15.956,tripletExp_regina_11082022,2022.2.4,119.99496481089432,
7,14,11,2,0.111111111111111,1.0,2,0.25,3.10526315789474,2,1.0,1.0,ReadingArea_rsl2-rcl11-esl100-rsm2-rcm25-esm310-rsr2-rcr100-esr100,exr/ReadingArea_rsl2-rcl11-esl100-rsm2-rcm25-esm310-rsr2-rcr100-esr100.exr,ReadingArea_rsl2-rcl11-esl100-rsm2-rcm25-esm310-rsr2-rcr100-esr100.npz,,,,,0,134,134,252,,right,red,1.07,506.4809730052948,506.8447132110596,2,,3,2,lightness,readingArea,realistic,75,2023-03-17_13h40.15.956,tripletExp_regina_11082022,2022.2.4,119.99496481089432,
7,8,14,2,0.111111111111111,1.0,2,0.25,1.0,2,0.25,3.10526315789474,ReadingArea_rsl2-rcl11-esl100-rsm2-rcm25-esm100-rsr2-rcr25-esr310,exr/ReadingArea_rsl2-rcl11-esl100-rsm2-rcm25-esm100-rsr2-rcr25-esr310.exr,ReadingArea_rsl2-rcl11-esl100-rsm2-rcm25-esm100-rsr2-rcr25-esr310.npz,,,,,0,135,135,300,,left,green,1.31,508.5501310825348,,2,,3,2,lightness,readingArea,realistic,75,2023-03-17_13h40.15.956,tripletExp_regina_11082022,2022.2.4,119.99496481089432,
14,11,3,2,0.25,3.10526315789474,2,1.0,1.0,2,0.444444444444444,0.298245614035088,ReadingArea_rsl2-rcl25-esl310-rsm2-rcm100-esm100-rsr2-rcr44-esr29,exr/ReadingArea_rsl2-rcl25-esl310-rsm2-rcm100-esm100-rsr2-rcr44-esr29.exr,ReadingArea_rsl2-rcl25-esl310-rsm2-rcm100-esm100-rsr2-rcr44-esr29.npz,,,,,0,136,136,78,,left,green,1.27,510.6361060142517,511.00814604759216,2,,3,2,lightness,readingArea,realistic,75,2023-03-17_13h40.15.956,tripletExp_regina_11082022,2022.2.4,119.99496481089432,
12,14,4,2,0.027777777777778,3.10526315789474,2,0.25,3.10526315789474,2,0.694444444444444,0.298245614035088,ReadingArea_rsl2-rcl2-esl310-rsm2-rcm25-esm310-rsr2-rcr69-esr29,exr/ReadingArea_rsl2-rcl2-esl310-rsm2-rcm25-esm310-rsr2-rcr69-esr29.exr,ReadingArea_rsl2-rcl2-esl310-rsm2-rcm25-esm310-rsr2-rcr69-esr29.npz,,,,,0,137,137,315,,right,red,1.1,512.7135870456696,513.0651290416718,2,,3,2,lightness,readingArea,realistic,75,2023-03-17_13h40.15.956,tripletExp_regina_11082022,2022.2.4,119.99496481089432,
11,7,13,2,1.0,1.0,2,0.111111111111111,1.0,2,0.111111111111111,3.10526315789474,ReadingArea_rsl2-rcl100-esl100-rsm2-rcm11-esm100-rsr2-rcr11-esr310,exr/ReadingArea_rsl2-rcl100-esl100-rsm2-rcm11-esm100-rsr2-rcr11-esr310.exr,ReadingArea_rsl2-rcl100-esl100-rsm2-rcm11-esm100-rsr2-rcr11-esr310.npz,,,,,0,138,138,431,,right,red,1.2,514.7768261432648,515.1454710960388,2,,3,2,lightness,readingArea,realistic,75,2023-03-17_13h40.15.956,tripletExp_regina_11082022,2022.2.4,119.99496481089432,
5,10,0,2,1.0,0.298245614035088,2,0.694444444444444,1.0,2,0.027777777777778,0.298245614035088,ReadingArea_rsl2-rcl100-esl29-rsm2-rcm69-esm100-rsr2-rcr2-esr29,exr/ReadingArea_rsl2-rcl100-esl29-rsm2-rcm69-esm100-rsr2-rcr2-esr29.exr,ReadingArea_rsl2-rcl100-esl29-rsm2-rcm69-esm100-rsr2-rcr2-esr29.npz,,,,,0,139,139,293,,left,green,0.81,516.867338180542,517.2182631492615,2,,3,2,lightness,readingArea,realistic,75,2023-03-17_13h40.15.956,tripletExp_regina_11082022,2022.2.4,119.99496481089432,
4,1,9,2,0.694444444444444,0.298245614035088,2,0.111111111111111,0.298245614035088,2,0.444444444444444,1.0,ReadingArea_rsl2-rcl69-esl29-rsm2-rcm11-esm29-rsr2-rcr44-esr100,exr/ReadingArea_rsl2-rcl69-esl29-rsm2-rcm11-esm29-rsr2-rcr44-esr100.exr,ReadingArea_rsl2-rcl69-esl29-rsm2-rcm11-esm29-rsr2-rcr44-esr100.npz,,,,,0,140,140,7,,left,green,1.24,518.9126961231232,519.28559923172,2,,3,2,lightness,readingArea,realistic,75,2023-03-17_13h40.15.956,tripletExp_regina_11082022,2022.2.4,119.99496481089432,
1,14,7,2,0.111111111111111,0.298245614035088,2,0.25,3.10526315789474,2,0.111111111111111,1.0,ReadingArea_rsl2-rcl11-esl29-rsm2-rcm25-esm310-rsr2-rcr11-esr100,exr/ReadingArea_rsl2-rcl11-esl29-rsm2-rcm25-esm310-rsr2-rcr11-esr100.exr,ReadingArea_rsl2-rcl11-esl29-rsm2-rcm25-esm310-rsr2-rcr11-esr100.npz,,,,,0,141,141,583,,right,red,1.34,521.0032920837402,521.3729100227356,2,,3,2,lightness,readingArea,realistic,75,2023-03-17_13h40.15.956,tripletExp_regina_11082022,2022.2.4,119.99496481089432,
5,14,4,2,1.0,0.298245614035088,2,0.25,3.10526315789474,2,0.694444444444444,0.298245614035088,ReadingArea_rsl2-rcl100-esl29-rsm2-rcm25-esm310-rsr2-rcr69-esr29,exr/ReadingArea_rsl2-rcl100-esl29-rsm2-rcm25-esm310-rsr2-rcr69-esr29.exr,ReadingArea_rsl2-rcl100-esl29-rsm2-rcm25-esm310-rsr2-rcr69-esr29.npz,,,,,0,142,142,69,,left,green,1.59,523.0827071666718,523.4338340759277,2,,3,2,lightness,readingArea,realistic,75,2023-03-17_13h40.15.956,tripletExp_regina_11082022,2022.2.4,119.99496481089432,
3,14,12,2,0.444444444444444,0.298245614035088,2,0.25,3.10526315789474,2,0.027777777777778,3.10526315789474,ReadingArea_rsl2-rcl44-esl29-rsm2-rcm25-esm310-rsr2-rcr2-esr310,exr/ReadingArea_rsl2-rcl44-esl29-rsm2-rcm25-esm310-rsr2-rcr2-esr310.exr,ReadingArea_rsl2-rcl44-esl29-rsm2-rcm25-esm310-rsr2-rcr2-esr310.npz,,,,,0,143,143,336,,left,green,1.51,525.1385550498962,525.5081942081451,2,,3,2,lightness,readingArea,realistic,75,2023-03-17_13h40.15.956,tripletExp_regina_11082022,2022.2.4,119.99496481089432,
9,7,3,2,0.444444444444444,1.0,2,0.111111111111111,1.0,2,0.444444444444444,0.298245614035088,ReadingArea_rsl2-rcl44-esl100-rsm2-rcm11-esm100-rsr2-rcr44-esr29,exr/ReadingArea_rsl2-rcl44-esl100-rsm2-rcm11-esm100-rsr2-rcr44-esr29.exr,ReadingArea_rsl2-rcl44-esl100-rsm2-rcm11-esm100-rsr2-rcr44-esr29.npz,,,,,0,144,144,235,,right,red,1.5,527.2126560211182,527.5827610492706,2,,3,2,lightness,readingArea,realistic,75,2023-03-17_13h40.15.956,tripletExp_regina_11082022,2022.2.4,119.99496481089432,
8,7,12,2,0.25,1.0,2,0.111111111111111,1.0,2,0.027777777777778,3.10526315789474,ReadingArea_rsl2-rcl25-esl100-rsm2-rcm11-esm100-rsr2-rcr2-esr310,exr/ReadingArea_rsl2-rcl25-esl100-rsm2-rcm11-esm100-rsr2-rcr2-esr310.exr,ReadingArea_rsl2-rcl25-esl100-rsm2-rcm11-esm100-rsr2-rcr2-esr310.npz,,,,,0,145,145,471,,right,red,1.36,529.2751340866089,529.6433720588684,2,,3,2,lightness,readingArea,realistic,75,2023-03-17_13h40.15.956,tripletExp_regina_11082022,2022.2.4,119.99496481089432,
11,13,8,2,1.0,1.0,2,0.111111111111111,3.10526315789474,2,0.25,1.0,ReadingArea_rsl2-rcl100-esl100-rsm2-rcm11-esm310-rsr2-rcr25-esr100,exr/ReadingArea_rsl2-rcl100-esl100-rsm2-rcm11-esm310-rsr2-rcr25-esr100.exr,ReadingArea_rsl2-rcl100-esl100-rsm2-rcm11-esm310-rsr2-rcr25-esr100.npz,,,,,0,146,146,198,,right,red,1.1,531.3437781333923,531.6850190162659,2,,3,2,lightness,readingArea,realistic,75,2023-03-17_13h40.15.956,tripletExp_regina_11082022,2022.2.4,119.99496481089432,
2,3,9,2,0.25,0.298245614035088,2,0.444444444444444,0.298245614035088,2,0.444444444444444,1.0,ReadingArea_rsl2-rcl25-esl29-rsm2-rcm44-esm29-rsr2-rcr44-esr100,exr/ReadingArea_rsl2-rcl25-esl29-rsm2-rcm44-esm29-rsr2-rcr44-esr100.exr,ReadingArea_rsl2-rcl25-esl29-rsm2-rcm44-esm29-rsr2-rcr44-esr100.npz,,,,,0,147,147,190,,left,green,4.5,536.9409670829773,537.2975192070007,2,,3,2,lightness,readingArea,realistic,75,2023-03-17_13h40.15.956,tripletExp_regina_11082022,2022.2.4,119.99496481089432,
4,12,6,2,0.694444444444444,0.298245614035088,2,0.027777777777778,3.10526315789474,2,0.027777777777778,1.0,ReadingArea_rsl2-rcl69-esl29-rsm2-rcm2-esm310-rsr2-rcr2-esr100,exr/ReadingArea_rsl2-rcl69-esl29-rsm2-rcm2-esm310-rsr2-rcr2-esr100.exr,ReadingArea_rsl2-rcl69-esl29-rsm2-rcm2-esm310-rsr2-rcr2-esr100.npz,,,,,0,148,148,99,,left,green,4.42,542.546953201294,542.940877199173,2,,3,2,lightness,readingArea,realistic,75,2023-03-17_13h40.15.956,tripletExp_regina_11082022,2022.2.4,119.99496481089432,
4,8,7,2,0.694444444444444,0.298245614035088,2,0.25,1.0,2,0.111111111111111,1.0,ReadingArea_rsl2-rcl69-esl29-rsm2-rcm25-esm100-rsr2-rcr11-esr100,exr/ReadingArea_rsl2-rcl69-esl29-rsm2-rcm25-esm100-rsr2-rcr11-esr100.exr,ReadingArea_rsl2-rcl69-esl29-rsm2-rcm25-esm100-rsr2-rcr11-esr100.npz,,,,,0,149,149,461,,left,green,1.04,544.6627941131592,544.8630790710449,2,,3,2,lightness,readingArea,realistic,75,2023-03-17_13h40.15.956,tripletExp_regina_11082022,2022.2.4,119.99496481089432,
4,14,1,2,0.694444444444444,0.298245614035088,2,0.25,3.10526315789474,2,0.111111111111111,0.298245614035088,ReadingArea_rsl2-rcl69-esl29-rsm2-rcm25-esm310-rsr2-rcr11-esr29,exr/ReadingArea_rsl2-rcl69-esl29-rsm2-rcm25-esm310-rsr2-rcr11-esr29.exr,ReadingArea_rsl2-rcl69-esl29-rsm2-rcm25-esm310-rsr2-rcr11-esr29.npz,,,,,0,150,150,477,,left,green,0.86,551.2399091720581,551.6061811447144,3,,3,2,lightness,readingArea,realistic,75,2023-03-17_13h40.15.956,tripletExp_regina_11082022,2022.2.4,119.99496481089432,
13,8,14,2,0.111111111111111,3.10526315789474,2,0.25,1.0,2,0.25,3.10526315789474,ReadingArea_rsl2-rcl11-esl310-rsm2-rcm25-esm100-rsr2-rcr25-esr310,exr/ReadingArea_rsl2-rcl11-esl310-rsm2-rcm25-esm100-rsr2-rcr25-esr310.exr,ReadingArea_rsl2-rcl11-esl310-rsm2-rcm25-esm100-rsr2-rcr25-esr310.npz,,,,,0,151,151,345,,left,green,0.94,553.3281891345978,553.6802661418915,3,,3,2,lightness,readingArea,realistic,75,2023-03-17_13h40.15.956,tripletExp_regina_11082022,2022.2.4,119.99496481089432,
10,9,6,2,0.694444444444444,1.0,2,0.444444444444444,1.0,2,0.027777777777778,1.0,ReadingArea_rsl2-rcl69-esl100-rsm2-rcm44-esm100-rsr2-rcr2-esr100,exr/ReadingArea_rsl2-rcl69-esl100-rsm2-rcm44-esm100-rsr2-rcr2-esr100.exr,ReadingArea_rsl2-rcl69-esl100-rsm2-rcm44-esm100-rsr2-rcr2-esr100.npz,,,,,0,152,152,35,,left,green,0.8,555.3850932121277,555.7609560489655,3,,3,2,lightness,readingArea,realistic,75,2023-03-17_13h40.15.956,tripletExp_regina_11082022,2022.2.4,119.99496481089432,
9,8,7,2,0.444444444444444,1.0,2,0.25,1.0,2,0.111111111111111,1.0,ReadingArea_rsl2-rcl44-esl100-rsm2-rcm25-esm100-rsr2-rcr11-esr100,exr/ReadingArea_rsl2-rcl44-esl100-rsm2-rcm25-esm100-rsr2-rcr11-esr100.exr,ReadingArea_rsl2-rcl44-esl100-rsm2-rcm25-esm100-rsr2-rcr11-esr100.npz,,,,,0,153,153,368,,left,green,0.77,557.4600241184235,557.8331060409546,3,,3,2,lightness,readingArea,realistic,75,2023-03-17_13h40.15.956,tripletExp_regina_11082022,2022.2.4,119.99496481089432,
7,12,2,2,0.111111111111111,1.0,2,0.027777777777778,3.10526315789474,2,0.25,0.298245614035088,ReadingArea_rsl2-rcl11-esl100-rsm2-rcm2-esm310-rsr2-rcr25-esr29,exr/ReadingArea_rsl2-rcl11-esl100-rsm2-rcm2-esm310-rsr2-rcr25-esr29.exr,ReadingArea_rsl2-rcl11-esl100-rsm2-rcm2-esm310-rsr2-rcr25-esr29.npz,,,,,0,154,154,72,,right,red,1.26,559.5460031032562,559.902538061142,3,,3,2,lightness,readingArea,realistic,75,2023-03-17_13h40.15.956,tripletExp_regina_11082022,2022.2.4,119.99496481089432,
4,10,11,2,0.694444444444444,0.298245614035088,2,0.694444444444444,1.0,2,1.0,1.0,ReadingArea_rsl2-rcl69-esl29-rsm2-rcm69-esm100-rsr2-rcr100-esr100,exr/ReadingArea_rsl2-rcl69-esl29-rsm2-rcm69-esm100-rsr2-rcr100-esr100.exr,ReadingArea_rsl2-rcl69-esl29-rsm2-rcm69-esm100-rsr2-rcr100-esr100.npz,,,,,0,155,155,180,,right,red,1.01,561.6125280857086,561.9895870685577,3,,3,2,lightness,readingArea,realistic,75,2023-03-17_13h40.15.956,tripletExp_regina_11082022,2022.2.4,119.99496481089432,
5,4,1,2,1.0,0.298245614035088,2,0.694444444444444,0.298245614035088,2,0.111111111111111,0.298245614035088,ReadingArea_rsl2-rcl100-esl29-rsm2-rcm69-esm29-rsr2-rcr11-esr29,exr/ReadingArea_rsl2-rcl100-esl29-rsm2-rcm69-esm29-rsr2-rcr11-esr29.exr,ReadingArea_rsl2-rcl100-esl29-rsm2-rcm69-esm29-rsr2-rcr11-esr29.npz,,,,,0,156,156,560,,left,green,0.94,563.7083160877228,564.0633461475372,3,,3,2,lightness,readingArea,realistic,75,2023-03-17_13h40.15.956,tripletExp_regina_11082022,2022.2.4,119.99496481089432,
10,4,8,2,0.694444444444444,1.0,2,0.694444444444444,0.298245614035088,2,0.25,1.0,ReadingArea_rsl2-rcl69-esl100-rsm2-rcm69-esm29-rsr2-rcr25-esr100,exr/ReadingArea_rsl2-rcl69-esl100-rsm2-rcm69-esm29-rsr2-rcr25-esr100.exr,ReadingArea_rsl2-rcl69-esl100-rsm2-rcm69-esm29-rsr2-rcr25-esr100.npz,,,,,0,157,157,562,,right,red,2.61,567.5086071491241,567.8531880378723,3,,3,2,lightness,readingArea,realistic,75,2023-03-17_13h40.15.956,tripletExp_regina_11082022,2022.2.4,119.99496481089432,
7,13,6,2,0.111111111111111,1.0,2,0.111111111111111,3.10526315789474,2,0.027777777777778,1.0,ReadingArea_rsl2-rcl11-esl100-rsm2-rcm11-esm310-rsr2-rcr2-esr100,exr/ReadingArea_rsl2-rcl11-esl100-rsm2-rcm11-esm310-rsr2-rcr2-esr100.exr,ReadingArea_rsl2-rcl11-esl100-rsm2-rcm11-esm310-rsr2-rcr2-esr100.npz,,,,,0,158,158,73,,left,green,1.94,571.3299112319946,571.7039511203766,3,,3,2,lightness,readingArea,realistic,75,2023-03-17_13h40.15.956,tripletExp_regina_11082022,2022.2.4,119.99496481089432,
0,9,10,2,0.027777777777778,0.298245614035088,2,0.444444444444444,1.0,2,0.694444444444444,1.0,ReadingArea_rsl2-rcl2-esl29-rsm2-rcm44-esm100-rsr2-rcr69-esr100,exr/ReadingArea_rsl2-rcl2-esl29-rsm2-rcm44-esm100-rsr2-rcr69-esr100.exr,ReadingArea_rsl2-rcl2-esl29-rsm2-rcm44-esm100-rsr2-rcr69-esr100.npz,,,,,0,159,159,434,,right,red,0.78,573.4067142009735,573.7770490646362,3,,3,2,lightness,readingArea,realistic,75,2023-03-17_13h40.15.956,tripletExp_regina_11082022,2022.2.4,119.99496481089432,
12,10,9,2,0.027777777777778,3.10526315789474,2,0.694444444444444,1.0,2,0.444444444444444,1.0,ReadingArea_rsl2-rcl2-esl310-rsm2-rcm69-esm100-rsr2-rcr44-esr100,exr/ReadingArea_rsl2-rcl2-esl310-rsm2-rcm69-esm100-rsr2-rcr44-esr100.exr,ReadingArea_rsl2-rcl2-esl310-rsm2-rcm69-esm100-rsr2-rcr44-esr100.npz,,,,,0,160,160,126,,right,red,0.91,575.4925751686096,575.8657801151276,3,,3,2,lightness,readingArea,realistic,75,2023-03-17_13h40.15.956,tripletExp_regina_11082022,2022.2.4,119.99496481089432,
6,10,9,2,0.027777777777778,1.0,2,0.694444444444444,1.0,2,0.444444444444444,1.0,ReadingArea_rsl2-rcl2-esl100-rsm2-rcm69-esm100-rsr2-rcr44-esr100,exr/ReadingArea_rsl2-rcl2-esl100-rsm2-rcm69-esm100-rsr2-rcr44-esr100.exr,ReadingArea_rsl2-rcl2-esl100-rsm2-rcm69-esm100-rsr2-rcr44-esr100.npz,,,,,0,161,161,148,,right,red,0.67,577.5635590553284,577.9424440860748,3,,3,2,lightness,readingArea,realistic,75,2023-03-17_13h40.15.956,tripletExp_regina_11082022,2022.2.4,119.99496481089432,
7,3,12,2,0.111111111111111,1.0,2,0.444444444444444,0.298245614035088,2,0.027777777777778,3.10526315789474,ReadingArea_rsl2-rcl11-esl100-rsm2-rcm44-esm29-rsr2-rcr2-esr310,exr/ReadingArea_rsl2-rcl11-esl100-rsm2-rcm44-esm29-rsr2-rcr2-esr310.exr,ReadingArea_rsl2-rcl11-esl100-rsm2-rcm44-esm29-rsr2-rcr2-esr310.npz,,,,,0,162,162,443,,left,green,4.39,583.1709690093994,583.5438261032104,3,,3,2,lightness,readingArea,realistic,75,2023-03-17_13h40.15.956,tripletExp_regina_11082022,2022.2.4,119.99496481089432,
5,3,6,2,1.0,0.298245614035088,2,0.444444444444444,0.298245614035088,2,0.027777777777778,1.0,ReadingArea_rsl2-rcl100-esl29-rsm2-rcm44-esm29-rsr2-rcr2-esr100,exr/ReadingArea_rsl2-rcl100-esl29-rsm2-rcm44-esm29-rsr2-rcr2-esr100.exr,ReadingArea_rsl2-rcl100-esl29-rsm2-rcm44-esm29-rsr2-rcr2-esr100.npz,,,,,0,163,163,316,,left,green,1.06,585.2365200519562,585.608186006546,3,,3,2,lightness,readingArea,realistic,75,2023-03-17_13h40.15.956,tripletExp_regina_11082022,2022.2.4,119.99496481089432,
8,1,9,2,0.25,1.0,2,0.111111111111111,0.298245614035088,2,0.444444444444444,1.0,ReadingArea_rsl2-rcl25-esl100-rsm2-rcm11-esm29-rsr2-rcr44-esr100,exr/ReadingArea_rsl2-rcl25-esl100-rsm2-rcm11-esm29-rsr2-rcr44-esr100.exr,ReadingArea_rsl2-rcl25-esl100-rsm2-rcm11-esm29-rsr2-rcr44-esr100.npz,,,,,0,164,164,432,,left,green,1.26,587.308098077774,587.677353143692,3,,3,2,lightness,readingArea,realistic,75,2023-03-17_13h40.15.956,tripletExp_regina_11082022,2022.2.4,119.99496481089432,
0,10,14,2,0.027777777777778,0.298245614035088,2,0.694444444444444,1.0,2,0.25,3.10526315789474,ReadingArea_rsl2-rcl2-esl29-rsm2-rcm69-esm100-rsr2-rcr25-esr310,exr/ReadingArea_rsl2-rcl2-esl29-rsm2-rcm69-esm100-rsr2-rcr25-esr310.exr,ReadingArea_rsl2-rcl2-esl29-rsm2-rcm69-esm100-rsr2-rcr25-esr310.npz,,,,,0,165,165,31,,right,red,0.77,589.3759291172028,589.7367610931396,3,,3,2,lightness,readingArea,realistic,75,2023-03-17_13h40.15.956,tripletExp_regina_11082022,2022.2.4,119.99496481089432,
10,13,1,2,0.694444444444444,1.0,2,0.111111111111111,3.10526315789474,2,0.111111111111111,0.298245614035088,ReadingArea_rsl2-rcl69-esl100-rsm2-rcm11-esm310-rsr2-rcr11-esr29,exr/ReadingArea_rsl2-rcl69-esl100-rsm2-rcm11-esm310-rsr2-rcr11-esr29.exr,ReadingArea_rsl2-rcl69-esl100-rsm2-rcm11-esm310-rsr2-rcr11-esr29.npz,,,,,0,166,166,149,,left,green,0.7,591.4503080844879,591.8245611190796,3,,3,2,lightness,readingArea,realistic,75,2023-03-17_13h40.15.956,tripletExp_regina_11082022,2022.2.4,119.99496481089432,
11,1,4,2,1.0,1.0,2,0.111111111111111,0.298245614035088,2,0.694444444444444,0.298245614035088,ReadingArea_rsl2-rcl100-esl100-rsm2-rcm11-esm29-rsr2-rcr69-esr29,exr/ReadingArea_rsl2-rcl100-esl100-rsm2-rcm11-esm29-rsr2-rcr69-esr29.exr,ReadingArea_rsl2-rcl100-esl100-rsm2-rcm11-esm29-rsr2-rcr69-esr29.npz,,,,,0,167,167,110,,right,red,1.09,593.5248892307281,593.8811101913452,3,,3,2,lightness,readingArea,realistic,75,2023-03-17_13h40.15.956,tripletExp_regina_11082022,2022.2.4,119.99496481089432,
7,13,4,2,0.111111111111111,1.0,2,0.111111111111111,3.10526315789474,2,0.694444444444444,0.298245614035088,ReadingArea_rsl2-rcl11-esl100-rsm2-rcm11-esm310-rsr2-rcr69-esr29,exr/ReadingArea_rsl2-rcl11-esl100-rsm2-rcm11-esm310-rsr2-rcr69-esr29.exr,ReadingArea_rsl2-rcl11-esl100-rsm2-rcm11-esm310-rsr2-rcr69-esr29.npz,,,,,0,168,168,456,,right,red,1.13,595.5990750789642,595.9776201248169,3,,3,2,lightness,readingArea,realistic,75,2023-03-17_13h40.15.956,tripletExp_regina_11082022,2022.2.4,119.99496481089432,
1,13,11,2,0.111111111111111,0.298245614035088,2,0.111111111111111,3.10526315789474,2,1.0,1.0,ReadingArea_rsl2-rcl11-esl29-rsm2-rcm11-esm310-rsr2-rcr100-esr100,exr/ReadingArea_rsl2-rcl11-esl29-rsm2-rcm11-esm310-rsr2-rcr100-esr100.exr,ReadingArea_rsl2-rcl11-esl29-rsm2-rcm11-esm310-rsr2-rcr100-esr100.npz,,,,,0,169,169,333,,right,red,1.21,597.6875870227814,598.0419490337372,3,,3,2,lightness,readingArea,realistic,75,2023-03-17_13h40.15.956,tripletExp_regina_11082022,2022.2.4,119.99496481089432,
10,11,13,2,0.694444444444444,1.0,2,1.0,1.0,2,0.111111111111111,3.10526315789474,ReadingArea_rsl2-rcl69-esl100-rsm2-rcm100-esm100-rsr2-rcr11-esr310,exr/ReadingArea_rsl2-rcl69-esl100-rsm2-rcm100-esm100-rsr2-rcr11-esr310.exr,ReadingArea_rsl2-rcl69-esl100-rsm2-rcm100-esm100-rsr2-rcr11-esr310.npz,,,,,0,170,170,79,,left,green,0.97,599.7643601894379,,3,,3,2,lightness,readingArea,realistic,75,2023-03-17_13h40.15.956,tripletExp_regina_11082022,2022.2.4,119.99496481089432,
8,12,3,2,0.25,1.0,2,0.027777777777778,3.10526315789474,2,0.444444444444444,0.298245614035088,ReadingArea_rsl2-rcl25-esl100-rsm2-rcm2-esm310-rsr2-rcr44-esr29,exr/ReadingArea_rsl2-rcl25-esl100-rsm2-rcm2-esm310-rsr2-rcr44-esr29.exr,ReadingArea_rsl2-rcl25-esl100-rsm2-rcm2-esm310-rsr2-rcr44-esr29.npz,,,,,0,171,171,6,,right,red,1.55,601.8432722091675,602.1925480365753,3,,3,2,lightness,readingArea,realistic,75,2023-03-17_13h40.15.956,tripletExp_regina_11082022,2022.2.4,119.99496481089432,
6,10,11,2,0.027777777777778,1.0,2,0.694444444444444,1.0,2,1.0,1.0,ReadingArea_rsl2-rcl2-esl100-rsm2-rcm69-esm100-rsr2-rcr100-esr100,exr/ReadingArea_rsl2-rcl2-esl100-rsm2-rcm69-esm100-rsr2-rcr100-esr100.exr,ReadingArea_rsl2-rcl2-esl100-rsm2-rcm69-esm100-rsr2-rcr100-esr100.npz,,,,,0,172,172,116,,right,red,1.25,603.9087400436401,604.2851421833038,3,,3,2,lightness,readingArea,realistic,75,2023-03-17_13h40.15.956,tripletExp_regina_11082022,2022.2.4,119.99496481089432,
2,5,3,2,0.25,0.298245614035088,2,1.0,0.298245614035088,2,0.444444444444444,0.298245614035088,ReadingArea_rsl2-rcl25-esl29-rsm2-rcm100-esm29-rsr2-rcr44-esr29,exr/ReadingArea_rsl2-rcl25-esl29-rsm2-rcm100-esm29-rsr2-rcr44-esr29.exr,ReadingArea_rsl2-rcl25-esl29-rsm2-rcm100-esm29-rsr2-rcr44-esr29.npz,,,,,0,173,173,135,,right,red,1.59,605.9848940372467,606.3727421760559,3,,3,2,lightness,readingArea,realistic,75,2023-03-17_13h40.15.956,tripletExp_regina_11082022,2022.2.4,119.99496481089432,
10,0,3,2,0.694444444444444,1.0,2,0.027777777777778,0.298245614035088,2,0.444444444444444,0.298245614035088,ReadingArea_rsl2-rcl69-esl100-rsm2-rcm2-esm29-rsr2-rcr44-esr29,exr/ReadingArea_rsl2-rcl69-esl100-rsm2-rcm2-esm29-rsr2-rcr44-esr29.exr,ReadingArea_rsl2-rcl69-esl100-rsm2-rcm2-esm29-rsr2-rcr44-esr29.npz,,,,,0,174,174,87,,right,red,1.27,608.0808520317078,608.4405610561371,3,,3,2,lightness,readingArea,realistic,75,2023-03-17_13h40.15.956,tripletExp_regina_11082022,2022.2.4,119.99496481089432,
14,8,5,2,0.25,3.10526315789474,2,0.25,1.0,2,1.0,0.298245614035088,ReadingArea_rsl2-rcl25-esl310-rsm2-rcm25-esm100-rsr2-rcr100-esr29,exr/ReadingArea_rsl2-rcl25-esl310-rsm2-rcm25-esm100-rsr2-rcr100-esr29.exr,ReadingArea_rsl2-rcl25-esl310-rsm2-rcm25-esm100-rsr2-rcr100-esr29.npz,,,,,0,175,175,28,,right,red,1.42,610.1284780502319,610.4867670536041,3,,3,2,lightness,readingArea,realistic,75,2023-03-17_13h40.15.956,tripletExp_regina_11082022,2022.2.4,119.99496481089432,
4,9,13,2,0.694444444444444,0.298245614035088,2,0.444444444444444,1.0,2,0.111111111111111,3.10526315789474,ReadingArea_rsl2-rcl69-esl29-rsm2-rcm44-esm100-rsr2-rcr11-esr310,exr/ReadingArea_rsl2-rcl69-esl29-rsm2-rcm44-esm100-rsr2-rcr11-esr310.exr,ReadingArea_rsl2-rcl69-esl29-rsm2-rcm44-esm100-rsr2-rcr11-esr310.npz,,,,,0,176,176,488,,right,red,1.39,612.1950731277466,612.5717551708221,3,,3,2,lightness,readingArea,realistic,75,2023-03-17_13h40.15.956,tripletExp_regina_11082022,2022.2.4,119.99496481089432,
13,3,12,2,0.111111111111111,3.10526315789474,2,0.444444444444444,0.298245614035088,2,0.027777777777778,3.10526315789474,ReadingArea_rsl2-rcl11-esl310-rsm2-rcm44-esm29-rsr2-rcr2-esr310,exr/ReadingArea_rsl2-rcl11-esl310-rsm2-rcm44-esm29-rsr2-rcr2-esr310.exr,ReadingArea_rsl2-rcl11-esl310-rsm2-rcm44-esm29-rsr2-rcr2-esr310.npz,,,,,0,177,177,80,,left,green,0.9,614.2753660678864,,3,,3,2,lightness,readingArea,realistic,75,2023-03-17_13h40.15.956,tripletExp_regina_11082022,2022.2.4,119.99496481089432,
1,5,13,2,0.111111111111111,0.298245614035088,2,1.0,0.298245614035088,2,0.111111111111111,3.10526315789474,ReadingArea_rsl2-rcl11-esl29-rsm2-rcm100-esm29-rsr2-rcr11-esr310,exr/ReadingArea_rsl2-rcl11-esl29-rsm2-rcm100-esm29-rsr2-rcr11-esr310.exr,ReadingArea_rsl2-rcl11-esl29-rsm2-rcm100-esm29-rsr2-rcr11-esr310.npz,,,,,0,178,178,598,,right,red,0.69,616.3470661640167,616.7152562141418,3,,3,2,lightness,readingArea,realistic,75,2023-03-17_13h40.15.956,tripletExp_regina_11082022,2022.2.4,119.99496481089432,
10,5,2,2,0.694444444444444,1.0,2,1.0,0.298245614035088,2,0.25,0.298245614035088,ReadingArea_rsl2-rcl69-esl100-rsm2-rcm100-esm29-rsr2-rcr25-esr29,exr/ReadingArea_rsl2-rcl69-esl100-rsm2-rcm100-esm29-rsr2-rcr25-esr29.exr,ReadingArea_rsl2-rcl69-esl100-rsm2-rcm100-esm29-rsr2-rcr25-esr29.npz,,,,,0,179,179,299,,left,green,1.17,618.4166722297668,618.7912261486053,3,,3,2,lightness,readingArea,realistic,75,2023-03-17_13h40.15.956,tripletExp_regina_11082022,2022.2.4,119.99496481089432,
7,11,13,2,0.111111111111111,1.0,2,1.0,1.0,2,0.111111111111111,3.10526315789474,ReadingArea_rsl2-rcl11-esl100-rsm2-rcm100-esm100-rsr2-rcr11-esr310,exr/ReadingArea_rsl2-rcl11-esl100-rsm2-rcm100-esm100-rsr2-rcr11-esr310.exr,ReadingArea_rsl2-rcl11-esl100-rsm2-rcm100-esm100-rsr2-rcr11-esr310.npz,,,,,0,180,180,76,,right,red,1.33,620.512796163559,620.8929631710052,3,,3,2,lightness,readingArea,realistic,75,2023-03-17_13h40.15.956,tripletExp_regina_11082022,2022.2.4,119.99496481089432,
9,0,8,2,0.444444444444444,1.0,2,0.027777777777778,0.298245614035088,2,0.25,1.0,ReadingArea_rsl2-rcl44-esl100-rsm2-rcm2-esm29-rsr2-rcr25-esr100,exr/ReadingArea_rsl2-rcl44-esl100-rsm2-rcm2-esm29-rsr2-rcr25-esr100.exr,ReadingArea_rsl2-rcl44-esl100-rsm2-rcm2-esm29-rsr2-rcr25-esr100.npz,,,,,0,181,181,27,,right,red,1.17,622.615965127945,622.9902291297913,3,,3,2,lightness,readingArea,realistic,75,2023-03-17_13h40.15.956,tripletExp_regina_11082022,2022.2.4,119.99496481089432,
3,0,4,2,0.444444444444444,0.298245614035088,2,0.027777777777778,0.298245614035088,2,0.694444444444444,0.298245614035088,ReadingArea_rsl2-rcl44-esl29-rsm2-rcm2-esm29-rsr2-rcr69-esr29,exr/ReadingArea_rsl2-rcl44-esl29-rsm2-rcm2-esm29-rsr2-rcr69-esr29.exr,ReadingArea_rsl2-rcl44-esl29-rsm2-rcm2-esm29-rsr2-rcr69-esr29.npz,,,,,0,182,182,111,,left,green,1.33,624.7082531452179,625.0552999973297,3,,3,2,lightness,readingArea,realistic,75,2023-03-17_13h40.15.956,tripletExp_regina_11082022,2022.2.4,119.99496481089432,
6,9,5,2,0.027777777777778,1.0,2,0.444444444444444,1.0,2,1.0,0.298245614035088,ReadingArea_rsl2-rcl2-esl100-rsm2-rcm44-esm100-rsr2-rcr100-esr29,exr/ReadingArea_rsl2-rcl2-esl100-rsm2-rcm44-esm100-rsr2-rcr100-esr29.exr,ReadingArea_rsl2-rcl2-esl100-rsm2-rcm44-esm100-rsr2-rcr100-esr29.npz,,,,,0,183,183,29,,right,red,1.37,626.7473771572113,627.218955039978,3,,3,2,lightness,readingArea,realistic,75,2023-03-17_13h40.15.956,tripletExp_regina_11082022,2022.2.4,119.99496481089432,
2,6,10,2,0.25,0.298245614035088,2,0.027777777777778,1.0,2,0.694444444444444,1.0,ReadingArea_rsl2-rcl25-esl29-rsm2-rcm2-esm100-rsr2-rcr69-esr100,exr/ReadingArea_rsl2-rcl25-esl29-rsm2-rcm2-esm100-rsr2-rcr69-esr100.exr,ReadingArea_rsl2-rcl25-esl29-rsm2-rcm2-esm100-rsr2-rcr69-esr100.npz,,,,,0,184,184,42,,left,green,1.49,628.9069871902466,629.2797632217407,3,,3,2,lightness,readingArea,realistic,75,2023-03-17_13h40.15.956,tripletExp_regina_11082022,2022.2.4,119.99496481089432,
6,0,11,2,0.027777777777778,1.0,2,0.027777777777778,0.298245614035088,2,1.0,1.0,ReadingArea_rsl2-rcl2-esl100-rsm2-rcm2-esm29-rsr2-rcr100-esr100,exr/ReadingArea_rsl2-rcl2-esl100-rsm2-rcm2-esm29-rsr2-rcr100-esr100.exr,ReadingArea_rsl2-rcl2-esl100-rsm2-rcm2-esm29-rsr2-rcr100-esr100.npz,,,,,0,185,185,245,,left,green,1.12,631.0022180080414,631.3714570999146,3,,3,2,lightness,readingArea,realistic,75,2023-03-17_13h40.15.956,tripletExp_regina_11082022,2022.2.4,119.99496481089432,
14,13,0,2,0.25,3.10526315789474,2,0.111111111111111,3.10526315789474,2,0.027777777777778,0.298245614035088,ReadingArea_rsl2-rcl25-esl310-rsm2-rcm11-esm310-rsr2-rcr2-esr29,exr/ReadingArea_rsl2-rcl25-esl310-rsm2-rcm11-esm310-rsr2-rcr2-esr29.exr,ReadingArea_rsl2-rcl25-esl310-rsm2-rcm11-esm310-rsr2-rcr2-esr29.npz,,,,,0,186,186,417,,left,green,2.07,634.8672502040863,635.232577085495,3,,3,2,lightness,readingArea,realistic,75,2023-03-17_13h40.15.956,tripletExp_regina_11082022,2022.2.4,119.99496481089432,
8,9,1,2,0.25,1.0,2,0.444444444444444,1.0,2,0.111111111111111,0.298245614035088,ReadingArea_rsl2-rcl25-esl100-rsm2-rcm44-esm100-rsr2-rcr11-esr29,exr/ReadingArea_rsl2-rcl25-esl100-rsm2-rcm44-esm100-rsr2-rcr11-esr29.exr,ReadingArea_rsl2-rcl25-esl100-rsm2-rcm44-esm100-rsr2-rcr11-esr29.npz,,,,,0,187,187,266,,left,green,1.11,636.9565870761871,637.362184047699,3,,3,2,lightness,readingArea,realistic,75,2023-03-17_13h40.15.956,tripletExp_regina_11082022,2022.2.4,119.99496481089432,
4,12,5,2,0.694444444444444,0.298245614035088,2,0.027777777777778,3.10526315789474,2,1.0,0.298245614035088,ReadingArea_rsl2-rcl69-esl29-rsm2-rcm2-esm310-rsr2-rcr100-esr29,exr/ReadingArea_rsl2-rcl69-esl29-rsm2-rcm2-esm310-rsr2-rcr100-esr29.exr,ReadingArea_rsl2-rcl69-esl29-rsm2-rcm2-esm310-rsr2-rcr100-esr29.npz,,,,,0,188,188,296,,left,green,3.23,640.8292660713196,,3,,3,2,lightness,readingArea,realistic,75,2023-03-17_13h40.15.956,tripletExp_regina_11082022,2022.2.4,119.99496481089432,
4,2,9,2,0.694444444444444,0.298245614035088,2,0.25,0.298245614035088,2,0.444444444444444,1.0,ReadingArea_rsl2-rcl69-esl29-rsm2-rcm25-esm29-rsr2-rcr44-esr100,exr/ReadingArea_rsl2-rcl69-esl29-rsm2-rcm25-esm29-rsr2-rcr44-esr100.exr,ReadingArea_rsl2-rcl69-esl29-rsm2-rcm25-esm29-rsr2-rcr44-esr100.npz,,,,,0,189,189,479,,left,green,1.55,642.8876180648804,643.2578270435333,3,,3,2,lightness,readingArea,realistic,75,2023-03-17_13h40.15.956,tripletExp_regina_11082022,2022.2.4,119.99496481089432,
3,14,5,2,0.444444444444444,0.298245614035088,2,0.25,3.10526315789474,2,1.0,0.298245614035088,ReadingArea_rsl2-rcl44-esl29-rsm2-rcm25-esm310-rsr2-rcr100-esr29,exr/ReadingArea_rsl2-rcl44-esl29-rsm2-rcm25-esm310-rsr2-rcr100-esr29.exr,ReadingArea_rsl2-rcl44-esl29-rsm2-rcm25-esm310-rsr2-rcr100-esr29.npz,,,,,0,190,190,131,,left,green,1.43,644.9693400859833,645.3635230064392,3,,3,2,lightness,readingArea,realistic,75,2023-03-17_13h40.15.956,tripletExp_regina_11082022,2022.2.4,119.99496481089432,
10,11,4,2,0.694444444444444,1.0,2,1.0,1.0,2,0.694444444444444,0.298245614035088,ReadingArea_rsl2-rcl69-esl100-rsm2-rcm100-esm100-rsr2-rcr69-esr29,exr/ReadingArea_rsl2-rcl69-esl100-rsm2-rcm100-esm100-rsr2-rcr69-esr29.exr,ReadingArea_rsl2-rcl69-esl100-rsm2-rcm100-esm100-rsr2-rcr69-esr29.npz,,,,,0,191,191,239,,left,green,1.21,647.063558101654,,3,,3,2,lightness,readingArea,realistic,75,2023-03-17_13h40.15.956,tripletExp_regina_11082022,2022.2.4,119.99496481089432,
1,14,0,2,0.111111111111111,0.298245614035088,2,0.25,3.10526315789474,2,0.027777777777778,0.298245614035088,ReadingArea_rsl2-rcl11-esl29-rsm2-rcm25-esm310-rsr2-rcr2-esr29,exr/ReadingArea_rsl2-rcl11-esl29-rsm2-rcm25-esm310-rsr2-rcr2-esr29.exr,ReadingArea_rsl2-rcl11-esl29-rsm2-rcm25-esm310-rsr2-rcr2-esr29.npz,,,,,0,192,192,394,,left,green,1.32,649.1603350639343,649.5625162124634,3,,3,2,lightness,readingArea,realistic,75,2023-03-17_13h40.15.956,tripletExp_regina_11082022,2022.2.4,119.99496481089432,
12,9,14,2,0.027777777777778,3.10526315789474,2,0.444444444444444,1.0,2,0.25,3.10526315789474,ReadingArea_rsl2-rcl2-esl310-rsm2-rcm44-esm100-rsr2-rcr25-esr310,exr/ReadingArea_rsl2-rcl2-esl310-rsm2-rcm44-esm100-rsr2-rcr25-esr310.exr,ReadingArea_rsl2-rcl2-esl310-rsm2-rcm44-esm100-rsr2-rcr25-esr310.npz,,,,,0,193,193,123,,right,red,1.01,651.2738890647888,651.6526100635529,3,,3,2,lightness,readingArea,realistic,75,2023-03-17_13h40.15.956,tripletExp_regina_11082022,2022.2.4,119.99496481089432,
12,8,10,2,0.027777777777778,3.10526315789474,2,0.25,1.0,2,0.694444444444444,1.0,ReadingArea_rsl2-rcl2-esl310-rsm2-rcm25-esm100-rsr2-rcr69-esr100,exr/ReadingArea_rsl2-rcl2-esl310-rsm2-rcm25-esm100-rsr2-rcr69-esr100.exr,ReadingArea_rsl2-rcl2-esl310-rsm2-rcm25-esm100-rsr2-rcr69-esr100.npz,,,,,0,194,194,216,,left,green,3.02,655.1378901004791,655.5106770992279,3,,3,2,lightness,readingArea,realistic,75,2023-03-17_13h40.15.956,tripletExp_regina_11082022,2022.2.4,119.99496481089432,
11,9,4,2,1.0,1.0,2,0.444444444444444,1.0,2,0.694444444444444,0.298245614035088,ReadingArea_rsl2-rcl100-esl100-rsm2-rcm44-esm100-rsr2-rcr69-esr29,exr/ReadingArea_rsl2-rcl100-esl100-rsm2-rcm44-esm100-rsr2-rcr69-esr29.exr,ReadingArea_rsl2-rcl100-esl100-rsm2-rcm44-esm100-rsr2-rcr69-esr29.npz,,,,,0,195,195,26,,left,green,1.4,657.2216370105743,657.5903091430664,3,,3,2,lightness,readingArea,realistic,75,2023-03-17_13h40.15.956,tripletExp_regina_11082022,2022.2.4,119.99496481089432,
2,3,13,2,0.25,0.298245614035088,2,0.444444444444444,0.298245614035088,2,0.111111111111111,3.10526315789474,ReadingArea_rsl2-rcl25-esl29-rsm2-rcm44-esm29-rsr2-rcr11-esr310,exr/ReadingArea_rsl2-rcl25-esl29-rsm2-rcm44-esm29-rsr2-rcr11-esr310.exr,ReadingArea_rsl2-rcl25-esl29-rsm2-rcm44-esm29-rsr2-rcr11-esr310.npz,,,,,0,196,196,498,,left,green,1.5,659.2828471660614,659.6616771221161,3,,3,2,lightness,readingArea,realistic,75,2023-03-17_13h40.15.956,tripletExp_regina_11082022,2022.2.4,119.99496481089432,
12,3,0,2,0.027777777777778,3.10526315789474,2,0.444444444444444,0.298245614035088,2,0.027777777777778,0.298245614035088,ReadingArea_rsl2-rcl2-esl310-rsm2-rcm44-esm29-rsr2-rcr2-esr29,exr/ReadingArea_rsl2-rcl2-esl310-rsm2-rcm44-esm29-rsr2-rcr2-esr29.exr,ReadingArea_rsl2-rcl2-esl310-rsm2-rcm44-esm29-rsr2-rcr2-esr29.npz,,,,,0,197,197,502,,left,green,1.67,661.383082151413,661.7351560592651,3,,3,2,lightness,readingArea,realistic,75,2023-03-17_13h40.15.956,tripletExp_regina_11082022,2022.2.4,119.99496481089432,
2,3,6,2,0.25,0.298245614035088,2,0.444444444444444,0.298245614035088,2,0.027777777777778,1.0,ReadingArea_rsl2-rcl25-esl29-rsm2-rcm44-esm29-rsr2-rcr2-esr100,exr/ReadingArea_rsl2-rcl25-esl29-rsm2-rcm44-esm29-rsr2-rcr2-esr100.exr,ReadingArea_rsl2-rcl25-esl29-rsm2-rcm44-esm29-rsr2-rcr2-esr100.npz,,,,,0,198,198,357,,left,green,1.27,663.4353730678558,663.8106000423431,3,,3,2,lightness,readingArea,realistic,75,2023-03-17_13h40.15.956,tripletExp_regina_11082022,2022.2.4,119.99496481089432,
8,6,0,2,0.25,1.0,2,0.027777777777778,1.0,2,0.027777777777778,0.298245614035088,ReadingArea_rsl2-rcl25-esl100-rsm2-rcm2-esm100-rsr2-rcr2-esr29,exr/ReadingArea_rsl2-rcl25-esl100-rsm2-rcm2-esm100-rsr2-rcr2-esr29.exr,ReadingArea_rsl2-rcl25-esl100-rsm2-rcm2-esm100-rsr2-rcr2-esr29.npz,,,,,0,199,199,187,,right,red,1.42,665.5119771957397,665.8921411037445,3,,3,2,lightness,readingArea,realistic,75,2023-03-17_13h40.15.956,tripletExp_regina_11082022,2022.2.4,119.99496481089432,
9,4,6,2,0.444444444444444,1.0,2,0.694444444444444,0.298245614035088,2,0.027777777777778,1.0,ReadingArea_rsl2-rcl44-esl100-rsm2-rcm69-esm29-rsr2-rcr2-esr100,exr/ReadingArea_rsl2-rcl44-esl100-rsm2-rcm69-esm29-rsr2-rcr2-esr100.exr,ReadingArea_rsl2-rcl44-esl100-rsm2-rcm69-esm29-rsr2-rcr2-esr100.npz,,,,,0,200,200,453,,left,green,1.28,667.6135711669922,667.9801380634308,3,,3,2,lightness,readingArea,realistic,75,2023-03-17_13h40.15.956,tripletExp_regina_11082022,2022.2.4,119.99496481089432,
10,12,9,2,0.694444444444444,1.0,2,0.027777777777778,3.10526315789474,2,0.444444444444444,1.0,ReadingArea_rsl2-rcl69-esl100-rsm2-rcm2-esm310-rsr2-rcr44-esr100,exr/ReadingArea_rsl2-rcl69-esl100-rsm2-rcm2-esm310-rsr2-rcr44-esr100.exr,ReadingArea_rsl2-rcl69-esl100-rsm2-rcm2-esm310-rsr2-rcr44-esr100.npz,,,,,0,201,201,405,,right,red,3.05,671.469152212143,671.856005191803,3,,3,2,lightness,readingArea,realistic,75,2023-03-17_13h40.15.956,tripletExp_regina_11082022,2022.2.4,119.99496481089432,
9,14,7,2,0.444444444444444,1.0,2,0.25,3.10526315789474,2,0.111111111111111,1.0,ReadingArea_rsl2-rcl44-esl100-rsm2-rcm25-esm310-rsr2-rcr11-esr100,exr/ReadingArea_rsl2-rcl44-esl100-rsm2-rcm25-esm310-rsr2-rcr11-esr100.exr,ReadingArea_rsl2-rcl44-esl100-rsm2-rcm25-esm310-rsr2-rcr11-esr100.npz,,,,,0,202,202,44,,left,green,1.73,673.5797681808472,673.9621291160583,3,,3,2,lightness,readingArea,realistic,75,2023-03-17_13h40.15.956,tripletExp_regina_11082022,2022.2.4,119.99496481089432,
13,0,12,2,0.111111111111111,3.10526315789474,2,0.027777777777778,0.298245614035088,2,0.027777777777778,3.10526315789474,ReadingArea_rsl2-rcl11-esl310-rsm2-rcm2-esm29-rsr2-rcr2-esr310,exr/ReadingArea_rsl2-rcl11-esl310-rsm2-rcm2-esm29-rsr2-rcr2-esr310.exr,ReadingArea_rsl2-rcl11-esl310-rsm2-rcm2-esm29-rsr2-rcr2-esr310.npz,,,,,0,203,203,56,,right,red,1.45,675.6626000404358,676.0194191932678,3,,3,2,lightness,readingArea,realistic,75,2023-03-17_13h40.15.956,tripletExp_regina_11082022,2022.2.4,119.99496481089432,
