index_left,index_middle,index_right,reflectance_surround_left,reflectance_center_left,emission_spot_left,reflectance_surround_middle,reflectance_center_middle,emission_spot_middle,reflectance_surround_right,reflectance_center_right,emission_spot_right,ImageName,ImageExr,ImageNpy,trials_2.thisRepN,trials_2.thisTrialN,trials_2.thisN,trials_2.thisIndex,trials.thisRepN,trials.thisTrialN,trials.thisN,trials.thisIndex,sound_1.started,BB_Trial.resp,BB_Trial.color,BB_Trial.rt,text.started,text.stopped,sound_2.started,block,sound_4.started,participant,session,L/B,scene,condition,nTrialsPerBlock,date,expName,psychopyVersion,frameRate,Unnamed: 42
9,3,8,0,0.444444444444444,1.0,0,0.444444444444444,0.298245614035088,0,0.25,1.0,ReadingArea_rsl0-rcl44-esl100-rsm0-rcm44-esm29-rsr0-rcr25-esr100,exr/ReadingArea_rsl0-rcl44-esl100-rsm0-rcm44-esm29-rsr0-rcr25-esr100.exr,ReadingArea_rsl0-rcl44-esl100-rsm0-rcm44-esm29-rsr0-rcr25-esr100.npz,,,,,0,0,0,530,119.22515501976014,right,red,0.97,157.93926882743835,158.37385988235474,96.59682216644288,1,,2,7,lightness,readingArea,realistic,75,2023-03-27_14h18.07.292,tripletExp_regina_11082022,2022.2.4,119.64753034473904,
4,8,0,0,0.694444444444444,0.298245614035088,0,0.25,1.0,0,0.027777777777778,0.298245614035088,ReadingArea_rsl0-rcl69-esl29-rsm0-rcm25-esm100-rsr0-rcr2-esr29,exr/ReadingArea_rsl0-rcl69-esl29-rsm0-rcm25-esm100-rsr0-rcr2-esr29.exr,ReadingArea_rsl0-rcl69-esl29-rsm0-rcm25-esm100-rsr0-rcr2-esr29.npz,,,,,0,1,1,137,,left,green,1.28,160.07652592658997,,,1,,2,7,lightness,readingArea,realistic,75,2023-03-27_14h18.07.292,tripletExp_regina_11082022,2022.2.4,119.64753034473904,
13,6,0,0,0.111111111111111,3.10526315789474,0,0.027777777777778,1.0,0,0.027777777777778,0.298245614035088,ReadingArea_rsl0-rcl11-esl310-rsm0-rcm2-esm100-rsr0-rcr2-esr29,exr/ReadingArea_rsl0-rcl11-esl310-rsm0-rcm2-esm100-rsr0-rcr2-esr29.exr,ReadingArea_rsl0-rcl11-esl310-rsm0-rcm2-esm100-rsr0-rcr2-esr29.npz,,,,,0,2,2,309,,right,red,0.9,162.23588490486145,162.63725900650024,,1,,2,7,lightness,readingArea,realistic,75,2023-03-27_14h18.07.292,tripletExp_regina_11082022,2022.2.4,119.64753034473904,
5,3,2,0,1.0,0.298245614035088,0,0.444444444444444,0.298245614035088,0,0.25,0.298245614035088,ReadingArea_rsl0-rcl100-esl29-rsm0-rcm44-esm29-rsr0-rcr25-esr29,exr/ReadingArea_rsl0-rcl100-esl29-rsm0-rcm44-esm29-rsr0-rcr25-esr29.exr,ReadingArea_rsl0-rcl100-esl29-rsm0-rcm44-esm29-rsr0-rcr25-esr29.npz,,,,,0,3,3,143,,right,red,0.65,164.3443808555603,164.74647188186646,,1,,2,7,lightness,readingArea,realistic,75,2023-03-27_14h18.07.292,tripletExp_regina_11082022,2022.2.4,119.64753034473904,
13,8,5,0,0.111111111111111,3.10526315789474,0,0.25,1.0,0,1.0,0.298245614035088,ReadingArea_rsl0-rcl11-esl310-rsm0-rcm25-esm100-rsr0-rcr100-esr29,exr/ReadingArea_rsl0-rcl11-esl310-rsm0-rcm25-esm100-rsr0-rcr100-esr29.exr,ReadingArea_rsl0-rcl11-esl310-rsm0-rcm25-esm100-rsr0-rcr100-esr29.npz,,,,,0,4,4,209,,right,red,0.97,166.45233488082886,166.85443997383118,,1,,2,7,lightness,readingArea,realistic,75,2023-03-27_14h18.07.292,tripletExp_regina_11082022,2022.2.4,119.64753034473904,
5,10,0,0,1.0,0.298245614035088,0,0.694444444444444,1.0,0,0.027777777777778,0.298245614035088,ReadingArea_rsl0-rcl100-esl29-rsm0-rcm69-esm100-rsr0-rcr2-esr29,exr/ReadingArea_rsl0-rcl100-esl29-rsm0-rcm69-esm100-rsr0-rcr2-esr29.exr,ReadingArea_rsl0-rcl100-esl29-rsm0-rcm69-esm100-rsr0-rcr2-esr29.npz,,,,,0,5,5,293,,left,green,1.28,168.56960892677307,168.9738450050354,,1,,2,7,lightness,readingArea,realistic,75,2023-03-27_14h18.07.292,tripletExp_regina_11082022,2022.2.4,119.64753034473904,
9,6,1,0,0.444444444444444,1.0,0,0.027777777777778,1.0,0,0.111111111111111,0.298245614035088,ReadingArea_rsl0-rcl44-esl100-rsm0-rcm2-esm100-rsr0-rcr11-esr29,exr/ReadingArea_rsl0-rcl44-esl100-rsm0-rcm2-esm100-rsr0-rcr11-esr29.exr,ReadingArea_rsl0-rcl44-esl100-rsm0-rcm2-esm100-rsr0-rcr11-esr29.npz,,,,,0,6,6,526,,right,red,1.01,170.68275785446167,171.07967901229858,,1,,2,7,lightness,readingArea,realistic,75,2023-03-27_14h18.07.292,tripletExp_regina_11082022,2022.2.4,119.64753034473904,
10,11,12,0,0.694444444444444,1.0,0,1.0,1.0,0,0.027777777777778,3.10526315789474,ReadingArea_rsl0-rcl69-esl100-rsm0-rcm100-esm100-rsr0-rcr2-esr310,exr/ReadingArea_rsl0-rcl69-esl100-rsm0-rcm100-esm100-rsr0-rcr2-esr310.exr,ReadingArea_rsl0-rcl69-esl100-rsm0-rcm100-esm100-rsr0-rcr2-esr310.npz,,,,,0,7,7,533,,left,green,1.15,172.77362489700317,173.17481684684753,,1,,2,7,lightness,readingArea,realistic,75,2023-03-27_14h18.07.292,tripletExp_regina_11082022,2022.2.4,119.64753034473904,
5,4,10,0,1.0,0.298245614035088,0,0.694444444444444,0.298245614035088,0,0.694444444444444,1.0,ReadingArea_rsl0-rcl100-esl29-rsm0-rcm69-esm29-rsr0-rcr69-esr100,exr/ReadingArea_rsl0-rcl100-esl29-rsm0-rcm69-esm29-rsr0-rcr69-esr100.exr,ReadingArea_rsl0-rcl100-esl29-rsm0-rcm69-esm29-rsr0-rcr69-esr100.npz,,,,,0,8,8,536,,left,green,1.13,174.86446690559387,175.2647888660431,,1,,2,7,lightness,readingArea,realistic,75,2023-03-27_14h18.07.292,tripletExp_regina_11082022,2022.2.4,119.64753034473904,
9,11,5,0,0.444444444444444,1.0,0,1.0,1.0,0,1.0,0.298245614035088,ReadingArea_rsl0-rcl44-esl100-rsm0-rcm100-esm100-rsr0-rcr100-esr29,exr/ReadingArea_rsl0-rcl44-esl100-rsm0-rcm100-esm100-rsr0-rcr100-esr29.exr,ReadingArea_rsl0-rcl44-esl100-rsm0-rcm100-esm100-rsr0-rcr100-esr29.npz,,,,,0,9,9,142,,left,green,2.27,178.76647901535034,179.1683428287506,,1,,2,7,lightness,readingArea,realistic,75,2023-03-27_14h18.07.292,tripletExp_regina_11082022,2022.2.4,119.64753034473904,
3,6,10,0,0.444444444444444,0.298245614035088,0,0.027777777777778,1.0,0,0.694444444444444,1.0,ReadingArea_rsl0-rcl44-esl29-rsm0-rcm2-esm100-rsr0-rcr69-esr100,exr/ReadingArea_rsl0-rcl44-esl29-rsm0-rcm2-esm100-rsr0-rcr69-esr100.exr,ReadingArea_rsl0-rcl44-esl29-rsm0-rcm2-esm100-rsr0-rcr69-esr100.npz,,,,,0,10,10,138,,left,green,0.93,180.8840608596801,181.2858779430389,,1,,2,7,lightness,readingArea,realistic,75,2023-03-27_14h18.07.292,tripletExp_regina_11082022,2022.2.4,119.64753034473904,
1,0,4,0,0.111111111111111,0.298245614035088,0,0.027777777777778,0.298245614035088,0,0.694444444444444,0.298245614035088,ReadingArea_rsl0-rcl11-esl29-rsm0-rcm2-esm29-rsr0-rcr69-esr29,exr/ReadingArea_rsl0-rcl11-esl29-rsm0-rcm2-esm29-rsr0-rcr69-esr29.exr,ReadingArea_rsl0-rcl11-esl29-rsm0-rcm2-esm29-rsr0-rcr69-esr29.npz,,,,,0,11,11,494,,left,green,0.77,183.00925302505493,183.42560386657715,,1,,2,7,lightness,readingArea,realistic,75,2023-03-27_14h18.07.292,tripletExp_regina_11082022,2022.2.4,119.64753034473904,
8,12,7,0,0.25,1.0,0,0.027777777777778,3.10526315789474,0,0.111111111111111,1.0,ReadingArea_rsl0-rcl25-esl100-rsm0-rcm2-esm310-rsr0-rcr11-esr100,exr/ReadingArea_rsl0-rcl25-esl100-rsm0-rcm2-esm310-rsr0-rcr11-esr100.exr,ReadingArea_rsl0-rcl25-esl100-rsm0-rcm2-esm310-rsr0-rcr11-esr100.npz,,,,,0,12,12,467,,right,red,2.97,186.87629103660583,187.27717995643616,,1,,2,7,lightness,readingArea,realistic,75,2023-03-27_14h18.07.292,tripletExp_regina_11082022,2022.2.4,119.64753034473904,
2,9,8,0,0.25,0.298245614035088,0,0.444444444444444,1.0,0,0.25,1.0,ReadingArea_rsl0-rcl25-esl29-rsm0-rcm44-esm100-rsr0-rcr25-esr100,exr/ReadingArea_rsl0-rcl25-esl29-rsm0-rcm44-esm100-rsr0-rcr25-esr100.exr,ReadingArea_rsl0-rcl25-esl29-rsm0-rcm44-esm100-rsr0-rcr25-esr100.npz,,,,,0,13,13,407,,right,red,3.16,190.76502990722656,191.21610498428345,,1,,2,7,lightness,readingArea,realistic,75,2023-03-27_14h18.07.292,tripletExp_regina_11082022,2022.2.4,119.64753034473904,
6,0,1,0,0.027777777777778,1.0,0,0.027777777777778,0.298245614035088,0,0.111111111111111,0.298245614035088,ReadingArea_rsl0-rcl2-esl100-rsm0-rcm2-esm29-rsr0-rcr11-esr29,exr/ReadingArea_rsl0-rcl2-esl100-rsm0-rcm2-esm29-rsr0-rcr11-esr29.exr,ReadingArea_rsl0-rcl2-esl100-rsm0-rcm2-esm29-rsr0-rcr11-esr29.npz,,,,,0,14,14,302,,left,green,3.07,194.67872190475464,195.1157829761505,,1,,2,7,lightness,readingArea,realistic,75,2023-03-27_14h18.07.292,tripletExp_regina_11082022,2022.2.4,119.64753034473904,
4,5,8,0,0.694444444444444,0.298245614035088,0,1.0,0.298245614035088,0,0.25,1.0,ReadingArea_rsl0-rcl69-esl29-rsm0-rcm100-esm29-rsr0-rcr25-esr100,exr/ReadingArea_rsl0-rcl69-esl29-rsm0-rcm100-esm29-rsr0-rcr25-esr100.exr,ReadingArea_rsl0-rcl69-esl29-rsm0-rcm100-esm29-rsr0-rcr25-esr100.npz,,,,,0,15,15,54,,left,green,0.98,196.80806398391724,197.2111918926239,,1,,2,7,lightness,readingArea,realistic,75,2023-03-27_14h18.07.292,tripletExp_regina_11082022,2022.2.4,119.64753034473904,
8,7,13,0,0.25,1.0,0,0.111111111111111,1.0,0,0.111111111111111,3.10526315789474,ReadingArea_rsl0-rcl25-esl100-rsm0-rcm11-esm100-rsr0-rcr11-esr310,exr/ReadingArea_rsl0-rcl25-esl100-rsm0-rcm11-esm100-rsr0-rcr11-esr310.exr,ReadingArea_rsl0-rcl25-esl100-rsm0-rcm11-esm100-rsr0-rcr11-esr310.npz,,,,,0,16,16,512,,right,red,1.52,198.93243384361267,199.33796095848083,,1,,2,7,lightness,readingArea,realistic,75,2023-03-27_14h18.07.292,tripletExp_regina_11082022,2022.2.4,119.64753034473904,
11,10,0,0,1.0,1.0,0,0.694444444444444,1.0,0,0.027777777777778,0.298245614035088,ReadingArea_rsl0-rcl100-esl100-rsm0-rcm69-esm100-rsr0-rcr2-esr29,exr/ReadingArea_rsl0-rcl100-esl100-rsm0-rcm69-esm100-rsr0-rcr2-esr29.exr,ReadingArea_rsl0-rcl100-esl100-rsm0-rcm69-esm100-rsr0-rcr2-esr29.npz,,,,,0,17,17,549,,left,green,3.5,202.81899785995483,203.2228078842163,,1,,2,7,lightness,readingArea,realistic,75,2023-03-27_14h18.07.292,tripletExp_regina_11082022,2022.2.4,119.64753034473904,
7,5,1,0,0.111111111111111,1.0,0,1.0,0.298245614035088,0,0.111111111111111,0.298245614035088,ReadingArea_rsl0-rcl11-esl100-rsm0-rcm100-esm29-rsr0-rcr11-esr29,exr/ReadingArea_rsl0-rcl11-esl100-rsm0-rcm100-esm29-rsr0-rcr11-esr29.exr,ReadingArea_rsl0-rcl11-esl100-rsm0-rcm100-esm29-rsr0-rcr11-esr29.npz,,,,,0,18,18,513,,right,red,1.51,204.9187560081482,205.3208289146424,,1,,2,7,lightness,readingArea,realistic,75,2023-03-27_14h18.07.292,tripletExp_regina_11082022,2022.2.4,119.64753034473904,
14,8,2,0,0.25,3.10526315789474,0,0.25,1.0,0,0.25,0.298245614035088,ReadingArea_rsl0-rcl25-esl310-rsm0-rcm25-esm100-rsr0-rcr25-esr29,exr/ReadingArea_rsl0-rcl25-esl310-rsm0-rcm25-esm100-rsr0-rcr25-esr29.exr,ReadingArea_rsl0-rcl25-esl310-rsm0-rcm25-esm100-rsr0-rcr25-esr29.npz,,,,,0,19,19,251,,right,red,1.02,207.03756499290463,207.43732595443728,,1,,2,7,lightness,readingArea,realistic,75,2023-03-27_14h18.07.292,tripletExp_regina_11082022,2022.2.4,119.64753034473904,
10,12,9,0,0.694444444444444,1.0,0,0.027777777777778,3.10526315789474,0,0.444444444444444,1.0,ReadingArea_rsl0-rcl69-esl100-rsm0-rcm2-esm310-rsr0-rcr44-esr100,exr/ReadingArea_rsl0-rcl69-esl100-rsm0-rcm2-esm310-rsr0-rcr44-esr100.exr,ReadingArea_rsl0-rcl69-esl100-rsm0-rcm2-esm310-rsr0-rcr44-esr100.npz,,,,,0,20,20,405,,right,red,3.59,212.70201086997983,213.1152949333191,,1,,2,7,lightness,readingArea,realistic,75,2023-03-27_14h18.07.292,tripletExp_regina_11082022,2022.2.4,119.64753034473904,
9,2,12,0,0.444444444444444,1.0,0,0.25,0.298245614035088,0,0.027777777777778,3.10526315789474,ReadingArea_rsl0-rcl44-esl100-rsm0-rcm25-esm29-rsr0-rcr2-esr310,exr/ReadingArea_rsl0-rcl44-esl100-rsm0-rcm25-esm29-rsr0-rcr2-esr310.exr,ReadingArea_rsl0-rcl44-esl100-rsm0-rcm25-esm29-rsr0-rcr2-esr310.npz,,,,,0,21,21,391,,right,red,1.58,214.8323628902436,215.23331880569447,,1,,2,7,lightness,readingArea,realistic,75,2023-03-27_14h18.07.292,tripletExp_regina_11082022,2022.2.4,119.64753034473904,
0,4,12,0,0.027777777777778,0.298245614035088,0,0.694444444444444,0.298245614035088,0,0.027777777777778,3.10526315789474,ReadingArea_rsl0-rcl2-esl29-rsm0-rcm69-esm29-rsr0-rcr2-esr310,exr/ReadingArea_rsl0-rcl2-esl29-rsm0-rcm69-esm29-rsr0-rcr2-esr310.exr,ReadingArea_rsl0-rcl2-esl29-rsm0-rcm69-esm29-rsr0-rcr2-esr310.npz,,,,,0,22,22,150,,right,red,4.23,220.49705386161804,220.9174518585205,,1,,2,7,lightness,readingArea,realistic,75,2023-03-27_14h18.07.292,tripletExp_regina_11082022,2022.2.4,119.64753034473904,
12,2,9,0,0.027777777777778,3.10526315789474,0,0.25,0.298245614035088,0,0.444444444444444,1.0,ReadingArea_rsl0-rcl2-esl310-rsm0-rcm25-esm29-rsr0-rcr44-esr100,exr/ReadingArea_rsl0-rcl2-esl310-rsm0-rcm25-esm29-rsr0-rcr44-esr100.exr,ReadingArea_rsl0-rcl2-esl310-rsm0-rcm25-esm29-rsr0-rcr44-esr100.npz,,,,,0,23,23,495,,left,green,1.51,222.64177584648127,223.04382586479187,,1,,2,7,lightness,readingArea,realistic,75,2023-03-27_14h18.07.292,tripletExp_regina_11082022,2022.2.4,119.64753034473904,
11,2,4,0,1.0,1.0,0,0.25,0.298245614035088,0,0.694444444444444,0.298245614035088,ReadingArea_rsl0-rcl100-esl100-rsm0-rcm25-esm29-rsr0-rcr69-esr29,exr/ReadingArea_rsl0-rcl100-esl100-rsm0-rcm25-esm29-rsr0-rcr69-esr29.exr,ReadingArea_rsl0-rcl100-esl100-rsm0-rcm25-esm29-rsr0-rcr69-esr29.npz,,,,,0,24,24,359,,right,red,0.98,224.7671058177948,225.1671068668365,,1,,2,7,lightness,readingArea,realistic,75,2023-03-27_14h18.07.292,tripletExp_regina_11082022,2022.2.4,119.64753034473904,
3,4,13,0,0.444444444444444,0.298245614035088,0,0.694444444444444,0.298245614035088,0,0.111111111111111,3.10526315789474,ReadingArea_rsl0-rcl44-esl29-rsm0-rcm69-esm29-rsr0-rcr11-esr310,exr/ReadingArea_rsl0-rcl44-esl29-rsm0-rcm69-esm29-rsr0-rcr11-esr310.exr,ReadingArea_rsl0-rcl44-esl29-rsm0-rcm69-esm29-rsr0-rcr11-esr310.npz,,,,,0,25,25,63,,right,red,4.46,230.44605088233948,230.85501194000244,,1,,2,7,lightness,readingArea,realistic,75,2023-03-27_14h18.07.292,tripletExp_regina_11082022,2022.2.4,119.64753034473904,
5,6,0,0,1.0,0.298245614035088,0,0.027777777777778,1.0,0,0.027777777777778,0.298245614035088,ReadingArea_rsl0-rcl100-esl29-rsm0-rcm2-esm100-rsr0-rcr2-esr29,exr/ReadingArea_rsl0-rcl100-esl29-rsm0-rcm2-esm100-rsr0-rcr2-esr29.exr,ReadingArea_rsl0-rcl100-esl29-rsm0-rcm2-esm100-rsr0-rcr2-esr29.npz,,,,,0,26,26,511,,right,red,1.14,232.56325793266296,232.9708969593048,,1,,2,7,lightness,readingArea,realistic,75,2023-03-27_14h18.07.292,tripletExp_regina_11082022,2022.2.4,119.64753034473904,
3,8,1,0,0.444444444444444,0.298245614035088,0,0.25,1.0,0,0.111111111111111,0.298245614035088,ReadingArea_rsl0-rcl44-esl29-rsm0-rcm25-esm100-rsr0-rcr11-esr29,exr/ReadingArea_rsl0-rcl44-esl29-rsm0-rcm25-esm100-rsr0-rcr11-esr29.exr,ReadingArea_rsl0-rcl44-esl29-rsm0-rcm25-esm100-rsr0-rcr11-esr29.npz,,,,,0,27,27,230,,left,green,1.34,234.6761338710785,235.08728885650635,,1,,2,7,lightness,readingArea,realistic,75,2023-03-27_14h18.07.292,tripletExp_regina_11082022,2022.2.4,119.64753034473904,
11,5,3,0,1.0,1.0,0,1.0,0.298245614035088,0,0.444444444444444,0.298245614035088,ReadingArea_rsl0-rcl100-esl100-rsm0-rcm100-esm29-rsr0-rcr44-esr29,exr/ReadingArea_rsl0-rcl100-esl100-rsm0-rcm100-esm29-rsr0-rcr44-esr29.exr,ReadingArea_rsl0-rcl100-esl100-rsm0-rcm100-esm29-rsr0-rcr44-esr29.npz,,,,,0,28,28,172,,right,red,1.56,236.79846000671387,237.2033278942108,,1,,2,7,lightness,readingArea,realistic,75,2023-03-27_14h18.07.292,tripletExp_regina_11082022,2022.2.4,119.64753034473904,
11,0,10,0,1.0,1.0,0,0.027777777777778,0.298245614035088,0,0.694444444444444,1.0,ReadingArea_rsl0-rcl100-esl100-rsm0-rcm2-esm29-rsr0-rcr69-esr100,exr/ReadingArea_rsl0-rcl100-esl100-rsm0-rcm2-esm29-rsr0-rcr69-esr100.exr,ReadingArea_rsl0-rcl100-esl100-rsm0-rcm2-esm29-rsr0-rcr69-esr100.npz,,,,,0,29,29,259,,right,red,3.09,240.69334197044373,241.0984330177307,,1,,2,7,lightness,readingArea,realistic,75,2023-03-27_14h18.07.292,tripletExp_regina_11082022,2022.2.4,119.64753034473904,
2,5,14,0,0.25,0.298245614035088,0,1.0,0.298245614035088,0,0.25,3.10526315789474,ReadingArea_rsl0-rcl25-esl29-rsm0-rcm100-esm29-rsr0-rcr25-esr310,exr/ReadingArea_rsl0-rcl25-esl29-rsm0-rcm100-esm29-rsr0-rcr25-esr310.exr,ReadingArea_rsl0-rcl25-esl29-rsm0-rcm100-esm29-rsr0-rcr25-esr310.npz,,,,,0,30,30,390,,left,green,1.01,242.792977809906,243.1945459842682,,1,,2,7,lightness,readingArea,realistic,75,2023-03-27_14h18.07.292,tripletExp_regina_11082022,2022.2.4,119.64753034473904,
1,9,11,0,0.111111111111111,0.298245614035088,0,0.444444444444444,1.0,0,1.0,1.0,ReadingArea_rsl0-rcl11-esl29-rsm0-rcm44-esm100-rsr0-rcr100-esr100,exr/ReadingArea_rsl0-rcl11-esl29-rsm0-rcm44-esm100-rsr0-rcr100-esr100.exr,ReadingArea_rsl0-rcl11-esl29-rsm0-rcm44-esm100-rsr0-rcr100-esr100.npz,,,,,0,31,31,215,,left,green,3.08,246.66919493675232,247.11381483078003,,1,,2,7,lightness,readingArea,realistic,75,2023-03-27_14h18.07.292,tripletExp_regina_11082022,2022.2.4,119.64753034473904,
8,1,3,0,0.25,1.0,0,0.111111111111111,0.298245614035088,0,0.444444444444444,0.298245614035088,ReadingArea_rsl0-rcl25-esl100-rsm0-rcm11-esm29-rsr0-rcr44-esr29,exr/ReadingArea_rsl0-rcl25-esl100-rsm0-rcm11-esm29-rsr0-rcr44-esr29.exr,ReadingArea_rsl0-rcl25-esl100-rsm0-rcm11-esm29-rsr0-rcr44-esr29.npz,,,,,0,32,32,490,,right,red,1.1,248.8365750312805,249.2793409824372,,1,,2,7,lightness,readingArea,realistic,75,2023-03-27_14h18.07.292,tripletExp_regina_11082022,2022.2.4,119.64753034473904,
14,13,6,0,0.25,3.10526315789474,0,0.111111111111111,3.10526315789474,0,0.027777777777778,1.0,ReadingArea_rsl0-rcl25-esl310-rsm0-rcm11-esm310-rsr0-rcr2-esr100,exr/ReadingArea_rsl0-rcl25-esl310-rsm0-rcm11-esm310-rsr0-rcr2-esr100.exr,ReadingArea_rsl0-rcl25-esl310-rsm0-rcm11-esm310-rsr0-rcr2-esr100.npz,,,,,0,33,33,102,,left,green,4.49,254.52978682518005,254.9893298149109,,1,,2,7,lightness,readingArea,realistic,75,2023-03-27_14h18.07.292,tripletExp_regina_11082022,2022.2.4,119.64753034473904,
5,3,0,0,1.0,0.298245614035088,0,0.444444444444444,0.298245614035088,0,0.027777777777778,0.298245614035088,ReadingArea_rsl0-rcl100-esl29-rsm0-rcm44-esm29-rsr0-rcr2-esr29,exr/ReadingArea_rsl0-rcl100-esl29-rsm0-rcm44-esm29-rsr0-rcr2-esr29.exr,ReadingArea_rsl0-rcl100-esl29-rsm0-rcm44-esm29-rsr0-rcr2-esr29.npz,,,,,0,34,34,303,,left,green,2.35,258.4434549808502,258.85409283638,,1,,2,7,lightness,readingArea,realistic,75,2023-03-27_14h18.07.292,tripletExp_regina_11082022,2022.2.4,119.64753034473904,
11,4,2,0,1.0,1.0,0,0.694444444444444,0.298245614035088,0,0.25,0.298245614035088,ReadingArea_rsl0-rcl100-esl100-rsm0-rcm69-esm29-rsr0-rcr25-esr29,exr/ReadingArea_rsl0-rcl100-esl100-rsm0-rcm69-esm29-rsr0-rcr25-esr29.exr,ReadingArea_rsl0-rcl100-esl100-rsm0-rcm69-esm29-rsr0-rcr25-esr29.npz,,,,,0,35,35,280,,right,red,2.18,262.3178029060364,262.74179792404175,,1,,2,7,lightness,readingArea,realistic,75,2023-03-27_14h18.07.292,tripletExp_regina_11082022,2022.2.4,119.64753034473904,
4,8,10,0,0.694444444444444,0.298245614035088,0,0.25,1.0,0,0.694444444444444,1.0,ReadingArea_rsl0-rcl69-esl29-rsm0-rcm25-esm100-rsr0-rcr69-esr100,exr/ReadingArea_rsl0-rcl69-esl29-rsm0-rcm25-esm100-rsr0-rcr69-esr100.exr,ReadingArea_rsl0-rcl69-esl29-rsm0-rcm25-esm100-rsr0-rcr69-esr100.npz,,,,,0,36,36,221,,left,green,1.1,264.4578468799591,,,1,,2,7,lightness,readingArea,realistic,75,2023-03-27_14h18.07.292,tripletExp_regina_11082022,2022.2.4,119.64753034473904,
5,2,8,0,1.0,0.298245614035088,0,0.25,0.298245614035088,0,0.25,1.0,ReadingArea_rsl0-rcl100-esl29-rsm0-rcm25-esm29-rsr0-rcr25-esr100,exr/ReadingArea_rsl0-rcl100-esl29-rsm0-rcm25-esm29-rsr0-rcr25-esr100.exr,ReadingArea_rsl0-rcl100-esl29-rsm0-rcm25-esm29-rsr0-rcr25-esr100.npz,,,,,0,37,37,538,,right,red,2.64,268.3686978816986,268.7756168842316,,1,,2,7,lightness,readingArea,realistic,75,2023-03-27_14h18.07.292,tripletExp_regina_11082022,2022.2.4,119.64753034473904,
9,13,5,0,0.444444444444444,1.0,0,0.111111111111111,3.10526315789474,0,1.0,0.298245614035088,ReadingArea_rsl0-rcl44-esl100-rsm0-rcm11-esm310-rsr0-rcr100-esr29,exr/ReadingArea_rsl0-rcl44-esl100-rsm0-rcm11-esm310-rsr0-rcr100-esr29.exr,ReadingArea_rsl0-rcl44-esl100-rsm0-rcm11-esm310-rsr0-rcr100-esr29.npz,,,,,0,38,38,349,,right,red,2.98,272.2522048950196,272.6621518135071,,1,,2,7,lightness,readingArea,realistic,75,2023-03-27_14h18.07.292,tripletExp_regina_11082022,2022.2.4,119.64753034473904,
6,1,9,0,0.027777777777778,1.0,0,0.111111111111111,0.298245614035088,0,0.444444444444444,1.0,ReadingArea_rsl0-rcl2-esl100-rsm0-rcm11-esm29-rsr0-rcr44-esr100,exr/ReadingArea_rsl0-rcl2-esl100-rsm0-rcm11-esm29-rsr0-rcr44-esr100.exr,ReadingArea_rsl0-rcl2-esl100-rsm0-rcm11-esm29-rsr0-rcr44-esr100.npz,,,,,0,39,39,74,,left,green,1.36,274.3832428455353,274.7900948524475,,1,,2,7,lightness,readingArea,realistic,75,2023-03-27_14h18.07.292,tripletExp_regina_11082022,2022.2.4,119.64753034473904,
5,4,12,0,1.0,0.298245614035088,0,0.694444444444444,0.298245614035088,0,0.027777777777778,3.10526315789474,ReadingArea_rsl0-rcl100-esl29-rsm0-rcm69-esm29-rsr0-rcr2-esr310,exr/ReadingArea_rsl0-rcl100-esl29-rsm0-rcm69-esm29-rsr0-rcr2-esr310.exr,ReadingArea_rsl0-rcl100-esl29-rsm0-rcm69-esm29-rsr0-rcr2-esr310.npz,,,,,0,40,40,82,,left,green,1.12,276.48772287368774,276.89358282089233,,1,,2,7,lightness,readingArea,realistic,75,2023-03-27_14h18.07.292,tripletExp_regina_11082022,2022.2.4,119.64753034473904,
12,8,9,0,0.027777777777778,3.10526315789474,0,0.25,1.0,0,0.444444444444444,1.0,ReadingArea_rsl0-rcl2-esl310-rsm0-rcm25-esm100-rsr0-rcr44-esr100,exr/ReadingArea_rsl0-rcl2-esl310-rsm0-rcm25-esm100-rsr0-rcr44-esr100.exr,ReadingArea_rsl0-rcl2-esl310-rsm0-rcm25-esm100-rsr0-rcr44-esr100.npz,,,,,0,41,41,517,,left,green,2.77,280.3509018421173,280.7561268806457,,1,,2,7,lightness,readingArea,realistic,75,2023-03-27_14h18.07.292,tripletExp_regina_11082022,2022.2.4,119.64753034473904,
9,12,0,0,0.444444444444444,1.0,0,0.027777777777778,3.10526315789474,0,0.027777777777778,0.298245614035088,ReadingArea_rsl0-rcl44-esl100-rsm0-rcm2-esm310-rsr0-rcr2-esr29,exr/ReadingArea_rsl0-rcl44-esl100-rsm0-rcm2-esm310-rsr0-rcr2-esr29.exr,ReadingArea_rsl0-rcl44-esl100-rsm0-rcm2-esm310-rsr0-rcr2-esr29.npz,,,,,0,42,42,175,,right,red,3.04,284.2110199928284,,,1,,2,7,lightness,readingArea,realistic,75,2023-03-27_14h18.07.292,tripletExp_regina_11082022,2022.2.4,119.64753034473904,
8,10,7,0,0.25,1.0,0,0.694444444444444,1.0,0,0.111111111111111,1.0,ReadingArea_rsl0-rcl25-esl100-rsm0-rcm69-esm100-rsr0-rcr11-esr100,exr/ReadingArea_rsl0-rcl25-esl100-rsm0-rcm69-esm100-rsr0-rcr11-esr100.exr,ReadingArea_rsl0-rcl25-esl100-rsm0-rcm69-esm100-rsr0-rcr11-esr100.npz,,,,,0,43,43,424,,left,green,2.92,288.08648800849915,,,1,,2,7,lightness,readingArea,realistic,75,2023-03-27_14h18.07.292,tripletExp_regina_11082022,2022.2.4,119.64753034473904,
1,6,11,0,0.111111111111111,0.298245614035088,0,0.027777777777778,1.0,0,1.0,1.0,ReadingArea_rsl0-rcl11-esl29-rsm0-rcm2-esm100-rsr0-rcr100-esr100,exr/ReadingArea_rsl0-rcl11-esl29-rsm0-rcm2-esm100-rsr0-rcr100-esr100.exr,ReadingArea_rsl0-rcl11-esl29-rsm0-rcm2-esm100-rsr0-rcr100-esr100.npz,,,,,0,44,44,39,,left,green,1.16,290.1994659900665,290.6414728164673,,1,,2,7,lightness,readingArea,realistic,75,2023-03-27_14h18.07.292,tripletExp_regina_11082022,2022.2.4,119.64753034473904,
13,4,12,0,0.111111111111111,3.10526315789474,0,0.694444444444444,0.298245614035088,0,0.027777777777778,3.10526315789474,ReadingArea_rsl0-rcl11-esl310-rsm0-rcm69-esm29-rsr0-rcr2-esr310,exr/ReadingArea_rsl0-rcl11-esl310-rsm0-rcm69-esm29-rsr0-rcr2-esr310.exr,ReadingArea_rsl0-rcl11-esl310-rsm0-rcm69-esm29-rsr0-rcr2-esr310.npz,,,,,0,45,45,122,,left,green,4.61,295.8959829807281,,,1,,2,7,lightness,readingArea,realistic,75,2023-03-27_14h18.07.292,tripletExp_regina_11082022,2022.2.4,119.64753034473904,
4,1,9,0,0.694444444444444,0.298245614035088,0,0.111111111111111,0.298245614035088,0,0.444444444444444,1.0,ReadingArea_rsl0-rcl69-esl29-rsm0-rcm11-esm29-rsr0-rcr44-esr100,exr/ReadingArea_rsl0-rcl69-esl29-rsm0-rcm11-esm29-rsr0-rcr44-esr100.exr,ReadingArea_rsl0-rcl69-esl29-rsm0-rcm11-esm29-rsr0-rcr44-esr100.npz,,,,,0,46,46,7,,left,green,3.03,299.7758250236511,300.18784403800964,,1,,2,7,lightness,readingArea,realistic,75,2023-03-27_14h18.07.292,tripletExp_regina_11082022,2022.2.4,119.64753034473904,
2,13,3,0,0.25,0.298245614035088,0,0.111111111111111,3.10526315789474,0,0.444444444444444,0.298245614035088,ReadingArea_rsl0-rcl25-esl29-rsm0-rcm11-esm310-rsr0-rcr44-esr29,exr/ReadingArea_rsl0-rcl25-esl29-rsm0-rcm11-esm310-rsr0-rcr44-esr29.exr,ReadingArea_rsl0-rcl25-esl29-rsm0-rcm11-esm310-rsr0-rcr44-esr29.npz,,,,,0,47,47,473,,left,green,3.05,303.64884400367737,304.0580589771271,,1,,2,7,lightness,readingArea,realistic,75,2023-03-27_14h18.07.292,tripletExp_regina_11082022,2022.2.4,119.64753034473904,
4,13,2,0,0.694444444444444,0.298245614035088,0,0.111111111111111,3.10526315789474,0,0.25,0.298245614035088,ReadingArea_rsl0-rcl69-esl29-rsm0-rcm11-esm310-rsr0-rcr25-esr29,exr/ReadingArea_rsl0-rcl69-esl29-rsm0-rcm11-esm310-rsr0-rcr25-esr29.exr,ReadingArea_rsl0-rcl69-esl29-rsm0-rcm11-esm310-rsr0-rcr25-esr29.npz,,,,,0,48,48,592,,left,green,4.53,309.290335893631,,,1,,2,7,lightness,readingArea,realistic,75,2023-03-27_14h18.07.292,tripletExp_regina_11082022,2022.2.4,119.64753034473904,
3,5,7,0,0.444444444444444,0.298245614035088,0,1.0,0.298245614035088,0,0.111111111111111,1.0,ReadingArea_rsl0-rcl44-esl29-rsm0-rcm100-esm29-rsr0-rcr11-esr100,exr/ReadingArea_rsl0-rcl44-esl29-rsm0-rcm100-esm29-rsr0-rcr11-esr100.exr,ReadingArea_rsl0-rcl44-esl29-rsm0-rcm100-esm29-rsr0-rcr11-esr100.npz,,,,,0,49,49,474,,right,red,2.98,313.1708829402924,313.59726095199585,,1,,2,7,lightness,readingArea,realistic,75,2023-03-27_14h18.07.292,tripletExp_regina_11082022,2022.2.4,119.64753034473904,
11,0,12,0,1.0,1.0,0,0.027777777777778,0.298245614035088,0,0.027777777777778,3.10526315789474,ReadingArea_rsl0-rcl100-esl100-rsm0-rcm2-esm29-rsr0-rcr2-esr310,exr/ReadingArea_rsl0-rcl100-esl100-rsm0-rcm2-esm29-rsr0-rcr2-esr310.exr,ReadingArea_rsl0-rcl100-esl100-rsm0-rcm2-esm29-rsr0-rcr2-esr310.npz,,,,,0,50,50,166,,right,red,1.58,315.3031449317932,315.71289801597595,,1,,2,7,lightness,readingArea,realistic,75,2023-03-27_14h18.07.292,tripletExp_regina_11082022,2022.2.4,119.64753034473904,
6,3,1,0,0.027777777777778,1.0,0,0.444444444444444,0.298245614035088,0,0.111111111111111,0.298245614035088,ReadingArea_rsl0-rcl2-esl100-rsm0-rcm44-esm29-rsr0-rcr11-esr29,exr/ReadingArea_rsl0-rcl2-esl100-rsm0-rcm44-esm29-rsr0-rcr11-esr29.exr,ReadingArea_rsl0-rcl2-esl100-rsm0-rcm44-esm29-rsr0-rcr11-esr29.npz,,,,,0,51,51,430,,right,red,3.79,320.9460279941559,321.35447692871094,,1,,2,7,lightness,readingArea,realistic,75,2023-03-27_14h18.07.292,tripletExp_regina_11082022,2022.2.4,119.64753034473904,
7,4,1,0,0.111111111111111,1.0,0,0.694444444444444,0.298245614035088,0,0.111111111111111,0.298245614035088,ReadingArea_rsl0-rcl11-esl100-rsm0-rcm69-esm29-rsr0-rcr11-esr29,exr/ReadingArea_rsl0-rcl11-esl100-rsm0-rcm69-esm29-rsr0-rcr11-esr29.exr,ReadingArea_rsl0-rcl11-esl100-rsm0-rcm69-esm29-rsr0-rcr11-esr29.npz,,,,,0,52,52,369,,left,green,3.41,324.8115658760071,325.22053384780884,,1,,2,7,lightness,readingArea,realistic,75,2023-03-27_14h18.07.292,tripletExp_regina_11082022,2022.2.4,119.64753034473904,
7,13,5,0,0.111111111111111,1.0,0,0.111111111111111,3.10526315789474,0,1.0,0.298245614035088,ReadingArea_rsl0-rcl11-esl100-rsm0-rcm11-esm310-rsr0-rcr100-esr29,exr/ReadingArea_rsl0-rcl11-esl100-rsm0-rcm11-esm310-rsr0-rcr100-esr29.exr,ReadingArea_rsl0-rcl11-esl100-rsm0-rcm11-esm310-rsr0-rcr100-esr29.npz,,,,,0,53,53,332,,left,green,2.91,328.68986797332764,329.0952179431915,,1,,2,7,lightness,readingArea,realistic,75,2023-03-27_14h18.07.292,tripletExp_regina_11082022,2022.2.4,119.64753034473904,
14,6,2,0,0.25,3.10526315789474,0,0.027777777777778,1.0,0,0.25,0.298245614035088,ReadingArea_rsl0-rcl25-esl310-rsm0-rcm2-esm100-rsr0-rcr25-esr29,exr/ReadingArea_rsl0-rcl25-esl310-rsm0-rcm2-esm100-rsr0-rcr25-esr29.exr,ReadingArea_rsl0-rcl25-esl310-rsm0-rcm2-esm100-rsr0-rcr25-esr29.npz,,,,,0,54,54,272,,right,red,3.19,332.55463194847107,332.962347984314,,1,,2,7,lightness,readingArea,realistic,75,2023-03-27_14h18.07.292,tripletExp_regina_11082022,2022.2.4,119.64753034473904,
3,9,13,0,0.444444444444444,0.298245614035088,0,0.444444444444444,1.0,0,0.111111111111111,3.10526315789474,ReadingArea_rsl0-rcl44-esl29-rsm0-rcm44-esm100-rsr0-rcr11-esr310,exr/ReadingArea_rsl0-rcl44-esl29-rsm0-rcm44-esm100-rsr0-rcr11-esr310.exr,ReadingArea_rsl0-rcl44-esl29-rsm0-rcm44-esm100-rsr0-rcr11-esr310.npz,,,,,0,55,55,341,,left,green,2.95,336.4491419792176,336.8575839996338,,1,,2,7,lightness,readingArea,realistic,75,2023-03-27_14h18.07.292,tripletExp_regina_11082022,2022.2.4,119.64753034473904,
13,1,7,0,0.111111111111111,3.10526315789474,0,0.111111111111111,0.298245614035088,0,0.111111111111111,1.0,ReadingArea_rsl0-rcl11-esl310-rsm0-rcm11-esm29-rsr0-rcr11-esr100,exr/ReadingArea_rsl0-rcl11-esl310-rsm0-rcm11-esm29-rsr0-rcr11-esr100.exr,ReadingArea_rsl0-rcl11-esl310-rsm0-rcm11-esm29-rsr0-rcr11-esr100.npz,,,,,0,56,56,206,,right,red,1.72,338.57095980644226,339.01690793037415,,1,,2,7,lightness,readingArea,realistic,75,2023-03-27_14h18.07.292,tripletExp_regina_11082022,2022.2.4,119.64753034473904,
3,11,14,0,0.444444444444444,0.298245614035088,0,1.0,1.0,0,0.25,3.10526315789474,ReadingArea_rsl0-rcl44-esl29-rsm0-rcm100-esm100-rsr0-rcr25-esr310,exr/ReadingArea_rsl0-rcl44-esl29-rsm0-rcm100-esm100-rsr0-rcr25-esr310.exr,ReadingArea_rsl0-rcl44-esl29-rsm0-rcm100-esm100-rsr0-rcr25-esr310.npz,,,,,0,57,57,570,,right,red,1.19,340.7360899448395,341.1417028903961,,1,,2,7,lightness,readingArea,realistic,75,2023-03-27_14h18.07.292,tripletExp_regina_11082022,2022.2.4,119.64753034473904,
9,0,14,0,0.444444444444444,1.0,0,0.027777777777778,0.298245614035088,0,0.25,3.10526315789474,ReadingArea_rsl0-rcl44-esl100-rsm0-rcm2-esm29-rsr0-rcr25-esr310,exr/ReadingArea_rsl0-rcl44-esl100-rsm0-rcm2-esm29-rsr0-rcr25-esr310.exr,ReadingArea_rsl0-rcl44-esl100-rsm0-rcm2-esm29-rsr0-rcr25-esr310.npz,,,,,0,58,58,550,,left,green,1.4,342.84568190574646,343.2602379322052,,1,,2,7,lightness,readingArea,realistic,75,2023-03-27_14h18.07.292,tripletExp_regina_11082022,2022.2.4,119.64753034473904,
1,14,5,0,0.111111111111111,0.298245614035088,0,0.25,3.10526315789474,0,1.0,0.298245614035088,ReadingArea_rsl0-rcl11-esl29-rsm0-rcm25-esm310-rsr0-rcr100-esr29,exr/ReadingArea_rsl0-rcl11-esl29-rsm0-rcm25-esm310-rsr0-rcr100-esr29.exr,ReadingArea_rsl0-rcl11-esl29-rsm0-rcm25-esm310-rsr0-rcr100-esr29.npz,,,,,0,59,59,509,,right,red,3.08,346.7358498573303,347.1834628582001,,1,,2,7,lightness,readingArea,realistic,75,2023-03-27_14h18.07.292,tripletExp_regina_11082022,2022.2.4,119.64753034473904,
10,14,4,0,0.694444444444444,1.0,0,0.25,3.10526315789474,0,0.694444444444444,0.298245614035088,ReadingArea_rsl0-rcl69-esl100-rsm0-rcm25-esm310-rsr0-rcr69-esr29,exr/ReadingArea_rsl0-rcl69-esl100-rsm0-rcm25-esm310-rsr0-rcr69-esr29.exr,ReadingArea_rsl0-rcl69-esl100-rsm0-rcm25-esm310-rsr0-rcr69-esr29.npz,,,,,0,60,60,267,,right,red,3.09,350.6693079471588,351.11561584472656,,1,,2,7,lightness,readingArea,realistic,75,2023-03-27_14h18.07.292,tripletExp_regina_11082022,2022.2.4,119.64753034473904,
1,14,6,0,0.111111111111111,0.298245614035088,0,0.25,3.10526315789474,0,0.027777777777778,1.0,ReadingArea_rsl0-rcl11-esl29-rsm0-rcm25-esm310-rsr0-rcr2-esr100,exr/ReadingArea_rsl0-rcl11-esl29-rsm0-rcm25-esm310-rsr0-rcr2-esr100.exr,ReadingArea_rsl0-rcl11-esl29-rsm0-rcm25-esm310-rsr0-rcr2-esr100.npz,,,,,0,61,61,475,,left,green,1.57,352.81915283203125,353.22526597976685,,1,,2,7,lightness,readingArea,realistic,75,2023-03-27_14h18.07.292,tripletExp_regina_11082022,2022.2.4,119.64753034473904,
12,7,1,0,0.027777777777778,3.10526315789474,0,0.111111111111111,1.0,0,0.111111111111111,0.298245614035088,ReadingArea_rsl0-rcl2-esl310-rsm0-rcm11-esm100-rsr0-rcr11-esr29,exr/ReadingArea_rsl0-rcl2-esl310-rsm0-rcm11-esm100-rsr0-rcr11-esr29.exr,ReadingArea_rsl0-rcl2-esl310-rsm0-rcm11-esm100-rsr0-rcr11-esr29.npz,,,,,0,62,62,264,,left,green,3.18,356.68643283843994,357.1047329902649,,1,,2,7,lightness,readingArea,realistic,75,2023-03-27_14h18.07.292,tripletExp_regina_11082022,2022.2.4,119.64753034473904,
3,14,5,0,0.444444444444444,0.298245614035088,0,0.25,3.10526315789474,0,1.0,0.298245614035088,ReadingArea_rsl0-rcl44-esl29-rsm0-rcm25-esm310-rsr0-rcr100-esr29,exr/ReadingArea_rsl0-rcl44-esl29-rsm0-rcm25-esm310-rsr0-rcr100-esr29.exr,ReadingArea_rsl0-rcl44-esl29-rsm0-rcm25-esm310-rsr0-rcr100-esr29.npz,,,,,0,63,63,131,,right,red,1.58,358.7956418991089,359.1992378234863,,1,,2,7,lightness,readingArea,realistic,75,2023-03-27_14h18.07.292,tripletExp_regina_11082022,2022.2.4,119.64753034473904,
6,2,5,0,0.027777777777778,1.0,0,0.25,0.298245614035088,0,1.0,0.298245614035088,ReadingArea_rsl0-rcl2-esl100-rsm0-rcm25-esm29-rsr0-rcr100-esr29,exr/ReadingArea_rsl0-rcl2-esl100-rsm0-rcm25-esm29-rsr0-rcr100-esr29.exr,ReadingArea_rsl0-rcl2-esl100-rsm0-rcm25-esm29-rsr0-rcr100-esr29.npz,,,,,0,64,64,504,,left,green,1.19,360.88923597335815,361.29215383529663,,1,,2,7,lightness,readingArea,realistic,75,2023-03-27_14h18.07.292,tripletExp_regina_11082022,2022.2.4,119.64753034473904,
11,13,8,0,1.0,1.0,0,0.111111111111111,3.10526315789474,0,0.25,1.0,ReadingArea_rsl0-rcl100-esl100-rsm0-rcm11-esm310-rsr0-rcr25-esr100,exr/ReadingArea_rsl0-rcl100-esl100-rsm0-rcm11-esm310-rsr0-rcr25-esr100.exr,ReadingArea_rsl0-rcl100-esl100-rsm0-rcm11-esm310-rsr0-rcr25-esr100.npz,,,,,0,65,65,198,,right,red,1.59,362.99310183525085,363.4006538391113,,1,,2,7,lightness,readingArea,realistic,75,2023-03-27_14h18.07.292,tripletExp_regina_11082022,2022.2.4,119.64753034473904,
7,14,10,0,0.111111111111111,1.0,0,0.25,3.10526315789474,0,0.694444444444444,1.0,ReadingArea_rsl0-rcl11-esl100-rsm0-rcm25-esm310-rsr0-rcr69-esr100,exr/ReadingArea_rsl0-rcl11-esl100-rsm0-rcm25-esm310-rsr0-rcr69-esr100.exr,ReadingArea_rsl0-rcl11-esl100-rsm0-rcm25-esm310-rsr0-rcr69-esr100.npz,,,,,0,66,66,472,,left,green,3.36,366.8716239929199,367.3244578838349,,1,,2,7,lightness,readingArea,realistic,75,2023-03-27_14h18.07.292,tripletExp_regina_11082022,2022.2.4,119.64753034473904,
5,10,2,0,1.0,0.298245614035088,0,0.694444444444444,1.0,0,0.25,0.298245614035088,ReadingArea_rsl0-rcl100-esl29-rsm0-rcm69-esm100-rsr0-rcr25-esr29,exr/ReadingArea_rsl0-rcl100-esl29-rsm0-rcm69-esm100-rsr0-rcr25-esr29.exr,ReadingArea_rsl0-rcl100-esl29-rsm0-rcm69-esm100-rsr0-rcr25-esr29.npz,,,,,0,67,67,489,,left,green,1.46,369.0218369960785,369.4293439388275,,1,,2,7,lightness,readingArea,realistic,75,2023-03-27_14h18.07.292,tripletExp_regina_11082022,2022.2.4,119.64753034473904,
10,6,8,0,0.694444444444444,1.0,0,0.027777777777778,1.0,0,0.25,1.0,ReadingArea_rsl0-rcl69-esl100-rsm0-rcm2-esm100-rsr0-rcr25-esr100,exr/ReadingArea_rsl0-rcl69-esl100-rsm0-rcm2-esm100-rsr0-rcr25-esr100.exr,ReadingArea_rsl0-rcl69-esl100-rsm0-rcm2-esm100-rsr0-rcr25-esr100.npz,,,,,0,68,68,145,,right,red,1.36,371.1339499950409,371.5437569618225,,1,,2,7,lightness,readingArea,realistic,75,2023-03-27_14h18.07.292,tripletExp_regina_11082022,2022.2.4,119.64753034473904,
13,11,2,0,0.111111111111111,3.10526315789474,0,1.0,1.0,0,0.25,0.298245614035088,ReadingArea_rsl0-rcl11-esl310-rsm0-rcm100-esm100-rsr0-rcr25-esr29,exr/ReadingArea_rsl0-rcl11-esl310-rsm0-rcm100-esm100-rsr0-rcr25-esr29.exr,ReadingArea_rsl0-rcl11-esl310-rsm0-rcm100-esm100-rsr0-rcr25-esr29.npz,,,,,0,69,69,55,,left,green,3.99,376.76722383499146,,,1,,2,7,lightness,readingArea,realistic,75,2023-03-27_14h18.07.292,tripletExp_regina_11082022,2022.2.4,119.64753034473904,
14,13,3,0,0.25,3.10526315789474,0,0.111111111111111,3.10526315789474,0,0.444444444444444,0.298245614035088,ReadingArea_rsl0-rcl25-esl310-rsm0-rcm11-esm310-rsr0-rcr44-esr29,exr/ReadingArea_rsl0-rcl25-esl310-rsm0-rcm11-esm310-rsr0-rcr44-esr29.exr,ReadingArea_rsl0-rcl25-esl310-rsm0-rcm11-esm310-rsr0-rcr44-esr29.npz,,,,,0,70,70,256,,right,red,1.28,378.8833298683167,379.288822889328,,1,,2,7,lightness,readingArea,realistic,75,2023-03-27_14h18.07.292,tripletExp_regina_11082022,2022.2.4,119.64753034473904,
2,6,0,0,0.25,0.298245614035088,0,0.027777777777778,1.0,0,0.027777777777778,0.298245614035088,ReadingArea_rsl0-rcl25-esl29-rsm0-rcm2-esm100-rsr0-rcr2-esr29,exr/ReadingArea_rsl0-rcl25-esl29-rsm0-rcm2-esm100-rsr0-rcr2-esr29.exr,ReadingArea_rsl0-rcl25-esl29-rsm0-rcm2-esm100-rsr0-rcr2-esr29.npz,,,,,0,71,71,525,,right,red,2.28,382.74658703804016,383.1554338932037,,1,,2,7,lightness,readingArea,realistic,75,2023-03-27_14h18.07.292,tripletExp_regina_11082022,2022.2.4,119.64753034473904,
6,13,0,0,0.027777777777778,1.0,0,0.111111111111111,3.10526315789474,0,0.027777777777778,0.298245614035088,ReadingArea_rsl0-rcl2-esl100-rsm0-rcm11-esm310-rsr0-rcr2-esr29,exr/ReadingArea_rsl0-rcl2-esl100-rsm0-rcm11-esm310-rsr0-rcr2-esr29.exr,ReadingArea_rsl0-rcl2-esl100-rsm0-rcm11-esm310-rsr0-rcr2-esr29.npz,,,,,0,72,72,580,,left,green,3.13,386.6111629009247,387.0220370292664,,1,,2,7,lightness,readingArea,realistic,75,2023-03-27_14h18.07.292,tripletExp_regina_11082022,2022.2.4,119.64753034473904,
2,14,1,0,0.25,0.298245614035088,0,0.25,3.10526315789474,0,0.111111111111111,0.298245614035088,ReadingArea_rsl0-rcl25-esl29-rsm0-rcm25-esm310-rsr0-rcr11-esr29,exr/ReadingArea_rsl0-rcl25-esl29-rsm0-rcm25-esm310-rsr0-rcr11-esr29.exr,ReadingArea_rsl0-rcl25-esl29-rsm0-rcm25-esm310-rsr0-rcr11-esr29.npz,,,,,0,73,73,579,,left,green,2.44,390.4983239173889,390.9076659679413,,1,,2,7,lightness,readingArea,realistic,75,2023-03-27_14h18.07.292,tripletExp_regina_11082022,2022.2.4,119.64753034473904,
13,6,12,0,0.111111111111111,3.10526315789474,0,0.027777777777778,1.0,0,0.027777777777778,3.10526315789474,ReadingArea_rsl0-rcl11-esl310-rsm0-rcm2-esm100-rsr0-rcr2-esr310,exr/ReadingArea_rsl0-rcl11-esl310-rsm0-rcm2-esm100-rsr0-rcr2-esr310.exr,ReadingArea_rsl0-rcl11-esl310-rsm0-rcm2-esm100-rsr0-rcr2-esr310.npz,,,,,0,74,74,147,,right,red,1.59,392.5995700359345,392.8017978668213,,1,,2,7,lightness,readingArea,realistic,75,2023-03-27_14h18.07.292,tripletExp_regina_11082022,2022.2.4,119.64753034473904,
9,11,2,0,0.444444444444444,1.0,0,1.0,1.0,0,0.25,0.298245614035088,ReadingArea_rsl0-rcl44-esl100-rsm0-rcm100-esm100-rsr0-rcr25-esr29,exr/ReadingArea_rsl0-rcl44-esl100-rsm0-rcm100-esm100-rsr0-rcr25-esr29.exr,ReadingArea_rsl0-rcl44-esl100-rsm0-rcm100-esm100-rsr0-rcr25-esr29.npz,,,,,0,75,75,329,,left,green,1.29,414.0915219783783,414.5087468624115,,2,,2,7,lightness,readingArea,realistic,75,2023-03-27_14h18.07.292,tripletExp_regina_11082022,2022.2.4,119.64753034473904,
2,0,3,0,0.25,0.298245614035088,0,0.027777777777778,0.298245614035088,0,0.444444444444444,0.298245614035088,ReadingArea_rsl0-rcl25-esl29-rsm0-rcm2-esm29-rsr0-rcr44-esr29,exr/ReadingArea_rsl0-rcl25-esl29-rsm0-rcm2-esm29-rsr0-rcr44-esr29.exr,ReadingArea_rsl0-rcl25-esl29-rsm0-rcm2-esm29-rsr0-rcr44-esr29.npz,,,,,0,76,76,338,,left,green,1.51,416.2123868465424,416.6218008995056,,2,,2,7,lightness,readingArea,realistic,75,2023-03-27_14h18.07.292,tripletExp_regina_11082022,2022.2.4,119.64753034473904,
0,1,8,0,0.027777777777778,0.298245614035088,0,0.111111111111111,0.298245614035088,0,0.25,1.0,ReadingArea_rsl0-rcl2-esl29-rsm0-rcm11-esm29-rsr0-rcr25-esr100,exr/ReadingArea_rsl0-rcl2-esl29-rsm0-rcm11-esm29-rsr0-rcr25-esr100.exr,ReadingArea_rsl0-rcl2-esl29-rsm0-rcm11-esm29-rsr0-rcr25-esr100.npz,,,,,0,77,77,107,,right,red,1.52,418.3221309185028,418.72836089134216,,2,,2,7,lightness,readingArea,realistic,75,2023-03-27_14h18.07.292,tripletExp_regina_11082022,2022.2.4,119.64753034473904,
14,6,11,0,0.25,3.10526315789474,0,0.027777777777778,1.0,0,1.0,1.0,ReadingArea_rsl0-rcl25-esl310-rsm0-rcm2-esm100-rsr0-rcr100-esr100,exr/ReadingArea_rsl0-rcl25-esl310-rsm0-rcm2-esm100-rsr0-rcr100-esr100.exr,ReadingArea_rsl0-rcl25-esl310-rsm0-rcm2-esm100-rsr0-rcr100-esr100.npz,,,,,0,78,78,337,,left,green,1.38,420.4228010177612,420.8315658569336,,2,,2,7,lightness,readingArea,realistic,75,2023-03-27_14h18.07.292,tripletExp_regina_11082022,2022.2.4,119.64753034473904,
9,11,13,0,0.444444444444444,1.0,0,1.0,1.0,0,0.111111111111111,3.10526315789474,ReadingArea_rsl0-rcl44-esl100-rsm0-rcm100-esm100-rsr0-rcr11-esr310,exr/ReadingArea_rsl0-rcl44-esl100-rsm0-rcm100-esm100-rsr0-rcr11-esr310.exr,ReadingArea_rsl0-rcl44-esl100-rsm0-rcm100-esm100-rsr0-rcr11-esr310.npz,,,,,0,79,79,254,,left,green,2.94,424.2871718406677,424.6984488964081,,2,,2,7,lightness,readingArea,realistic,75,2023-03-27_14h18.07.292,tripletExp_regina_11082022,2022.2.4,119.64753034473904,
1,13,2,0,0.111111111111111,0.298245614035088,0,0.111111111111111,3.10526315789474,0,0.25,0.298245614035088,ReadingArea_rsl0-rcl11-esl29-rsm0-rcm11-esm310-rsr0-rcr25-esr29,exr/ReadingArea_rsl0-rcl11-esl29-rsm0-rcm11-esm310-rsr0-rcr25-esr29.exr,ReadingArea_rsl0-rcl11-esl29-rsm0-rcm11-esm310-rsr0-rcr25-esr29.npz,,,,,0,80,80,118,,right,red,2.86,428.16023302078247,428.6136548519135,,2,,2,7,lightness,readingArea,realistic,75,2023-03-27_14h18.07.292,tripletExp_regina_11082022,2022.2.4,119.64753034473904,
3,9,0,0,0.444444444444444,0.298245614035088,0,0.444444444444444,1.0,0,0.027777777777778,0.298245614035088,ReadingArea_rsl0-rcl44-esl29-rsm0-rcm44-esm100-rsr0-rcr2-esr29,exr/ReadingArea_rsl0-rcl44-esl29-rsm0-rcm44-esm100-rsr0-rcr2-esr29.exr,ReadingArea_rsl0-rcl44-esl29-rsm0-rcm44-esm100-rsr0-rcr2-esr29.npz,,,,,0,81,81,551,,left,green,0.98,430.3029370307922,430.7153630256653,,2,,2,7,lightness,readingArea,realistic,75,2023-03-27_14h18.07.292,tripletExp_regina_11082022,2022.2.4,119.64753034473904,
7,4,2,0,0.111111111111111,1.0,0,0.694444444444444,0.298245614035088,0,0.25,0.298245614035088,ReadingArea_rsl0-rcl11-esl100-rsm0-rcm69-esm29-rsr0-rcr25-esr29,exr/ReadingArea_rsl0-rcl11-esl100-rsm0-rcm69-esm29-rsr0-rcr25-esr29.exr,ReadingArea_rsl0-rcl11-esl100-rsm0-rcm69-esm29-rsr0-rcr25-esr29.npz,,,,,0,82,82,146,,left,green,2.92,434.1859278678894,434.6000599861145,,2,,2,7,lightness,readingArea,realistic,75,2023-03-27_14h18.07.292,tripletExp_regina_11082022,2022.2.4,119.64753034473904,
0,13,12,0,0.027777777777778,0.298245614035088,0,0.111111111111111,3.10526315789474,0,0.027777777777778,3.10526315789474,ReadingArea_rsl0-rcl2-esl29-rsm0-rcm11-esm310-rsr0-rcr2-esr310,exr/ReadingArea_rsl0-rcl2-esl29-rsm0-rcm11-esm310-rsr0-rcr2-esr310.exr,ReadingArea_rsl0-rcl2-esl29-rsm0-rcm11-esm310-rsr0-rcr2-esr310.npz,,,,,0,83,83,501,,right,red,2.48,438.0673418045044,438.4805488586426,,2,,2,7,lightness,readingArea,realistic,75,2023-03-27_14h18.07.292,tripletExp_regina_11082022,2022.2.4,119.64753034473904,
4,11,14,0,0.694444444444444,0.298245614035088,0,1.0,1.0,0,0.25,3.10526315789474,ReadingArea_rsl0-rcl69-esl29-rsm0-rcm100-esm100-rsr0-rcr25-esr310,exr/ReadingArea_rsl0-rcl69-esl29-rsm0-rcm100-esm100-rsr0-rcr25-esr310.exr,ReadingArea_rsl0-rcl69-esl29-rsm0-rcm100-esm100-rsr0-rcr25-esr310.npz,,,,,0,84,84,165,,right,red,1.61,440.1872398853302,440.599527835846,,2,,2,7,lightness,readingArea,realistic,75,2023-03-27_14h18.07.292,tripletExp_regina_11082022,2022.2.4,119.64753034473904,
12,8,6,0,0.027777777777778,3.10526315789474,0,0.25,1.0,0,0.027777777777778,1.0,ReadingArea_rsl0-rcl2-esl310-rsm0-rcm25-esm100-rsr0-rcr2-esr100,exr/ReadingArea_rsl0-rcl2-esl310-rsm0-rcm25-esm100-rsr0-rcr2-esr100.exr,ReadingArea_rsl0-rcl2-esl310-rsm0-rcm25-esm100-rsr0-rcr2-esr100.npz,,,,,0,85,85,281,,left,green,2.62,444.0683698654175,444.47610902786255,,2,,2,7,lightness,readingArea,realistic,75,2023-03-27_14h18.07.292,tripletExp_regina_11082022,2022.2.4,119.64753034473904,
11,1,12,0,1.0,1.0,0,0.111111111111111,0.298245614035088,0,0.027777777777778,3.10526315789474,ReadingArea_rsl0-rcl100-esl100-rsm0-rcm11-esm29-rsr0-rcr2-esr310,exr/ReadingArea_rsl0-rcl100-esl100-rsm0-rcm11-esm29-rsr0-rcr2-esr310.exr,ReadingArea_rsl0-rcl100-esl100-rsm0-rcm11-esm29-rsr0-rcr2-esr310.npz,,,,,0,86,86,339,,right,red,1.31,446.1726229190826,446.6266629695892,,2,,2,7,lightness,readingArea,realistic,75,2023-03-27_14h18.07.292,tripletExp_regina_11082022,2022.2.4,119.64753034473904,
1,10,11,0,0.111111111111111,0.298245614035088,0,0.694444444444444,1.0,0,1.0,1.0,ReadingArea_rsl0-rcl11-esl29-rsm0-rcm69-esm100-rsr0-rcr100-esr100,exr/ReadingArea_rsl0-rcl11-esl29-rsm0-rcm69-esm100-rsr0-rcr100-esr100.exr,ReadingArea_rsl0-rcl11-esl29-rsm0-rcm69-esm100-rsr0-rcr100-esr100.npz,,,,,0,87,87,483,,right,red,0.93,448.33075499534607,448.74071884155273,,2,,2,7,lightness,readingArea,realistic,75,2023-03-27_14h18.07.292,tripletExp_regina_11082022,2022.2.4,119.64753034473904,
8,13,3,0,0.25,1.0,0,0.111111111111111,3.10526315789474,0,0.444444444444444,0.298245614035088,ReadingArea_rsl0-rcl25-esl100-rsm0-rcm11-esm310-rsr0-rcr44-esr29,exr/ReadingArea_rsl0-rcl25-esl100-rsm0-rcm11-esm310-rsr0-rcr44-esr29.exr,ReadingArea_rsl0-rcl25-esl100-rsm0-rcm11-esm310-rsr0-rcr44-esr29.npz,,,,,0,88,88,553,,left,green,4.15,453.9821698665619,454.3976788520813,,2,,2,7,lightness,readingArea,realistic,75,2023-03-27_14h18.07.292,tripletExp_regina_11082022,2022.2.4,119.64753034473904,
6,0,10,0,0.027777777777778,1.0,0,0.027777777777778,0.298245614035088,0,0.694444444444444,1.0,ReadingArea_rsl0-rcl2-esl100-rsm0-rcm2-esm29-rsr0-rcr69-esr100,exr/ReadingArea_rsl0-rcl2-esl100-rsm0-rcm2-esm29-rsr0-rcr69-esr100.exr,ReadingArea_rsl0-rcl2-esl100-rsm0-rcm2-esm29-rsr0-rcr69-esr100.npz,,,,,0,89,89,532,,left,green,1.01,456.0966639518738,,,2,,2,7,lightness,readingArea,realistic,75,2023-03-27_14h18.07.292,tripletExp_regina_11082022,2022.2.4,119.64753034473904,
8,12,13,0,0.25,1.0,0,0.027777777777778,3.10526315789474,0,0.111111111111111,3.10526315789474,ReadingArea_rsl0-rcl25-esl100-rsm0-rcm2-esm310-rsr0-rcr11-esr310,exr/ReadingArea_rsl0-rcl25-esl100-rsm0-rcm2-esm310-rsr0-rcr11-esr310.exr,ReadingArea_rsl0-rcl25-esl100-rsm0-rcm2-esm310-rsr0-rcr11-esr310.npz,,,,,0,90,90,275,,right,red,1.55,458.2543399333954,458.6761260032654,,2,,2,7,lightness,readingArea,realistic,75,2023-03-27_14h18.07.292,tripletExp_regina_11082022,2022.2.4,119.64753034473904,
10,3,11,0,0.694444444444444,1.0,0,0.444444444444444,0.298245614035088,0,1.0,1.0,ReadingArea_rsl0-rcl69-esl100-rsm0-rcm44-esm29-rsr0-rcr100-esr100,exr/ReadingArea_rsl0-rcl69-esl100-rsm0-rcm44-esm29-rsr0-rcr100-esr100.exr,ReadingArea_rsl0-rcl69-esl100-rsm0-rcm44-esm29-rsr0-rcr100-esr100.npz,,,,,0,91,91,485,,left,green,4.36,463.90336203575134,464.3637089729309,,2,,2,7,lightness,readingArea,realistic,75,2023-03-27_14h18.07.292,tripletExp_regina_11082022,2022.2.4,119.64753034473904,
9,6,14,0,0.444444444444444,1.0,0,0.027777777777778,1.0,0,0.25,3.10526315789474,ReadingArea_rsl0-rcl44-esl100-rsm0-rcm2-esm100-rsr0-rcr25-esr310,exr/ReadingArea_rsl0-rcl44-esl100-rsm0-rcm2-esm100-rsr0-rcr25-esr310.exr,ReadingArea_rsl0-rcl44-esl100-rsm0-rcm2-esm100-rsr0-rcr25-esr310.npz,,,,,0,92,92,213,,left,green,2.52,467.8375790119171,468.24908900260925,,2,,2,7,lightness,readingArea,realistic,75,2023-03-27_14h18.07.292,tripletExp_regina_11082022,2022.2.4,119.64753034473904,
14,5,11,0,0.25,3.10526315789474,0,1.0,0.298245614035088,0,1.0,1.0,ReadingArea_rsl0-rcl25-esl310-rsm0-rcm100-esm29-rsr0-rcr100-esr100,exr/ReadingArea_rsl0-rcl25-esl310-rsm0-rcm100-esm29-rsr0-rcr100-esr100.exr,ReadingArea_rsl0-rcl25-esl310-rsm0-rcm100-esm29-rsr0-rcr100-esr100.npz,,,,,0,93,93,161,,left,green,2.91,471.7208499908447,472.1680338382721,,2,,2,7,lightness,readingArea,realistic,75,2023-03-27_14h18.07.292,tripletExp_regina_11082022,2022.2.4,119.64753034473904,
12,6,8,0,0.027777777777778,3.10526315789474,0,0.027777777777778,1.0,0,0.25,1.0,ReadingArea_rsl0-rcl2-esl310-rsm0-rcm2-esm100-rsr0-rcr25-esr100,exr/ReadingArea_rsl0-rcl2-esl310-rsm0-rcm2-esm100-rsr0-rcr25-esr100.exr,ReadingArea_rsl0-rcl2-esl310-rsm0-rcm2-esm100-rsr0-rcr25-esr100.npz,,,,,0,94,94,540,,left,green,1.58,473.8843488693237,474.2993838787079,,2,,2,7,lightness,readingArea,realistic,75,2023-03-27_14h18.07.292,tripletExp_regina_11082022,2022.2.4,119.64753034473904,
4,12,5,0,0.694444444444444,0.298245614035088,0,0.027777777777778,3.10526315789474,0,1.0,0.298245614035088,ReadingArea_rsl0-rcl69-esl29-rsm0-rcm2-esm310-rsr0-rcr100-esr29,exr/ReadingArea_rsl0-rcl69-esl29-rsm0-rcm2-esm310-rsr0-rcr100-esr29.exr,ReadingArea_rsl0-rcl69-esl29-rsm0-rcm2-esm310-rsr0-rcr100-esr29.npz,,,,,0,95,95,296,,left,green,2.65,477.7934019565582,478.2062909603119,,2,,2,7,lightness,readingArea,realistic,75,2023-03-27_14h18.07.292,tripletExp_regina_11082022,2022.2.4,119.64753034473904,
0,8,9,0,0.027777777777778,0.298245614035088,0,0.25,1.0,0,0.444444444444444,1.0,ReadingArea_rsl0-rcl2-esl29-rsm0-rcm25-esm100-rsr0-rcr44-esr100,exr/ReadingArea_rsl0-rcl2-esl29-rsm0-rcm25-esm100-rsr0-rcr44-esr100.exr,ReadingArea_rsl0-rcl2-esl29-rsm0-rcm25-esm100-rsr0-rcr44-esr100.npz,,,,,0,96,96,541,,right,red,1.26,479.9245858192444,480.37856793403625,,2,,2,7,lightness,readingArea,realistic,75,2023-03-27_14h18.07.292,tripletExp_regina_11082022,2022.2.4,119.64753034473904,
14,0,6,0,0.25,3.10526315789474,0,0.027777777777778,0.298245614035088,0,0.027777777777778,1.0,ReadingArea_rsl0-rcl25-esl310-rsm0-rcm2-esm29-rsr0-rcr2-esr100,exr/ReadingArea_rsl0-rcl25-esl310-rsm0-rcm2-esm29-rsr0-rcr2-esr100.exr,ReadingArea_rsl0-rcl25-esl310-rsm0-rcm2-esm29-rsr0-rcr2-esr100.npz,,,,,0,97,97,496,,right,red,1.46,482.0845580101013,482.5377240180969,,2,,2,7,lightness,readingArea,realistic,75,2023-03-27_14h18.07.292,tripletExp_regina_11082022,2022.2.4,119.64753034473904,
2,1,12,0,0.25,0.298245614035088,0,0.111111111111111,0.298245614035088,0,0.027777777777778,3.10526315789474,ReadingArea_rsl0-rcl25-esl29-rsm0-rcm11-esm29-rsr0-rcr2-esr310,exr/ReadingArea_rsl0-rcl25-esl29-rsm0-rcm11-esm29-rsr0-rcr2-esr310.exr,ReadingArea_rsl0-rcl25-esl29-rsm0-rcm11-esm29-rsr0-rcr2-esr310.npz,,,,,0,98,98,12,,left,green,1.29,484.24653482437134,484.700660943985,,2,,2,7,lightness,readingArea,realistic,75,2023-03-27_14h18.07.292,tripletExp_regina_11082022,2022.2.4,119.64753034473904,
3,12,4,0,0.444444444444444,0.298245614035088,0,0.027777777777778,3.10526315789474,0,0.694444444444444,0.298245614035088,ReadingArea_rsl0-rcl44-esl29-rsm0-rcm2-esm310-rsr0-rcr69-esr29,exr/ReadingArea_rsl0-rcl44-esl29-rsm0-rcm2-esm310-rsr0-rcr69-esr29.exr,ReadingArea_rsl0-rcl44-esl29-rsm0-rcm2-esm310-rsr0-rcr69-esr29.npz,,,,,0,99,99,426,,left,green,2.95,488.1620638370514,488.5794298648834,,2,,2,7,lightness,readingArea,realistic,75,2023-03-27_14h18.07.292,tripletExp_regina_11082022,2022.2.4,119.64753034473904,
14,6,12,0,0.25,3.10526315789474,0,0.027777777777778,1.0,0,0.027777777777778,3.10526315789474,ReadingArea_rsl0-rcl25-esl310-rsm0-rcm2-esm100-rsr0-rcr2-esr310,exr/ReadingArea_rsl0-rcl25-esl310-rsm0-rcm2-esm100-rsr0-rcr2-esr310.exr,ReadingArea_rsl0-rcl25-esl310-rsm0-rcm2-esm100-rsr0-rcr2-esr310.npz,,,,,0,100,100,242,,right,red,0.98,490.2777168750763,490.6931109428406,,2,,2,7,lightness,readingArea,realistic,75,2023-03-27_14h18.07.292,tripletExp_regina_11082022,2022.2.4,119.64753034473904,
14,2,7,0,0.25,3.10526315789474,0,0.25,0.298245614035088,0,0.111111111111111,1.0,ReadingArea_rsl0-rcl25-esl310-rsm0-rcm25-esm29-rsr0-rcr11-esr100,exr/ReadingArea_rsl0-rcl25-esl310-rsm0-rcm25-esm29-rsr0-rcr11-esr100.exr,ReadingArea_rsl0-rcl25-esl310-rsm0-rcm25-esm29-rsr0-rcr11-esr100.npz,,,,,0,101,101,569,,right,red,0.85,492.3927888870239,492.80178785324097,,2,,2,7,lightness,readingArea,realistic,75,2023-03-27_14h18.07.292,tripletExp_regina_11082022,2022.2.4,119.64753034473904,
13,1,3,0,0.111111111111111,3.10526315789474,0,0.111111111111111,0.298245614035088,0,0.444444444444444,0.298245614035088,ReadingArea_rsl0-rcl11-esl310-rsm0-rcm11-esm29-rsr0-rcr44-esr29,exr/ReadingArea_rsl0-rcl11-esl310-rsm0-rcm11-esm29-rsr0-rcr44-esr29.exr,ReadingArea_rsl0-rcl11-esl310-rsm0-rcm11-esm29-rsr0-rcr44-esr29.npz,,,,,0,102,102,588,,right,red,1.07,494.50464701652527,494.9186329841614,,2,,2,7,lightness,readingArea,realistic,75,2023-03-27_14h18.07.292,tripletExp_regina_11082022,2022.2.4,119.64753034473904,
14,13,2,0,0.25,3.10526315789474,0,0.111111111111111,3.10526315789474,0,0.25,0.298245614035088,ReadingArea_rsl0-rcl25-esl310-rsm0-rcm11-esm310-rsr0-rcr25-esr29,exr/ReadingArea_rsl0-rcl25-esl310-rsm0-rcm11-esm310-rsr0-rcr25-esr29.exr,ReadingArea_rsl0-rcl25-esl310-rsm0-rcm11-esm310-rsr0-rcr25-esr29.npz,,,,,0,103,103,377,,right,red,1.29,496.6107339859009,,,2,,2,7,lightness,readingArea,realistic,75,2023-03-27_14h18.07.292,tripletExp_regina_11082022,2022.2.4,119.64753034473904,
3,11,2,0,0.444444444444444,0.298245614035088,0,1.0,1.0,0,0.25,0.298245614035088,ReadingArea_rsl0-rcl44-esl29-rsm0-rcm100-esm100-rsr0-rcr25-esr29,exr/ReadingArea_rsl0-rcl44-esl29-rsm0-rcm100-esm100-rsr0-rcr25-esr29.exr,ReadingArea_rsl0-rcl44-esl29-rsm0-rcm100-esm100-rsr0-rcr25-esr29.npz,,,,,0,104,104,220,,left,green,2.96,500.4886770248413,501.06480288505554,,2,,2,7,lightness,readingArea,realistic,75,2023-03-27_14h18.07.292,tripletExp_regina_11082022,2022.2.4,119.64753034473904,
2,4,13,0,0.25,0.298245614035088,0,0.694444444444444,0.298245614035088,0,0.111111111111111,3.10526315789474,ReadingArea_rsl0-rcl25-esl29-rsm0-rcm69-esm29-rsr0-rcr11-esr310,exr/ReadingArea_rsl0-rcl25-esl29-rsm0-rcm69-esm29-rsr0-rcr11-esr310.exr,ReadingArea_rsl0-rcl25-esl29-rsm0-rcm69-esm29-rsr0-rcr11-esr310.npz,,,,,0,105,105,325,,right,red,4.34,506.29548501968384,506.7250328063965,,2,,2,7,lightness,readingArea,realistic,75,2023-03-27_14h18.07.292,tripletExp_regina_11082022,2022.2.4,119.64753034473904,
0,7,13,0,0.027777777777778,0.298245614035088,0,0.111111111111111,1.0,0,0.111111111111111,3.10526315789474,ReadingArea_rsl0-rcl2-esl29-rsm0-rcm11-esm100-rsr0-rcr11-esr310,exr/ReadingArea_rsl0-rcl2-esl29-rsm0-rcm11-esm100-rsr0-rcr11-esr310.exr,ReadingArea_rsl0-rcl2-esl29-rsm0-rcm11-esm100-rsr0-rcr11-esr310.npz,,,,,0,106,106,159,,right,red,1.44,508.4210879802704,,,2,,2,7,lightness,readingArea,realistic,75,2023-03-27_14h18.07.292,tripletExp_regina_11082022,2022.2.4,119.64753034473904,
11,7,9,0,1.0,1.0,0,0.111111111111111,1.0,0,0.444444444444444,1.0,ReadingArea_rsl0-rcl100-esl100-rsm0-rcm11-esm100-rsr0-rcr44-esr100,exr/ReadingArea_rsl0-rcl100-esl100-rsm0-rcm11-esm100-rsr0-rcr44-esr100.exr,ReadingArea_rsl0-rcl100-esl100-rsm0-rcm11-esm100-rsr0-rcr44-esr100.npz,,,,,0,107,107,521,,right,red,2.79,512.3175399303436,512.7363138198853,,2,,2,7,lightness,readingArea,realistic,75,2023-03-27_14h18.07.292,tripletExp_regina_11082022,2022.2.4,119.64753034473904,
5,13,7,0,1.0,0.298245614035088,0,0.111111111111111,3.10526315789474,0,0.111111111111111,1.0,ReadingArea_rsl0-rcl100-esl29-rsm0-rcm11-esm310-rsr0-rcr11-esr100,exr/ReadingArea_rsl0-rcl100-esl29-rsm0-rcm11-esm310-rsr0-rcr11-esr100.exr,ReadingArea_rsl0-rcl100-esl29-rsm0-rcm11-esm310-rsr0-rcr11-esr100.npz,,,,,0,108,108,189,,right,red,2.98,516.2383840084076,516.6869249343872,,2,,2,7,lightness,readingArea,realistic,75,2023-03-27_14h18.07.292,tripletExp_regina_11082022,2022.2.4,119.64753034473904,
10,8,1,0,0.694444444444444,1.0,0,0.25,1.0,0,0.111111111111111,0.298245614035088,ReadingArea_rsl0-rcl69-esl100-rsm0-rcm25-esm100-rsr0-rcr11-esr29,exr/ReadingArea_rsl0-rcl69-esl100-rsm0-rcm25-esm100-rsr0-rcr11-esr29.exr,ReadingArea_rsl0-rcl69-esl100-rsm0-rcm25-esm100-rsr0-rcr11-esr29.npz,,,,,0,109,109,247,,right,red,2.93,520.1665699481964,520.5839238166809,,2,,2,7,lightness,readingArea,realistic,75,2023-03-27_14h18.07.292,tripletExp_regina_11082022,2022.2.4,119.64753034473904,
0,5,2,0,0.027777777777778,0.298245614035088,0,1.0,0.298245614035088,0,0.25,0.298245614035088,ReadingArea_rsl0-rcl2-esl29-rsm0-rcm100-esm29-rsr0-rcr25-esr29,exr/ReadingArea_rsl0-rcl2-esl29-rsm0-rcm100-esm29-rsr0-rcr25-esr29.exr,ReadingArea_rsl0-rcl2-esl29-rsm0-rcm100-esm29-rsr0-rcr25-esr29.npz,,,,,0,110,110,25,,right,red,1.32,522.2876839637756,522.6985440254211,,2,,2,7,lightness,readingArea,realistic,75,2023-03-27_14h18.07.292,tripletExp_regina_11082022,2022.2.4,119.64753034473904,
14,5,9,0,0.25,3.10526315789474,0,1.0,0.298245614035088,0,0.444444444444444,1.0,ReadingArea_rsl0-rcl25-esl310-rsm0-rcm100-esm29-rsr0-rcr44-esr100,exr/ReadingArea_rsl0-rcl25-esl310-rsm0-rcm100-esm29-rsr0-rcr44-esr100.exr,ReadingArea_rsl0-rcl25-esl310-rsm0-rcm100-esm29-rsr0-rcr44-esr100.npz,,,,,0,111,111,482,,left,green,4.53,527.9483399391174,528.3610169887543,,2,,2,7,lightness,readingArea,realistic,75,2023-03-27_14h18.07.292,tripletExp_regina_11082022,2022.2.4,119.64753034473904,
4,8,3,0,0.694444444444444,0.298245614035088,0,0.25,1.0,0,0.444444444444444,0.298245614035088,ReadingArea_rsl0-rcl69-esl29-rsm0-rcm25-esm100-rsr0-rcr44-esr29,exr/ReadingArea_rsl0-rcl69-esl29-rsm0-rcm25-esm100-rsr0-rcr44-esr29.exr,ReadingArea_rsl0-rcl69-esl29-rsm0-rcm25-esm100-rsr0-rcr44-esr29.npz,,,,,0,112,112,292,,right,red,2.94,531.853569984436,532.3143990039825,,2,,2,7,lightness,readingArea,realistic,75,2023-03-27_14h18.07.292,tripletExp_regina_11082022,2022.2.4,119.64753034473904,
4,7,5,0,0.694444444444444,0.298245614035088,0,0.111111111111111,1.0,0,1.0,0.298245614035088,ReadingArea_rsl0-rcl69-esl29-rsm0-rcm11-esm100-rsr0-rcr100-esr29,exr/ReadingArea_rsl0-rcl69-esl29-rsm0-rcm11-esm100-rsr0-rcr100-esr29.exr,ReadingArea_rsl0-rcl69-esl29-rsm0-rcm11-esm100-rsr0-rcr100-esr29.npz,,,,,0,113,113,195,,left,green,1.73,534.0154340267181,534.4251499176025,,2,,2,7,lightness,readingArea,realistic,75,2023-03-27_14h18.07.292,tripletExp_regina_11082022,2022.2.4,119.64753034473904,
2,9,11,0,0.25,0.298245614035088,0,0.444444444444444,1.0,0,1.0,1.0,ReadingArea_rsl0-rcl25-esl29-rsm0-rcm44-esm100-rsr0-rcr100-esr100,exr/ReadingArea_rsl0-rcl25-esl29-rsm0-rcm44-esm100-rsr0-rcr100-esr100.exr,ReadingArea_rsl0-rcl25-esl29-rsm0-rcm44-esm100-rsr0-rcr100-esr100.npz,,,,,0,114,114,164,,left,green,2.7,537.8969728946686,538.3107290267944,,2,,2,7,lightness,readingArea,realistic,75,2023-03-27_14h18.07.292,tripletExp_regina_11082022,2022.2.4,119.64753034473904,
8,4,1,0,0.25,1.0,0,0.694444444444444,0.298245614035088,0,0.111111111111111,0.298245614035088,ReadingArea_rsl0-rcl25-esl100-rsm0-rcm69-esm29-rsr0-rcr11-esr29,exr/ReadingArea_rsl0-rcl25-esl100-rsm0-rcm69-esm29-rsr0-rcr11-esr29.exr,ReadingArea_rsl0-rcl25-esl100-rsm0-rcm69-esm29-rsr0-rcr11-esr29.npz,,,,,0,115,115,286,,left,green,1.13,540.0037288665771,540.4535830020905,,2,,2,7,lightness,readingArea,realistic,75,2023-03-27_14h18.07.292,tripletExp_regina_11082022,2022.2.4,119.64753034473904,
2,12,6,0,0.25,0.298245614035088,0,0.027777777777778,3.10526315789474,0,0.027777777777778,1.0,ReadingArea_rsl0-rcl25-esl29-rsm0-rcm2-esm310-rsr0-rcr2-esr100,exr/ReadingArea_rsl0-rcl25-esl29-rsm0-rcm2-esm310-rsr0-rcr2-esr100.exr,ReadingArea_rsl0-rcl25-esl29-rsm0-rcm2-esm310-rsr0-rcr2-esr100.npz,,,,,0,116,116,400,,right,red,2.79,543.946056842804,544.3617179393768,,2,,2,7,lightness,readingArea,realistic,75,2023-03-27_14h18.07.292,tripletExp_regina_11082022,2022.2.4,119.64753034473904,
2,11,5,0,0.25,0.298245614035088,0,1.0,1.0,0,1.0,0.298245614035088,ReadingArea_rsl0-rcl25-esl29-rsm0-rcm100-esm100-rsr0-rcr100-esr29,exr/ReadingArea_rsl0-rcl25-esl29-rsm0-rcm100-esm100-rsr0-rcr100-esr29.exr,ReadingArea_rsl0-rcl25-esl29-rsm0-rcm100-esm100-rsr0-rcr100-esr29.npz,,,,,0,117,117,491,,right,red,2.94,547.854455947876,548.3066439628601,,2,,2,7,lightness,readingArea,realistic,75,2023-03-27_14h18.07.292,tripletExp_regina_11082022,2022.2.4,119.64753034473904,
12,3,10,0,0.027777777777778,3.10526315789474,0,0.444444444444444,0.298245614035088,0,0.694444444444444,1.0,ReadingArea_rsl0-rcl2-esl310-rsm0-rcm44-esm29-rsr0-rcr69-esr100,exr/ReadingArea_rsl0-rcl2-esl310-rsm0-rcm44-esm29-rsr0-rcr69-esr100.exr,ReadingArea_rsl0-rcl2-esl310-rsm0-rcm44-esm29-rsr0-rcr69-esr100.npz,,,,,0,118,118,437,,left,green,2.29,551.7657358646393,552.1793999671936,,2,,2,7,lightness,readingArea,realistic,75,2023-03-27_14h18.07.292,tripletExp_regina_11082022,2022.2.4,119.64753034473904,
0,9,14,0,0.027777777777778,0.298245614035088,0,0.444444444444444,1.0,0,0.25,3.10526315789474,ReadingArea_rsl0-rcl2-esl29-rsm0-rcm44-esm100-rsr0-rcr25-esr310,exr/ReadingArea_rsl0-rcl2-esl29-rsm0-rcm44-esm100-rsr0-rcr25-esr310.exr,ReadingArea_rsl0-rcl2-esl29-rsm0-rcm44-esm100-rsr0-rcr25-esr310.npz,,,,,0,119,119,433,,left,green,4.58,557.4472398757935,557.9001200199127,,2,,2,7,lightness,readingArea,realistic,75,2023-03-27_14h18.07.292,tripletExp_regina_11082022,2022.2.4,119.64753034473904,
6,10,8,0,0.027777777777778,1.0,0,0.694444444444444,1.0,0,0.25,1.0,ReadingArea_rsl0-rcl2-esl100-rsm0-rcm69-esm100-rsr0-rcr25-esr100,exr/ReadingArea_rsl0-rcl2-esl100-rsm0-rcm69-esm100-rsr0-rcr25-esr100.exr,ReadingArea_rsl0-rcl2-esl100-rsm0-rcm69-esm100-rsr0-rcr25-esr100.npz,,,,,0,120,120,167,,right,red,2.02,561.3528308868408,561.7744438648224,,2,,2,7,lightness,readingArea,realistic,75,2023-03-27_14h18.07.292,tripletExp_regina_11082022,2022.2.4,119.64753034473904,
12,3,11,0,0.027777777777778,3.10526315789474,0,0.444444444444444,0.298245614035088,0,1.0,1.0,ReadingArea_rsl0-rcl2-esl310-rsm0-rcm44-esm29-rsr0-rcr100-esr100,exr/ReadingArea_rsl0-rcl2-esl310-rsm0-rcm44-esm29-rsr0-rcr100-esr100.exr,ReadingArea_rsl0-rcl2-esl310-rsm0-rcm44-esm29-rsr0-rcr100-esr100.npz,,,,,0,121,121,83,,left,green,2.51,565.2578949928284,565.6739299297333,,2,,2,7,lightness,readingArea,realistic,75,2023-03-27_14h18.07.292,tripletExp_regina_11082022,2022.2.4,119.64753034473904,
7,10,13,0,0.111111111111111,1.0,0,0.694444444444444,1.0,0,0.111111111111111,3.10526315789474,ReadingArea_rsl0-rcl11-esl100-rsm0-rcm69-esm100-rsr0-rcr11-esr310,exr/ReadingArea_rsl0-rcl11-esl100-rsm0-rcm69-esm100-rsr0-rcr11-esr310.exr,ReadingArea_rsl0-rcl11-esl100-rsm0-rcm69-esm100-rsr0-rcr11-esr310.npz,,,,,0,122,122,446,,right,red,2.88,569.1473360061646,,,2,,2,7,lightness,readingArea,realistic,75,2023-03-27_14h18.07.292,tripletExp_regina_11082022,2022.2.4,119.64753034473904,
0,5,11,0,0.027777777777778,0.298245614035088,0,1.0,0.298245614035088,0,1.0,1.0,ReadingArea_rsl0-rcl2-esl29-rsm0-rcm100-esm29-rsr0-rcr100-esr100,exr/ReadingArea_rsl0-rcl2-esl29-rsm0-rcm100-esm29-rsr0-rcr100-esr100.exr,ReadingArea_rsl0-rcl2-esl29-rsm0-rcm100-esm29-rsr0-rcr100-esr100.npz,,,,,0,123,123,422,,right,red,2.89,573.034698009491,573.4543888568878,,2,,2,7,lightness,readingArea,realistic,75,2023-03-27_14h18.07.292,tripletExp_regina_11082022,2022.2.4,119.64753034473904,
2,6,13,0,0.25,0.298245614035088,0,0.027777777777778,1.0,0,0.111111111111111,3.10526315789474,ReadingArea_rsl0-rcl25-esl29-rsm0-rcm2-esm100-rsr0-rcr11-esr310,exr/ReadingArea_rsl0-rcl25-esl29-rsm0-rcm2-esm100-rsr0-rcr11-esr310.exr,ReadingArea_rsl0-rcl25-esl29-rsm0-rcm2-esm100-rsr0-rcr11-esr310.npz,,,,,0,124,124,388,,left,green,3.13,576.9426138401031,577.3607449531555,,2,,2,7,lightness,readingArea,realistic,75,2023-03-27_14h18.07.292,tripletExp_regina_11082022,2022.2.4,119.64753034473904,
14,10,5,0,0.25,3.10526315789474,0,0.694444444444444,1.0,0,1.0,0.298245614035088,ReadingArea_rsl0-rcl25-esl310-rsm0-rcm69-esm100-rsr0-rcr100-esr29,exr/ReadingArea_rsl0-rcl25-esl310-rsm0-rcm69-esm100-rsr0-rcr100-esr29.exr,ReadingArea_rsl0-rcl25-esl310-rsm0-rcm69-esm100-rsr0-rcr100-esr29.npz,,,,,0,125,125,96,,left,green,4.76,582.5985658168793,583.01495885849,,2,,2,7,lightness,readingArea,realistic,75,2023-03-27_14h18.07.292,tripletExp_regina_11082022,2022.2.4,119.64753034473904,
2,14,7,0,0.25,0.298245614035088,0,0.25,3.10526315789474,0,0.111111111111111,1.0,ReadingArea_rsl0-rcl25-esl29-rsm0-rcm25-esm310-rsr0-rcr11-esr100,exr/ReadingArea_rsl0-rcl25-esl29-rsm0-rcm25-esm310-rsr0-rcr11-esr100.exr,ReadingArea_rsl0-rcl25-esl29-rsm0-rcm25-esm310-rsr0-rcr11-esr100.npz,,,,,0,126,126,310,,right,red,2.91,586.4910969734192,586.9049878120422,,2,,2,7,lightness,readingArea,realistic,75,2023-03-27_14h18.07.292,tripletExp_regina_11082022,2022.2.4,119.64753034473904,
8,0,6,0,0.25,1.0,0,0.027777777777778,0.298245614035088,0,0.027777777777778,1.0,ReadingArea_rsl0-rcl25-esl100-rsm0-rcm2-esm29-rsr0-rcr2-esr100,exr/ReadingArea_rsl0-rcl25-esl100-rsm0-rcm2-esm29-rsr0-rcr2-esr100.exr,ReadingArea_rsl0-rcl25-esl100-rsm0-rcm2-esm29-rsr0-rcr2-esr100.npz,,,,,0,127,127,401,,right,red,3.62,592.1323909759521,592.5427498817444,,2,,2,7,lightness,readingArea,realistic,75,2023-03-27_14h18.07.292,tripletExp_regina_11082022,2022.2.4,119.64753034473904,
7,0,2,0,0.111111111111111,1.0,0,0.027777777777778,0.298245614035088,0,0.25,0.298245614035088,ReadingArea_rsl0-rcl11-esl100-rsm0-rcm2-esm29-rsr0-rcr25-esr29,exr/ReadingArea_rsl0-rcl11-esl100-rsm0-rcm2-esm29-rsr0-rcr25-esr29.exr,ReadingArea_rsl0-rcl11-esl100-rsm0-rcm2-esm29-rsr0-rcr25-esr29.npz,,,,,0,128,128,347,,right,red,2.96,596.0462648868561,596.4616940021515,,2,,2,7,lightness,readingArea,realistic,75,2023-03-27_14h18.07.292,tripletExp_regina_11082022,2022.2.4,119.64753034473904,
7,12,1,0,0.111111111111111,1.0,0,0.027777777777778,3.10526315789474,0,0.111111111111111,0.298245614035088,ReadingArea_rsl0-rcl11-esl100-rsm0-rcm2-esm310-rsr0-rcr11-esr29,exr/ReadingArea_rsl0-rcl11-esl100-rsm0-rcm2-esm310-rsr0-rcr11-esr29.exr,ReadingArea_rsl0-rcl11-esl100-rsm0-rcm2-esm310-rsr0-rcr11-esr29.npz,,,,,0,129,129,20,,right,red,2.86,599.9486358165741,600.3619508743286,,2,,2,7,lightness,readingArea,realistic,75,2023-03-27_14h18.07.292,tripletExp_regina_11082022,2022.2.4,119.64753034473904,
13,8,0,0,0.111111111111111,3.10526315789474,0,0.25,1.0,0,0.027777777777778,0.298245614035088,ReadingArea_rsl0-rcl11-esl310-rsm0-rcm25-esm100-rsr0-rcr2-esr29,exr/ReadingArea_rsl0-rcl11-esl310-rsm0-rcm25-esm100-rsr0-rcr2-esr29.exr,ReadingArea_rsl0-rcl11-esl310-rsm0-rcm25-esm100-rsr0-rcr2-esr29.npz,,,,,0,130,130,429,,left,green,1.72,602.0727999210358,602.4916548728943,,2,,2,7,lightness,readingArea,realistic,75,2023-03-27_14h18.07.292,tripletExp_regina_11082022,2022.2.4,119.64753034473904,
8,14,6,0,0.25,1.0,0,0.25,3.10526315789474,0,0.027777777777778,1.0,ReadingArea_rsl0-rcl25-esl100-rsm0-rcm25-esm310-rsr0-rcr2-esr100,exr/ReadingArea_rsl0-rcl25-esl100-rsm0-rcm25-esm310-rsr0-rcr2-esr100.exr,ReadingArea_rsl0-rcl25-esl100-rsm0-rcm25-esm310-rsr0-rcr2-esr100.npz,,,,,0,131,131,469,,left,green,3.43,605.9641268253326,606.3845188617706,,2,,2,7,lightness,readingArea,realistic,75,2023-03-27_14h18.07.292,tripletExp_regina_11082022,2022.2.4,119.64753034473904,
3,13,1,0,0.444444444444444,0.298245614035088,0,0.111111111111111,3.10526315789474,0,0.111111111111111,0.298245614035088,ReadingArea_rsl0-rcl44-esl29-rsm0-rcm11-esm310-rsr0-rcr11-esr29,exr/ReadingArea_rsl0-rcl44-esl29-rsm0-rcm11-esm310-rsr0-rcr11-esr29.exr,ReadingArea_rsl0-rcl44-esl29-rsm0-rcm11-esm310-rsr0-rcr11-esr29.npz,,,,,0,132,132,421,,left,green,4.31,611.6234369277954,612.044282913208,,2,,2,7,lightness,readingArea,realistic,75,2023-03-27_14h18.07.292,tripletExp_regina_11082022,2022.2.4,119.64753034473904,
14,6,7,0,0.25,3.10526315789474,0,0.027777777777778,1.0,0,0.111111111111111,1.0,ReadingArea_rsl0-rcl25-esl310-rsm0-rcm2-esm100-rsr0-rcr11-esr100,exr/ReadingArea_rsl0-rcl25-esl310-rsm0-rcm2-esm100-rsr0-rcr11-esr100.exr,ReadingArea_rsl0-rcl25-esl310-rsm0-rcm2-esm100-rsr0-rcr11-esr100.npz,,,,,0,133,133,306,,right,red,2.67,615.5289628505707,615.944662809372,,2,,2,7,lightness,readingArea,realistic,75,2023-03-27_14h18.07.292,tripletExp_regina_11082022,2022.2.4,119.64753034473904,
8,2,0,0,0.25,1.0,0,0.25,0.298245614035088,0,0.027777777777778,0.298245614035088,ReadingArea_rsl0-rcl25-esl100-rsm0-rcm25-esm29-rsr0-rcr2-esr29,exr/ReadingArea_rsl0-rcl25-esl100-rsm0-rcm25-esm29-rsr0-rcr2-esr29.exr,ReadingArea_rsl0-rcl25-esl100-rsm0-rcm25-esm29-rsr0-rcr2-esr29.npz,,,,,0,134,134,574,,left,green,3.0,619.4313249588013,619.8546118736267,,2,,2,7,lightness,readingArea,realistic,75,2023-03-27_14h18.07.292,tripletExp_regina_11082022,2022.2.4,119.64753034473904,
1,13,11,0,0.111111111111111,0.298245614035088,0,0.111111111111111,3.10526315789474,0,1.0,1.0,ReadingArea_rsl0-rcl11-esl29-rsm0-rcm11-esm310-rsr0-rcr100-esr100,exr/ReadingArea_rsl0-rcl11-esl29-rsm0-rcm11-esm310-rsr0-rcr100-esr100.exr,ReadingArea_rsl0-rcl11-esl29-rsm0-rcm11-esm310-rsr0-rcr100-esr100.npz,,,,,0,135,135,333,,left,green,2.66,623.3256659507751,623.7465269565582,,2,,2,7,lightness,readingArea,realistic,75,2023-03-27_14h18.07.292,tripletExp_regina_11082022,2022.2.4,119.64753034473904,
14,5,10,0,0.25,3.10526315789474,0,1.0,0.298245614035088,0,0.694444444444444,1.0,ReadingArea_rsl0-rcl25-esl310-rsm0-rcm100-esm29-rsr0-rcr69-esr100,exr/ReadingArea_rsl0-rcl25-esl310-rsm0-rcm100-esm29-rsr0-rcr69-esr100.exr,ReadingArea_rsl0-rcl25-esl310-rsm0-rcm100-esm29-rsr0-rcr69-esr100.npz,,,,,0,136,136,170,,left,green,2.74,627.2289600372314,627.644740819931,,2,,2,7,lightness,readingArea,realistic,75,2023-03-27_14h18.07.292,tripletExp_regina_11082022,2022.2.4,119.64753034473904,
14,13,0,0,0.25,3.10526315789474,0,0.111111111111111,3.10526315789474,0,0.027777777777778,0.298245614035088,ReadingArea_rsl0-rcl25-esl310-rsm0-rcm11-esm310-rsr0-rcr2-esr29,exr/ReadingArea_rsl0-rcl25-esl310-rsm0-rcm11-esm310-rsr0-rcr2-esr29.exr,ReadingArea_rsl0-rcl25-esl310-rsm0-rcm11-esm310-rsr0-rcr2-esr29.npz,,,,,0,137,137,417,,left,green,3.38,631.1009290218353,631.5277168750763,,2,,2,7,lightness,readingArea,realistic,75,2023-03-27_14h18.07.292,tripletExp_regina_11082022,2022.2.4,119.64753034473904,
13,0,8,0,0.111111111111111,3.10526315789474,0,0.027777777777778,0.298245614035088,0,0.25,1.0,ReadingArea_rsl0-rcl11-esl310-rsm0-rcm2-esm29-rsr0-rcr25-esr100,exr/ReadingArea_rsl0-rcl11-esl310-rsm0-rcm2-esm29-rsr0-rcr25-esr100.exr,ReadingArea_rsl0-rcl11-esl310-rsm0-rcm2-esm29-rsr0-rcr25-esr100.npz,,,,,0,138,138,249,,right,red,4.71,636.7822418212891,637.1950948238373,,2,,2,7,lightness,readingArea,realistic,75,2023-03-27_14h18.07.292,tripletExp_regina_11082022,2022.2.4,119.64753034473904,
10,7,8,0,0.694444444444444,1.0,0,0.111111111111111,1.0,0,0.25,1.0,ReadingArea_rsl0-rcl69-esl100-rsm0-rcm11-esm100-rsr0-rcr25-esr100,exr/ReadingArea_rsl0-rcl69-esl100-rsm0-rcm11-esm100-rsr0-rcr25-esr100.exr,ReadingArea_rsl0-rcl69-esl100-rsm0-rcm11-esm100-rsr0-rcr25-esr100.npz,,,,,0,139,139,57,,right,red,2.89,640.6570749282837,641.0690648555756,,2,,2,7,lightness,readingArea,realistic,75,2023-03-27_14h18.07.292,tripletExp_regina_11082022,2022.2.4,119.64753034473904,
3,4,5,0,0.444444444444444,0.298245614035088,0,0.694444444444444,0.298245614035088,0,1.0,0.298245614035088,ReadingArea_rsl0-rcl44-esl29-rsm0-rcm69-esm29-rsr0-rcr100-esr29,exr/ReadingArea_rsl0-rcl44-esl29-rsm0-rcm69-esm29-rsr0-rcr100-esr29.exr,ReadingArea_rsl0-rcl44-esl29-rsm0-rcm69-esm29-rsr0-rcr100-esr29.npz,,,,,0,140,140,233,,left,green,2.69,644.5712878704071,645.0061979293823,,2,,2,7,lightness,readingArea,realistic,75,2023-03-27_14h18.07.292,tripletExp_regina_11082022,2022.2.4,119.64753034473904,
2,4,10,0,0.25,0.298245614035088,0,0.694444444444444,0.298245614035088,0,0.694444444444444,1.0,ReadingArea_rsl0-rcl25-esl29-rsm0-rcm69-esm29-rsr0-rcr69-esr100,exr/ReadingArea_rsl0-rcl25-esl29-rsm0-rcm69-esm29-rsr0-rcr69-esr100.exr,ReadingArea_rsl0-rcl25-esl29-rsm0-rcm69-esm29-rsr0-rcr69-esr100.npz,,,,,0,141,141,174,,left,green,1.35,646.7218728065491,647.1351709365845,,2,,2,7,lightness,readingArea,realistic,75,2023-03-27_14h18.07.292,tripletExp_regina_11082022,2022.2.4,119.64753034473904,
11,8,2,0,1.0,1.0,0,0.25,1.0,0,0.25,0.298245614035088,ReadingArea_rsl0-rcl100-esl100-rsm0-rcm25-esm100-rsr0-rcr25-esr29,exr/ReadingArea_rsl0-rcl100-esl100-rsm0-rcm25-esm100-rsr0-rcr25-esr29.exr,ReadingArea_rsl0-rcl100-esl100-rsm0-rcm25-esm100-rsr0-rcr25-esr29.npz,,,,,0,142,142,406,,right,red,1.56,648.8398628234863,649.2521259784698,,2,,2,7,lightness,readingArea,realistic,75,2023-03-27_14h18.07.292,tripletExp_regina_11082022,2022.2.4,119.64753034473904,
11,12,2,0,1.0,1.0,0,0.027777777777778,3.10526315789474,0,0.25,0.298245614035088,ReadingArea_rsl0-rcl100-esl100-rsm0-rcm2-esm310-rsr0-rcr25-esr29,exr/ReadingArea_rsl0-rcl100-esl100-rsm0-rcm2-esm310-rsr0-rcr25-esr29.exr,ReadingArea_rsl0-rcl100-esl100-rsm0-rcm2-esm310-rsr0-rcr25-esr29.npz,,,,,0,143,143,423,,right,red,2.25,652.7056918144226,653.1253459453583,,2,,2,7,lightness,readingArea,realistic,75,2023-03-27_14h18.07.292,tripletExp_regina_11082022,2022.2.4,119.64753034473904,
3,12,6,0,0.444444444444444,0.298245614035088,0,0.027777777777778,3.10526315789474,0,0.027777777777778,1.0,ReadingArea_rsl0-rcl44-esl29-rsm0-rcm2-esm310-rsr0-rcr2-esr100,exr/ReadingArea_rsl0-rcl44-esl29-rsm0-rcm2-esm310-rsr0-rcr2-esr100.exr,ReadingArea_rsl0-rcl44-esl29-rsm0-rcm2-esm310-rsr0-rcr2-esr100.npz,,,,,0,144,144,353,,right,red,1.71,654.8179969787598,655.2316598892212,,2,,2,7,lightness,readingArea,realistic,75,2023-03-27_14h18.07.292,tripletExp_regina_11082022,2022.2.4,119.64753034473904,
11,7,10,0,1.0,1.0,0,0.111111111111111,1.0,0,0.694444444444444,1.0,ReadingArea_rsl0-rcl100-esl100-rsm0-rcm11-esm100-rsr0-rcr69-esr100,exr/ReadingArea_rsl0-rcl100-esl100-rsm0-rcm11-esm100-rsr0-rcr69-esr100.exr,ReadingArea_rsl0-rcl100-esl100-rsm0-rcm11-esm100-rsr0-rcr69-esr100.npz,,,,,0,145,145,411,,right,red,3.15,658.6953268051147,,,2,,2,7,lightness,readingArea,realistic,75,2023-03-27_14h18.07.292,tripletExp_regina_11082022,2022.2.4,119.64753034473904,
3,13,12,0,0.444444444444444,0.298245614035088,0,0.111111111111111,3.10526315789474,0,0.027777777777778,3.10526315789474,ReadingArea_rsl0-rcl44-esl29-rsm0-rcm11-esm310-rsr0-rcr2-esr310,exr/ReadingArea_rsl0-rcl44-esl29-rsm0-rcm11-esm310-rsr0-rcr2-esr310.exr,ReadingArea_rsl0-rcl44-esl29-rsm0-rcm11-esm310-rsr0-rcr2-esr310.npz,,,,,0,146,146,34,,right,red,4.06,664.3659529685974,664.7865028381348,,2,,2,7,lightness,readingArea,realistic,75,2023-03-27_14h18.07.292,tripletExp_regina_11082022,2022.2.4,119.64753034473904,
4,8,14,0,0.694444444444444,0.298245614035088,0,0.25,1.0,0,0.25,3.10526315789474,ReadingArea_rsl0-rcl69-esl29-rsm0-rcm25-esm100-rsr0-rcr25-esr310,exr/ReadingArea_rsl0-rcl69-esl29-rsm0-rcm25-esm100-rsr0-rcr25-esr310.exr,ReadingArea_rsl0-rcl69-esl29-rsm0-rcm25-esm100-rsr0-rcr25-esr310.npz,,,,,0,147,147,234,,left,green,2.8,668.2569608688354,668.6789979934692,,2,,2,7,lightness,readingArea,realistic,75,2023-03-27_14h18.07.292,tripletExp_regina_11082022,2022.2.4,119.64753034473904,
6,12,0,0,0.027777777777778,1.0,0,0.027777777777778,3.10526315789474,0,0.027777777777778,0.298245614035088,ReadingArea_rsl0-rcl2-esl100-rsm0-rcm2-esm310-rsr0-rcr2-esr29,exr/ReadingArea_rsl0-rcl2-esl100-rsm0-rcm2-esm310-rsr0-rcr2-esr29.exr,ReadingArea_rsl0-rcl2-esl100-rsm0-rcm2-esm310-rsr0-rcr2-esr29.npz,,,,,0,148,148,23,,left,green,4.29,673.9216380119324,674.3465578556061,,2,,2,7,lightness,readingArea,realistic,75,2023-03-27_14h18.07.292,tripletExp_regina_11082022,2022.2.4,119.64753034473904,
1,12,0,0,0.111111111111111,0.298245614035088,0,0.027777777777778,3.10526315789474,0,0.027777777777778,0.298245614035088,ReadingArea_rsl0-rcl11-esl29-rsm0-rcm2-esm310-rsr0-rcr2-esr29,exr/ReadingArea_rsl0-rcl11-esl29-rsm0-rcm2-esm310-rsr0-rcr2-esr29.exr,ReadingArea_rsl0-rcl11-esl29-rsm0-rcm2-esm310-rsr0-rcr2-esr29.npz,,,,,0,149,149,113,,left,green,4.53,679.5903038978577,679.796826839447,,2,,2,7,lightness,readingArea,realistic,75,2023-03-27_14h18.07.292,tripletExp_regina_11082022,2022.2.4,119.64753034473904,
4,5,9,0,0.694444444444444,0.298245614035088,0,1.0,0.298245614035088,0,0.444444444444444,1.0,ReadingArea_rsl0-rcl69-esl29-rsm0-rcm100-esm29-rsr0-rcr44-esr100,exr/ReadingArea_rsl0-rcl69-esl29-rsm0-rcm100-esm29-rsr0-rcr44-esr100.exr,ReadingArea_rsl0-rcl69-esl29-rsm0-rcm100-esm29-rsr0-rcr44-esr100.npz,,,,,0,150,150,211,,left,green,2.39,764.1695098876953,,,3,,2,7,lightness,readingArea,realistic,75,2023-03-27_14h18.07.292,tripletExp_regina_11082022,2022.2.4,119.64753034473904,
5,3,4,0,1.0,0.298245614035088,0,0.444444444444444,0.298245614035088,0,0.694444444444444,0.298245614035088,ReadingArea_rsl0-rcl100-esl29-rsm0-rcm44-esm29-rsr0-rcr69-esr29,exr/ReadingArea_rsl0-rcl100-esl29-rsm0-rcm44-esm29-rsr0-rcr69-esr29.exr,ReadingArea_rsl0-rcl100-esl29-rsm0-rcm44-esm29-rsr0-rcr69-esr29.npz,,,,,0,151,151,201,,right,red,2.45,768.1191728115082,768.5384588241577,,3,,2,7,lightness,readingArea,realistic,75,2023-03-27_14h18.07.292,tripletExp_regina_11082022,2022.2.4,119.64753034473904,
1,14,0,0,0.111111111111111,0.298245614035088,0,0.25,3.10526315789474,0,0.027777777777778,0.298245614035088,ReadingArea_rsl0-rcl11-esl29-rsm0-rcm25-esm310-rsr0-rcr2-esr29,exr/ReadingArea_rsl0-rcl11-esl29-rsm0-rcm25-esm310-rsr0-rcr2-esr29.exr,ReadingArea_rsl0-rcl11-esl29-rsm0-rcm25-esm310-rsr0-rcr2-esr29.npz,,,,,0,152,152,394,,left,green,2.09,772.0275468826294,772.4441089630127,,3,,2,7,lightness,readingArea,realistic,75,2023-03-27_14h18.07.292,tripletExp_regina_11082022,2022.2.4,119.64753034473904,
8,1,10,0,0.25,1.0,0,0.111111111111111,0.298245614035088,0,0.694444444444444,1.0,ReadingArea_rsl0-rcl25-esl100-rsm0-rcm11-esm29-rsr0-rcr69-esr100,exr/ReadingArea_rsl0-rcl25-esl100-rsm0-rcm11-esm29-rsr0-rcr69-esr100.exr,ReadingArea_rsl0-rcl25-esl100-rsm0-rcm11-esm29-rsr0-rcr69-esr100.npz,,,,,0,153,153,442,,left,green,1.65,774.1421399116516,774.560956954956,,3,,2,7,lightness,readingArea,realistic,75,2023-03-27_14h18.07.292,tripletExp_regina_11082022,2022.2.4,119.64753034473904,
14,1,13,0,0.25,3.10526315789474,0,0.111111111111111,0.298245614035088,0,0.111111111111111,3.10526315789474,ReadingArea_rsl0-rcl25-esl310-rsm0-rcm11-esm29-rsr0-rcr11-esr310,exr/ReadingArea_rsl0-rcl25-esl310-rsm0-rcm11-esm29-rsr0-rcr11-esr310.exr,ReadingArea_rsl0-rcl25-esl310-rsm0-rcm11-esm29-rsr0-rcr11-esr310.npz,,,,,0,154,154,265,,right,red,4.35,779.816447019577,780.2402908802032,,3,,2,7,lightness,readingArea,realistic,75,2023-03-27_14h18.07.292,tripletExp_regina_11082022,2022.2.4,119.64753034473904,
1,7,2,0,0.111111111111111,0.298245614035088,0,0.111111111111111,1.0,0,0.25,0.298245614035088,ReadingArea_rsl0-rcl11-esl29-rsm0-rcm11-esm100-rsr0-rcr25-esr29,exr/ReadingArea_rsl0-rcl11-esl29-rsm0-rcm11-esm100-rsr0-rcr25-esr29.exr,ReadingArea_rsl0-rcl11-esl29-rsm0-rcm11-esm100-rsr0-rcr25-esr29.npz,,,,,0,155,155,162,,left,green,4.24,785.480742931366,785.8988389968872,,3,,2,7,lightness,readingArea,realistic,75,2023-03-27_14h18.07.292,tripletExp_regina_11082022,2022.2.4,119.64753034473904,
14,7,13,0,0.25,3.10526315789474,0,0.111111111111111,1.0,0,0.111111111111111,3.10526315789474,ReadingArea_rsl0-rcl25-esl310-rsm0-rcm11-esm100-rsr0-rcr11-esr310,exr/ReadingArea_rsl0-rcl25-esl310-rsm0-rcm11-esm100-rsr0-rcr11-esr310.exr,ReadingArea_rsl0-rcl25-esl310-rsm0-rcm11-esm100-rsr0-rcr11-esr310.npz,,,,,0,156,156,358,,right,red,2.96,789.3689379692078,789.7882368564606,,3,,2,7,lightness,readingArea,realistic,75,2023-03-27_14h18.07.292,tripletExp_regina_11082022,2022.2.4,119.64753034473904,
3,10,4,0,0.444444444444444,0.298245614035088,0,0.694444444444444,1.0,0,0.694444444444444,0.298245614035088,ReadingArea_rsl0-rcl44-esl29-rsm0-rcm69-esm100-rsr0-rcr69-esr29,exr/ReadingArea_rsl0-rcl44-esl29-rsm0-rcm69-esm100-rsr0-rcr69-esr29.exr,ReadingArea_rsl0-rcl44-esl29-rsm0-rcm69-esm100-rsr0-rcr69-esr29.npz,,,,,0,157,157,435,,right,red,3.0,793.2541518211365,793.6740219593048,,3,,2,7,lightness,readingArea,realistic,75,2023-03-27_14h18.07.292,tripletExp_regina_11082022,2022.2.4,119.64753034473904,
11,12,10,0,1.0,1.0,0,0.027777777777778,3.10526315789474,0,0.694444444444444,1.0,ReadingArea_rsl0-rcl100-esl100-rsm0-rcm2-esm310-rsr0-rcr69-esr100,exr/ReadingArea_rsl0-rcl100-esl100-rsm0-rcm2-esm310-rsr0-rcr69-esr100.exr,ReadingArea_rsl0-rcl100-esl100-rsm0-rcm2-esm310-rsr0-rcr69-esr100.npz,,,,,0,158,158,465,,right,red,2.26,797.1658408641815,797.5849628448486,,3,,2,7,lightness,readingArea,realistic,75,2023-03-27_14h18.07.292,tripletExp_regina_11082022,2022.2.4,119.64753034473904,
10,5,2,0,0.694444444444444,1.0,0,1.0,0.298245614035088,0,0.25,0.298245614035088,ReadingArea_rsl0-rcl69-esl100-rsm0-rcm100-esm29-rsr0-rcr25-esr29,exr/ReadingArea_rsl0-rcl69-esl100-rsm0-rcm100-esm29-rsr0-rcr25-esr29.exr,ReadingArea_rsl0-rcl69-esl100-rsm0-rcm100-esm29-rsr0-rcr25-esr29.npz,,,,,0,159,159,299,,right,red,1.76,799.2873458862305,799.7048330307007,,3,,2,7,lightness,readingArea,realistic,75,2023-03-27_14h18.07.292,tripletExp_regina_11082022,2022.2.4,119.64753034473904,
6,4,13,0,0.027777777777778,1.0,0,0.694444444444444,0.298245614035088,0,0.111111111111111,3.10526315789474,ReadingArea_rsl0-rcl2-esl100-rsm0-rcm69-esm29-rsr0-rcr11-esr310,exr/ReadingArea_rsl0-rcl2-esl100-rsm0-rcm69-esm29-rsr0-rcr11-esr310.exr,ReadingArea_rsl0-rcl2-esl100-rsm0-rcm69-esm29-rsr0-rcr11-esr310.npz,,,,,0,160,160,202,,right,red,4.27,804.9698739051819,805.3927600383759,,3,,2,7,lightness,readingArea,realistic,75,2023-03-27_14h18.07.292,tripletExp_regina_11082022,2022.2.4,119.64753034473904,
3,7,8,0,0.444444444444444,0.298245614035088,0,0.111111111111111,1.0,0,0.25,1.0,ReadingArea_rsl0-rcl44-esl29-rsm0-rcm11-esm100-rsr0-rcr25-esr100,exr/ReadingArea_rsl0-rcl44-esl29-rsm0-rcm11-esm100-rsr0-rcr25-esr100.exr,ReadingArea_rsl0-rcl44-esl29-rsm0-rcm11-esm100-rsr0-rcr25-esr100.npz,,,,,0,161,161,246,,left,green,4.44,810.6572208404541,811.0780799388885,,3,,2,7,lightness,readingArea,realistic,75,2023-03-27_14h18.07.292,tripletExp_regina_11082022,2022.2.4,119.64753034473904,
5,9,0,0,1.0,0.298245614035088,0,0.444444444444444,1.0,0,0.027777777777778,0.298245614035088,ReadingArea_rsl0-rcl100-esl29-rsm0-rcm44-esm100-rsr0-rcr2-esr29,exr/ReadingArea_rsl0-rcl100-esl29-rsm0-rcm44-esm100-rsr0-rcr2-esr29.exr,ReadingArea_rsl0-rcl100-esl29-rsm0-rcm44-esm100-rsr0-rcr2-esr29.npz,,,,,0,162,162,575,,left,green,3.24,814.5578219890594,814.9778950214386,,3,,2,7,lightness,readingArea,realistic,75,2023-03-27_14h18.07.292,tripletExp_regina_11082022,2022.2.4,119.64753034473904,
14,0,9,0,0.25,3.10526315789474,0,0.027777777777778,0.298245614035088,0,0.444444444444444,1.0,ReadingArea_rsl0-rcl25-esl310-rsm0-rcm2-esm29-rsr0-rcr44-esr100,exr/ReadingArea_rsl0-rcl25-esl310-rsm0-rcm2-esm29-rsr0-rcr44-esr100.exr,ReadingArea_rsl0-rcl25-esl310-rsm0-rcm2-esm29-rsr0-rcr44-esr100.npz,,,,,0,163,163,90,,right,red,3.87,820.2348849773407,820.6533029079437,,3,,2,7,lightness,readingArea,realistic,75,2023-03-27_14h18.07.292,tripletExp_regina_11082022,2022.2.4,119.64753034473904,
10,13,1,0,0.694444444444444,1.0,0,0.111111111111111,3.10526315789474,0,0.111111111111111,0.298245614035088,ReadingArea_rsl0-rcl69-esl100-rsm0-rcm11-esm310-rsr0-rcr11-esr29,exr/ReadingArea_rsl0-rcl69-esl100-rsm0-rcm11-esm310-rsr0-rcr11-esr29.exr,ReadingArea_rsl0-rcl69-esl100-rsm0-rcm11-esm310-rsr0-rcr11-esr29.npz,,,,,0,164,164,149,,right,red,4.38,825.8949599266052,826.3558769226074,,3,,2,7,lightness,readingArea,realistic,75,2023-03-27_14h18.07.292,tripletExp_regina_11082022,2022.2.4,119.64753034473904,
14,12,9,0,0.25,3.10526315789474,0,0.027777777777778,3.10526315789474,0,0.444444444444444,1.0,ReadingArea_rsl0-rcl25-esl310-rsm0-rcm2-esm310-rsr0-rcr44-esr100,exr/ReadingArea_rsl0-rcl25-esl310-rsm0-rcm2-esm310-rsr0-rcr44-esr100.exr,ReadingArea_rsl0-rcl25-esl310-rsm0-rcm2-esm310-rsr0-rcr44-esr100.npz,,,,,0,165,165,40,,right,red,2.95,829.8274610042572,830.2454998493195,,3,,2,7,lightness,readingArea,realistic,75,2023-03-27_14h18.07.292,tripletExp_regina_11082022,2022.2.4,119.64753034473904,
10,7,2,0,0.694444444444444,1.0,0,0.111111111111111,1.0,0,0.25,0.298245614035088,ReadingArea_rsl0-rcl69-esl100-rsm0-rcm11-esm100-rsr0-rcr25-esr29,exr/ReadingArea_rsl0-rcl69-esl100-rsm0-rcm11-esm100-rsr0-rcr25-esr29.exr,ReadingArea_rsl0-rcl69-esl100-rsm0-rcm11-esm100-rsr0-rcr25-esr29.npz,,,,,0,166,166,523,,right,red,2.89,833.7298710346222,834.1470868587494,,3,,2,7,lightness,readingArea,realistic,75,2023-03-27_14h18.07.292,tripletExp_regina_11082022,2022.2.4,119.64753034473904,
9,0,6,0,0.444444444444444,1.0,0,0.027777777777778,0.298245614035088,0,0.027777777777778,1.0,ReadingArea_rsl0-rcl44-esl100-rsm0-rcm2-esm29-rsr0-rcr2-esr100,exr/ReadingArea_rsl0-rcl44-esl100-rsm0-rcm2-esm29-rsr0-rcr2-esr100.exr,ReadingArea_rsl0-rcl44-esl100-rsm0-rcm2-esm29-rsr0-rcr2-esr100.npz,,,,,0,167,167,362,,right,red,3.04,837.6367208957672,838.0557010173798,,3,,2,7,lightness,readingArea,realistic,75,2023-03-27_14h18.07.292,tripletExp_regina_11082022,2022.2.4,119.64753034473904,
4,14,1,0,0.694444444444444,0.298245614035088,0,0.25,3.10526315789474,0,0.111111111111111,0.298245614035088,ReadingArea_rsl0-rcl69-esl29-rsm0-rcm25-esm310-rsr0-rcr11-esr29,exr/ReadingArea_rsl0-rcl69-esl29-rsm0-rcm25-esm310-rsr0-rcr11-esr29.exr,ReadingArea_rsl0-rcl69-esl29-rsm0-rcm25-esm310-rsr0-rcr11-esr29.npz,,,,,0,168,168,477,,left,green,2.68,841.5441830158234,841.9635148048401,,3,,2,7,lightness,readingArea,realistic,75,2023-03-27_14h18.07.292,tripletExp_regina_11082022,2022.2.4,119.64753034473904,
3,12,14,0,0.444444444444444,0.298245614035088,0,0.027777777777778,3.10526315789474,0,0.25,3.10526315789474,ReadingArea_rsl0-rcl44-esl29-rsm0-rcm2-esm310-rsr0-rcr25-esr310,exr/ReadingArea_rsl0-rcl44-esl29-rsm0-rcm2-esm310-rsr0-rcr25-esr310.exr,ReadingArea_rsl0-rcl44-esl29-rsm0-rcm2-esm310-rsr0-rcr25-esr310.npz,,,,,0,169,169,16,,left,green,3.35,845.4191339015961,845.8429279327393,,3,,2,7,lightness,readingArea,realistic,75,2023-03-27_14h18.07.292,tripletExp_regina_11082022,2022.2.4,119.64753034473904,
10,7,11,0,0.694444444444444,1.0,0,0.111111111111111,1.0,0,1.0,1.0,ReadingArea_rsl0-rcl69-esl100-rsm0-rcm11-esm100-rsr0-rcr100-esr100,exr/ReadingArea_rsl0-rcl69-esl100-rsm0-rcm11-esm100-rsr0-rcr100-esr100.exr,ReadingArea_rsl0-rcl69-esl100-rsm0-rcm11-esm100-rsr0-rcr100-esr100.npz,,,,,0,170,170,542,,left,green,3.32,849.3198149204254,849.7732989788055,,3,,2,7,lightness,readingArea,realistic,75,2023-03-27_14h18.07.292,tripletExp_regina_11082022,2022.2.4,119.64753034473904,
6,12,8,0,0.027777777777778,1.0,0,0.027777777777778,3.10526315789474,0,0.25,1.0,ReadingArea_rsl0-rcl2-esl100-rsm0-rcm2-esm310-rsr0-rcr25-esr100,exr/ReadingArea_rsl0-rcl2-esl100-rsm0-rcm2-esm310-rsr0-rcr25-esr100.exr,ReadingArea_rsl0-rcl2-esl100-rsm0-rcm2-esm310-rsr0-rcr25-esr100.npz,,,,,0,171,171,186,,left,green,2.87,853.2506220340729,,,3,,2,7,lightness,readingArea,realistic,75,2023-03-27_14h18.07.292,tripletExp_regina_11082022,2022.2.4,119.64753034473904,
2,7,11,0,0.25,0.298245614035088,0,0.111111111111111,1.0,0,1.0,1.0,ReadingArea_rsl0-rcl25-esl29-rsm0-rcm11-esm100-rsr0-rcr100-esr100,exr/ReadingArea_rsl0-rcl25-esl29-rsm0-rcm11-esm100-rsr0-rcr100-esr100.exr,ReadingArea_rsl0-rcl25-esl29-rsm0-rcm11-esm100-rsr0-rcr100-esr100.npz,,,,,0,172,172,194,,left,green,2.79,857.1615798473358,857.5838828086853,,3,,2,7,lightness,readingArea,realistic,75,2023-03-27_14h18.07.292,tripletExp_regina_11082022,2022.2.4,119.64753034473904,
9,8,0,0,0.444444444444444,1.0,0,0.25,1.0,0,0.027777777777778,0.298245614035088,ReadingArea_rsl0-rcl44-esl100-rsm0-rcm25-esm100-rsr0-rcr2-esr29,exr/ReadingArea_rsl0-rcl44-esl100-rsm0-rcm25-esm100-rsr0-rcr2-esr29.exr,ReadingArea_rsl0-rcl44-esl100-rsm0-rcm25-esm100-rsr0-rcr2-esr29.npz,,,,,0,173,173,66,,left,green,2.85,861.0729389190674,861.5014019012451,,3,,2,7,lightness,readingArea,realistic,75,2023-03-27_14h18.07.292,tripletExp_regina_11082022,2022.2.4,119.64753034473904,
2,0,13,0,0.25,0.298245614035088,0,0.027777777777778,0.298245614035088,0,0.111111111111111,3.10526315789474,ReadingArea_rsl0-rcl25-esl29-rsm0-rcm2-esm29-rsr0-rcr11-esr310,exr/ReadingArea_rsl0-rcl25-esl29-rsm0-rcm2-esm29-rsr0-rcr11-esr310.exr,ReadingArea_rsl0-rcl25-esl29-rsm0-rcm2-esm29-rsr0-rcr11-esr310.npz,,,,,0,174,174,50,,left,green,2.56,864.9705028533936,865.3946309089661,,3,,2,7,lightness,readingArea,realistic,75,2023-03-27_14h18.07.292,tripletExp_regina_11082022,2022.2.4,119.64753034473904,
0,4,6,0,0.027777777777778,0.298245614035088,0,0.694444444444444,0.298245614035088,0,0.027777777777778,1.0,ReadingArea_rsl0-rcl2-esl29-rsm0-rcm69-esm29-rsr0-rcr2-esr100,exr/ReadingArea_rsl0-rcl2-esl29-rsm0-rcm69-esm29-rsr0-rcr2-esr100.exr,ReadingArea_rsl0-rcl2-esl29-rsm0-rcm69-esm29-rsr0-rcr2-esr100.npz,,,,,0,175,175,49,,right,red,3.44,868.8513259887695,869.2671148777008,,3,,2,7,lightness,readingArea,realistic,75,2023-03-27_14h18.07.292,tripletExp_regina_11082022,2022.2.4,119.64753034473904,
14,11,0,0,0.25,3.10526315789474,0,1.0,1.0,0,0.027777777777778,0.298245614035088,ReadingArea_rsl0-rcl25-esl310-rsm0-rcm100-esm100-rsr0-rcr2-esr29,exr/ReadingArea_rsl0-rcl25-esl310-rsm0-rcm100-esm100-rsr0-rcr2-esr29.exr,ReadingArea_rsl0-rcl25-esl310-rsm0-rcm100-esm100-rsr0-rcr2-esr29.npz,,,,,0,176,176,227,,left,green,2.32,872.749030828476,873.1732130050659,,3,,2,7,lightness,readingArea,realistic,75,2023-03-27_14h18.07.292,tripletExp_regina_11082022,2022.2.4,119.64753034473904,
5,11,8,0,1.0,0.298245614035088,0,1.0,1.0,0,0.25,1.0,ReadingArea_rsl0-rcl100-esl29-rsm0-rcm100-esm100-rsr0-rcr25-esr100,exr/ReadingArea_rsl0-rcl100-esl29-rsm0-rcm100-esm100-rsr0-rcr25-esr100.exr,ReadingArea_rsl0-rcl100-esl29-rsm0-rcm100-esm100-rsr0-rcr25-esr100.npz,,,,,0,177,177,548,,left,green,3.83,878.4363799095154,878.8541758060455,,3,,2,7,lightness,readingArea,realistic,75,2023-03-27_14h18.07.292,tripletExp_regina_11082022,2022.2.4,119.64753034473904,
13,3,14,0,0.111111111111111,3.10526315789474,0,0.444444444444444,0.298245614035088,0,0.25,3.10526315789474,ReadingArea_rsl0-rcl11-esl310-rsm0-rcm44-esm29-rsr0-rcr25-esr310,exr/ReadingArea_rsl0-rcl11-esl310-rsm0-rcm44-esm29-rsr0-rcr25-esr310.exr,ReadingArea_rsl0-rcl11-esl310-rsm0-rcm44-esm29-rsr0-rcr25-esr310.npz,,,,,0,178,178,38,,left,green,2.48,882.3164319992065,882.7348508834839,,3,,2,7,lightness,readingArea,realistic,75,2023-03-27_14h18.07.292,tripletExp_regina_11082022,2022.2.4,119.64753034473904,
12,14,4,0,0.027777777777778,3.10526315789474,0,0.25,3.10526315789474,0,0.694444444444444,0.298245614035088,ReadingArea_rsl0-rcl2-esl310-rsm0-rcm25-esm310-rsr0-rcr69-esr29,exr/ReadingArea_rsl0-rcl2-esl310-rsm0-rcm25-esm310-rsr0-rcr69-esr29.exr,ReadingArea_rsl0-rcl2-esl310-rsm0-rcm25-esm310-rsr0-rcr69-esr29.npz,,,,,0,179,179,315,,right,red,1.29,884.4252920150757,884.8467438220978,,3,,2,7,lightness,readingArea,realistic,75,2023-03-27_14h18.07.292,tripletExp_regina_11082022,2022.2.4,119.64753034473904,
4,9,13,0,0.694444444444444,0.298245614035088,0,0.444444444444444,1.0,0,0.111111111111111,3.10526315789474,ReadingArea_rsl0-rcl69-esl29-rsm0-rcm44-esm100-rsr0-rcr11-esr310,exr/ReadingArea_rsl0-rcl69-esl29-rsm0-rcm44-esm100-rsr0-rcr11-esr310.exr,ReadingArea_rsl0-rcl69-esl29-rsm0-rcm44-esm100-rsr0-rcr11-esr310.npz,,,,,0,180,180,488,,right,red,2.78,888.290944814682,888.7120928764343,,3,,2,7,lightness,readingArea,realistic,75,2023-03-27_14h18.07.292,tripletExp_regina_11082022,2022.2.4,119.64753034473904,
5,0,6,0,1.0,0.298245614035088,0,0.027777777777778,0.298245614035088,0,0.027777777777778,1.0,ReadingArea_rsl0-rcl100-esl29-rsm0-rcm2-esm29-rsr0-rcr2-esr100,exr/ReadingArea_rsl0-rcl100-esl29-rsm0-rcm2-esm29-rsr0-rcr2-esr100.exr,ReadingArea_rsl0-rcl100-esl29-rsm0-rcm2-esm29-rsr0-rcr2-esr100.npz,,,,,0,181,181,1,,right,red,1.02,890.4354338645935,890.8528280258179,,3,,2,7,lightness,readingArea,realistic,75,2023-03-27_14h18.07.292,tripletExp_regina_11082022,2022.2.4,119.64753034473904,
6,3,13,0,0.027777777777778,1.0,0,0.444444444444444,0.298245614035088,0,0.111111111111111,3.10526315789474,ReadingArea_rsl0-rcl2-esl100-rsm0-rcm44-esm29-rsr0-rcr11-esr310,exr/ReadingArea_rsl0-rcl2-esl100-rsm0-rcm44-esm29-rsr0-rcr11-esr310.exr,ReadingArea_rsl0-rcl2-esl100-rsm0-rcm44-esm29-rsr0-rcr11-esr310.npz,,,,,0,182,182,228,,right,red,1.44,892.5726599693298,892.9866759777069,,3,,2,7,lightness,readingArea,realistic,75,2023-03-27_14h18.07.292,tripletExp_regina_11082022,2022.2.4,119.64753034473904,
10,11,5,0,0.694444444444444,1.0,0,1.0,1.0,0,1.0,0.298245614035088,ReadingArea_rsl0-rcl69-esl100-rsm0-rcm100-esm100-rsr0-rcr100-esr29,exr/ReadingArea_rsl0-rcl69-esl100-rsm0-rcm100-esm100-rsr0-rcr100-esr29.exr,ReadingArea_rsl0-rcl69-esl100-rsm0-rcm100-esm100-rsr0-rcr100-esr29.npz,,,,,0,183,183,514,,left,green,3.1,896.4823160171509,,,3,,2,7,lightness,readingArea,realistic,75,2023-03-27_14h18.07.292,tripletExp_regina_11082022,2022.2.4,119.64753034473904,
6,13,8,0,0.027777777777778,1.0,0,0.111111111111111,3.10526315789474,0,0.25,1.0,ReadingArea_rsl0-rcl2-esl100-rsm0-rcm11-esm310-rsr0-rcr25-esr100,exr/ReadingArea_rsl0-rcl2-esl100-rsm0-rcm11-esm310-rsr0-rcr25-esr100.exr,ReadingArea_rsl0-rcl2-esl100-rsm0-rcm11-esm310-rsr0-rcr25-esr100.npz,,,,,0,184,184,535,,right,red,1.21,898.6493108272552,,,3,,2,7,lightness,readingArea,realistic,75,2023-03-27_14h18.07.292,tripletExp_regina_11082022,2022.2.4,119.64753034473904,
11,5,8,0,1.0,1.0,0,1.0,0.298245614035088,0,0.25,1.0,ReadingArea_rsl0-rcl100-esl100-rsm0-rcm100-esm29-rsr0-rcr25-esr100,exr/ReadingArea_rsl0-rcl100-esl100-rsm0-rcm100-esm29-rsr0-rcr25-esr100.exr,ReadingArea_rsl0-rcl100-esl100-rsm0-rcm100-esm29-rsr0-rcr25-esr100.npz,,,,,0,185,185,86,,right,red,1.66,900.7826490402222,,,3,,2,7,lightness,readingArea,realistic,75,2023-03-27_14h18.07.292,tripletExp_regina_11082022,2022.2.4,119.64753034473904,
8,9,1,0,0.25,1.0,0,0.444444444444444,1.0,0,0.111111111111111,0.298245614035088,ReadingArea_rsl0-rcl25-esl100-rsm0-rcm44-esm100-rsr0-rcr11-esr29,exr/ReadingArea_rsl0-rcl25-esl100-rsm0-rcm44-esm100-rsr0-rcr11-esr29.exr,ReadingArea_rsl0-rcl25-esl100-rsm0-rcm44-esm100-rsr0-rcr11-esr29.npz,,,,,0,186,186,266,,left,green,4.06,906.4698479175568,906.8935708999634,,3,,2,7,lightness,readingArea,realistic,75,2023-03-27_14h18.07.292,tripletExp_regina_11082022,2022.2.4,119.64753034473904,
14,6,5,0,0.25,3.10526315789474,0,0.027777777777778,1.0,0,1.0,0.298245614035088,ReadingArea_rsl0-rcl25-esl310-rsm0-rcm2-esm100-rsr0-rcr100-esr29,exr/ReadingArea_rsl0-rcl25-esl310-rsm0-rcm2-esm100-rsr0-rcr100-esr29.exr,ReadingArea_rsl0-rcl25-esl310-rsm0-rcm2-esm100-rsr0-rcr100-esr29.npz,,,,,0,187,187,297,,right,red,2.96,910.3785350322725,910.8034579753876,,3,,2,7,lightness,readingArea,realistic,75,2023-03-27_14h18.07.292,tripletExp_regina_11082022,2022.2.4,119.64753034473904,
4,7,1,0,0.694444444444444,0.298245614035088,0,0.111111111111111,1.0,0,0.111111111111111,0.298245614035088,ReadingArea_rsl0-rcl69-esl29-rsm0-rcm11-esm100-rsr0-rcr11-esr29,exr/ReadingArea_rsl0-rcl69-esl29-rsm0-rcm11-esm100-rsr0-rcr11-esr29.exr,ReadingArea_rsl0-rcl69-esl29-rsm0-rcm11-esm100-rsr0-rcr11-esr29.npz,,,,,0,188,188,33,,right,red,4.19,916.0434448719024,,,3,,2,7,lightness,readingArea,realistic,75,2023-03-27_14h18.07.292,tripletExp_regina_11082022,2022.2.4,119.64753034473904,
1,7,8,0,0.111111111111111,0.298245614035088,0,0.111111111111111,1.0,0,0.25,1.0,ReadingArea_rsl0-rcl11-esl29-rsm0-rcm11-esm100-rsr0-rcr25-esr100,exr/ReadingArea_rsl0-rcl11-esl29-rsm0-rcm11-esm100-rsr0-rcr25-esr100.exr,ReadingArea_rsl0-rcl11-esl29-rsm0-rcm11-esm100-rsr0-rcr25-esr100.npz,,,,,0,189,189,260,,left,green,3.28,919.9587149620056,920.3801519870758,,3,,2,7,lightness,readingArea,realistic,75,2023-03-27_14h18.07.292,tripletExp_regina_11082022,2022.2.4,119.64753034473904,
13,0,9,0,0.111111111111111,3.10526315789474,0,0.027777777777778,0.298245614035088,0,0.444444444444444,1.0,ReadingArea_rsl0-rcl11-esl310-rsm0-rcm2-esm29-rsr0-rcr44-esr100,exr/ReadingArea_rsl0-rcl11-esl310-rsm0-rcm2-esm29-rsr0-rcr44-esr100.exr,ReadingArea_rsl0-rcl11-esl310-rsm0-rcm2-esm29-rsr0-rcr44-esr100.npz,,,,,0,190,190,373,,left,green,2.6,923.8629999160768,924.3199620246888,,3,,2,7,lightness,readingArea,realistic,75,2023-03-27_14h18.07.292,tripletExp_regina_11082022,2022.2.4,119.64753034473904,
12,10,5,0,0.027777777777778,3.10526315789474,0,0.694444444444444,1.0,0,1.0,0.298245614035088,ReadingArea_rsl0-rcl2-esl310-rsm0-rcm69-esm100-rsr0-rcr100-esr29,exr/ReadingArea_rsl0-rcl2-esl310-rsm0-rcm69-esm100-rsr0-rcr100-esr29.exr,ReadingArea_rsl0-rcl2-esl310-rsm0-rcm69-esm100-rsr0-rcr100-esr29.npz,,,,,0,191,191,470,,right,red,2.96,927.7938339710236,928.2223818302156,,3,,2,7,lightness,readingArea,realistic,75,2023-03-27_14h18.07.292,tripletExp_regina_11082022,2022.2.4,119.64753034473904,
2,4,14,0,0.25,0.298245614035088,0,0.694444444444444,0.298245614035088,0,0.25,3.10526315789474,ReadingArea_rsl0-rcl25-esl29-rsm0-rcm69-esm29-rsr0-rcr25-esr310,exr/ReadingArea_rsl0-rcl25-esl29-rsm0-rcm69-esm29-rsr0-rcr25-esr310.exr,ReadingArea_rsl0-rcl25-esl29-rsm0-rcm69-esm29-rsr0-rcr25-esr310.npz,,,,,0,192,192,356,,left,green,2.17,931.7057538032532,932.1363699436188,,3,,2,7,lightness,readingArea,realistic,75,2023-03-27_14h18.07.292,tripletExp_regina_11082022,2022.2.4,119.64753034473904,
2,1,3,0,0.25,0.298245614035088,0,0.111111111111111,0.298245614035088,0,0.444444444444444,0.298245614035088,ReadingArea_rsl0-rcl25-esl29-rsm0-rcm11-esm29-rsr0-rcr44-esr29,exr/ReadingArea_rsl0-rcl25-esl29-rsm0-rcm11-esm29-rsr0-rcr44-esr29.exr,ReadingArea_rsl0-rcl25-esl29-rsm0-rcm11-esm29-rsr0-rcr44-esr29.npz,,,,,0,193,193,85,,left,green,2.69,935.6048798561096,,,3,,2,7,lightness,readingArea,realistic,75,2023-03-27_14h18.07.292,tripletExp_regina_11082022,2022.2.4,119.64753034473904,
10,3,6,0,0.694444444444444,1.0,0,0.444444444444444,0.298245614035088,0,0.027777777777778,1.0,ReadingArea_rsl0-rcl69-esl100-rsm0-rcm44-esm29-rsr0-rcr2-esr100,exr/ReadingArea_rsl0-rcl69-esl100-rsm0-rcm44-esm29-rsr0-rcr2-esr100.exr,ReadingArea_rsl0-rcl69-esl100-rsm0-rcm44-esm29-rsr0-rcr2-esr100.npz,,,,,0,194,194,261,,left,green,4.18,941.3058609962465,,,3,,2,7,lightness,readingArea,realistic,75,2023-03-27_14h18.07.292,tripletExp_regina_11082022,2022.2.4,119.64753034473904,
10,0,11,0,0.694444444444444,1.0,0,0.027777777777778,0.298245614035088,0,1.0,1.0,ReadingArea_rsl0-rcl69-esl100-rsm0-rcm2-esm29-rsr0-rcr100-esr100,exr/ReadingArea_rsl0-rcl69-esl100-rsm0-rcm2-esm29-rsr0-rcr100-esr100.exr,ReadingArea_rsl0-rcl69-esl100-rsm0-rcm2-esm29-rsr0-rcr100-esr100.npz,,,,,0,195,195,573,,left,green,3.45,945.2208290100098,945.6412830352784,,3,,2,7,lightness,readingArea,realistic,75,2023-03-27_14h18.07.292,tripletExp_regina_11082022,2022.2.4,119.64753034473904,
12,6,2,0,0.027777777777778,3.10526315789474,0,0.027777777777778,1.0,0,0.25,0.298245614035088,ReadingArea_rsl0-rcl2-esl310-rsm0-rcm2-esm100-rsr0-rcr25-esr29,exr/ReadingArea_rsl0-rcl2-esl310-rsm0-rcm2-esm100-rsr0-rcr25-esr29.exr,ReadingArea_rsl0-rcl2-esl310-rsm0-rcm2-esm100-rsr0-rcr25-esr29.npz,,,,,0,196,196,106,,left,green,3.16,949.1115539073944,949.5495188236235,,3,,2,7,lightness,readingArea,realistic,75,2023-03-27_14h18.07.292,tripletExp_regina_11082022,2022.2.4,119.64753034473904,
9,3,14,0,0.444444444444444,1.0,0,0.444444444444444,0.298245614035088,0,0.25,3.10526315789474,ReadingArea_rsl0-rcl44-esl100-rsm0-rcm44-esm29-rsr0-rcr25-esr310,exr/ReadingArea_rsl0-rcl44-esl100-rsm0-rcm44-esm29-rsr0-rcr25-esr310.exr,ReadingArea_rsl0-rcl44-esl100-rsm0-rcm44-esm29-rsr0-rcr25-esr310.npz,,,,,0,197,197,17,,left,green,1.6,951.2496359348296,,,3,,2,7,lightness,readingArea,realistic,75,2023-03-27_14h18.07.292,tripletExp_regina_11082022,2022.2.4,119.64753034473904,
10,4,13,0,0.694444444444444,1.0,0,0.694444444444444,0.298245614035088,0,0.111111111111111,3.10526315789474,ReadingArea_rsl0-rcl69-esl100-rsm0-rcm69-esm29-rsr0-rcr11-esr310,exr/ReadingArea_rsl0-rcl69-esl100-rsm0-rcm69-esm29-rsr0-rcr11-esr310.exr,ReadingArea_rsl0-rcl69-esl100-rsm0-rcm69-esm29-rsr0-rcr11-esr310.npz,,,,,0,198,198,24,,right,red,2.32,955.201730966568,955.63396692276,,3,,2,7,lightness,readingArea,realistic,75,2023-03-27_14h18.07.292,tripletExp_regina_11082022,2022.2.4,119.64753034473904,
4,8,7,0,0.694444444444444,0.298245614035088,0,0.25,1.0,0,0.111111111111111,1.0,ReadingArea_rsl0-rcl69-esl29-rsm0-rcm25-esm100-rsr0-rcr11-esr100,exr/ReadingArea_rsl0-rcl69-esl29-rsm0-rcm25-esm100-rsr0-rcr11-esr100.exr,ReadingArea_rsl0-rcl69-esl29-rsm0-rcm25-esm100-rsr0-rcr11-esr100.npz,,,,,0,199,199,461,,left,green,4.48,960.872300863266,961.3154938220978,,3,,2,7,lightness,readingArea,realistic,75,2023-03-27_14h18.07.292,tripletExp_regina_11082022,2022.2.4,119.64753034473904,
7,8,6,0,0.111111111111111,1.0,0,0.25,1.0,0,0.027777777777778,1.0,ReadingArea_rsl0-rcl11-esl100-rsm0-rcm25-esm100-rsr0-rcr2-esr100,exr/ReadingArea_rsl0-rcl11-esl100-rsm0-rcm25-esm100-rsr0-rcr2-esr100.exr,ReadingArea_rsl0-rcl11-esl100-rsm0-rcm25-esm100-rsr0-rcr2-esr100.npz,,,,,0,200,200,387,,left,green,1.43,963.022269964218,963.4619038105012,,3,,2,7,lightness,readingArea,realistic,75,2023-03-27_14h18.07.292,tripletExp_regina_11082022,2022.2.4,119.64753034473904,
8,1,6,0,0.25,1.0,0,0.111111111111111,0.298245614035088,0,0.027777777777778,1.0,ReadingArea_rsl0-rcl25-esl100-rsm0-rcm11-esm29-rsr0-rcr2-esr100,exr/ReadingArea_rsl0-rcl25-esl100-rsm0-rcm11-esm29-rsr0-rcr2-esr100.exr,ReadingArea_rsl0-rcl25-esl100-rsm0-rcm11-esm29-rsr0-rcr2-esr100.npz,,,,,0,201,201,62,,right,red,1.46,965.1642289161682,965.5858340263368,,3,,2,7,lightness,readingArea,realistic,75,2023-03-27_14h18.07.292,tripletExp_regina_11082022,2022.2.4,119.64753034473904,
7,8,12,0,0.111111111111111,1.0,0,0.25,1.0,0,0.027777777777778,3.10526315789474,ReadingArea_rsl0-rcl11-esl100-rsm0-rcm25-esm100-rsr0-rcr2-esr310,exr/ReadingArea_rsl0-rcl11-esl100-rsm0-rcm25-esm100-rsr0-rcr2-esr310.exr,ReadingArea_rsl0-rcl11-esl100-rsm0-rcm25-esm100-rsr0-rcr2-esr310.npz,,,,,0,202,202,271,,left,green,3.02,969.0689120292664,,,3,,2,7,lightness,readingArea,realistic,75,2023-03-27_14h18.07.292,tripletExp_regina_11082022,2022.2.4,119.64753034473904,
1,2,12,0,0.111111111111111,0.298245614035088,0,0.25,0.298245614035088,0,0.027777777777778,3.10526315789474,ReadingArea_rsl0-rcl11-esl29-rsm0-rcm25-esm29-rsr0-rcr2-esr310,exr/ReadingArea_rsl0-rcl11-esl29-rsm0-rcm25-esm29-rsr0-rcr2-esr310.exr,ReadingArea_rsl0-rcl11-esl29-rsm0-rcm25-esm29-rsr0-rcr2-esr310.npz,,,,,0,203,203,229,,left,green,2.67,972.9598679542542,973.3850519657136,,3,,2,7,lightness,readingArea,realistic,75,2023-03-27_14h18.07.292,tripletExp_regina_11082022,2022.2.4,119.64753034473904,
