index_left,index_middle,index_right,reflectance_surround_left,reflectance_center_left,emission_spot_left,reflectance_surround_middle,reflectance_center_middle,emission_spot_middle,reflectance_surround_right,reflectance_center_right,emission_spot_right,ImageName,ImageExr,ImageNpy,trials_2.thisRepN,trials_2.thisTrialN,trials_2.thisN,trials_2.thisIndex,trials.thisRepN,trials.thisTrialN,trials.thisN,trials.thisIndex,sound_1.started,BB_Trial.resp,BB_Trial.color,BB_Trial.rt,text.started,text.stopped,sound_2.started,sound_1.stopped,block,sound_4.started,participant,session,L/B,scene,condition,nTrialsPerBlock,date,expName,psychopyVersion,frameRate,Unnamed: 43
0,5,1,0,0.027777777777778,0.298245614035088,0,1.0,0.298245614035088,0,0.111111111111111,0.298245614035088,ReadingArea_rsl0-rcl2-esl29-rsm0-rcm100-esm29-rsr0-rcr11-esr29,exr/ReadingArea_rsl0-rcl2-esl29-rsm0-rcm100-esm29-rsr0-rcr11-esr29.exr,ReadingArea_rsl0-rcl2-esl29-rsm0-rcm100-esm29-rsr0-rcr11-esr29.npz,,,,,0,0,0,367,559.8509255409241,right,red,1.44,569.9405479431152,570.4756381511688,540.5360344409943,524.9304480552673,1,,4,6,lightness,readingArea,realistic,75,2023-03-24_10h55.16.258,tripletExp_regina_11082022,2022.2.4,120.86460629637634,
11,0,12,0,1.0,1.0,0,0.027777777777778,0.298245614035088,0,0.027777777777778,3.10526315789474,ReadingArea_rsl0-rcl100-esl100-rsm0-rcm2-esm29-rsr0-rcr2-esr310,exr/ReadingArea_rsl0-rcl100-esl100-rsm0-rcm2-esm29-rsr0-rcr2-esr310.exr,ReadingArea_rsl0-rcl100-esl100-rsm0-rcm2-esm29-rsr0-rcr2-esr310.npz,,,,,0,1,1,166,,right,red,1.8,572.2030651569366,,,,1,,4,6,lightness,readingArea,realistic,75,2023-03-24_10h55.16.258,tripletExp_regina_11082022,2022.2.4,120.86460629637634,
11,1,4,0,1.0,1.0,0,0.111111111111111,0.298245614035088,0,0.694444444444444,0.298245614035088,ReadingArea_rsl0-rcl100-esl100-rsm0-rcm11-esm29-rsr0-rcr69-esr29,exr/ReadingArea_rsl0-rcl100-esl100-rsm0-rcm11-esm29-rsr0-rcr69-esr29.exr,ReadingArea_rsl0-rcl100-esl100-rsm0-rcm11-esm29-rsr0-rcr69-esr29.npz,,,,,0,2,2,110,,right,red,1.56,574.4452111721039,574.890251159668,,,1,,4,6,lightness,readingArea,realistic,75,2023-03-24_10h55.16.258,tripletExp_regina_11082022,2022.2.4,120.86460629637634,
4,8,3,0,0.694444444444444,0.298245614035088,0,0.25,1.0,0,0.444444444444444,0.298245614035088,ReadingArea_rsl0-rcl69-esl29-rsm0-rcm25-esm100-rsr0-rcr44-esr29,exr/ReadingArea_rsl0-rcl69-esl29-rsm0-rcm25-esm100-rsr0-rcr44-esr29.exr,ReadingArea_rsl0-rcl69-esl29-rsm0-rcm25-esm100-rsr0-rcr44-esr29.npz,,,,,0,3,3,292,,right,red,2.07,578.389552116394,578.8297469615936,,,1,,4,6,lightness,readingArea,realistic,75,2023-03-24_10h55.16.258,tripletExp_regina_11082022,2022.2.4,120.86460629637634,
11,5,4,0,1.0,1.0,0,1.0,0.298245614035088,0,0.694444444444444,0.298245614035088,ReadingArea_rsl0-rcl100-esl100-rsm0-rcm100-esm29-rsr0-rcr69-esr29,exr/ReadingArea_rsl0-rcl100-esl100-rsm0-rcm100-esm29-rsr0-rcr69-esr29.exr,ReadingArea_rsl0-rcl100-esl100-rsm0-rcm100-esm29-rsr0-rcr69-esr29.npz,,,,,0,4,4,564,,right,red,2.37,582.294872045517,582.7625961303711,,,1,,4,6,lightness,readingArea,realistic,75,2023-03-24_10h55.16.258,tripletExp_regina_11082022,2022.2.4,120.86460629637634,
2,6,0,0,0.25,0.298245614035088,0,0.027777777777778,1.0,0,0.027777777777778,0.298245614035088,ReadingArea_rsl0-rcl25-esl29-rsm0-rcm2-esm100-rsr0-rcr2-esr29,exr/ReadingArea_rsl0-rcl25-esl29-rsm0-rcm2-esm100-rsr0-rcr2-esr29.exr,ReadingArea_rsl0-rcl25-esl29-rsm0-rcm2-esm100-rsr0-rcr2-esr29.npz,,,,,0,5,5,525,,left,green,2.98,586.2323570251465,586.6887259483337,,,1,,4,6,lightness,readingArea,realistic,75,2023-03-24_10h55.16.258,tripletExp_regina_11082022,2022.2.4,120.86460629637634,
14,10,5,0,0.25,3.10526315789474,0,0.694444444444444,1.0,0,1.0,0.298245614035088,ReadingArea_rsl0-rcl25-esl310-rsm0-rcm69-esm100-rsr0-rcr100-esr29,exr/ReadingArea_rsl0-rcl25-esl310-rsm0-rcm69-esm100-rsr0-rcr100-esr29.exr,ReadingArea_rsl0-rcl25-esl310-rsm0-rcm69-esm100-rsr0-rcr100-esr29.npz,,,,,0,6,6,96,,right,red,2.59,590.182911157608,590.6333849430084,,,1,,4,6,lightness,readingArea,realistic,75,2023-03-24_10h55.16.258,tripletExp_regina_11082022,2022.2.4,120.86460629637634,
1,5,13,0,0.111111111111111,0.298245614035088,0,1.0,0.298245614035088,0,0.111111111111111,3.10526315789474,ReadingArea_rsl0-rcl11-esl29-rsm0-rcm100-esm29-rsr0-rcr11-esr310,exr/ReadingArea_rsl0-rcl11-esl29-rsm0-rcm100-esm29-rsr0-rcr11-esr310.exr,ReadingArea_rsl0-rcl11-esl29-rsm0-rcm100-esm29-rsr0-rcr11-esr310.npz,,,,,0,7,7,598,,right,red,3.25,594.1055941581726,594.5589420795441,,,1,,4,6,lightness,readingArea,realistic,75,2023-03-24_10h55.16.258,tripletExp_regina_11082022,2022.2.4,120.86460629637634,
3,4,5,0,0.444444444444444,0.298245614035088,0,0.694444444444444,0.298245614035088,0,1.0,0.298245614035088,ReadingArea_rsl0-rcl44-esl29-rsm0-rcm69-esm29-rsr0-rcr100-esr29,exr/ReadingArea_rsl0-rcl44-esl29-rsm0-rcm69-esm29-rsr0-rcr100-esr29.exr,ReadingArea_rsl0-rcl44-esl29-rsm0-rcm69-esm29-rsr0-rcr100-esr29.npz,,,,,0,8,8,233,,left,green,2.51,598.0347220897675,598.4799900054932,,,1,,4,6,lightness,readingArea,realistic,75,2023-03-24_10h55.16.258,tripletExp_regina_11082022,2022.2.4,120.86460629637634,
2,1,14,0,0.25,0.298245614035088,0,0.111111111111111,0.298245614035088,0,0.25,3.10526315789474,ReadingArea_rsl0-rcl25-esl29-rsm0-rcm11-esm29-rsr0-rcr25-esr310,exr/ReadingArea_rsl0-rcl25-esl29-rsm0-rcm11-esm29-rsr0-rcr25-esr310.exr,ReadingArea_rsl0-rcl25-esl29-rsm0-rcm11-esm29-rsr0-rcr25-esr310.npz,,,,,0,9,9,59,,left,green,4.39,603.7282600402832,604.1803481578827,,,1,,4,6,lightness,readingArea,realistic,75,2023-03-24_10h55.16.258,tripletExp_regina_11082022,2022.2.4,120.86460629637634,
10,3,1,0,0.694444444444444,1.0,0,0.444444444444444,0.298245614035088,0,0.111111111111111,0.298245614035088,ReadingArea_rsl0-rcl69-esl100-rsm0-rcm44-esm29-rsr0-rcr11-esr29,exr/ReadingArea_rsl0-rcl69-esl100-rsm0-rcm44-esm29-rsr0-rcr11-esr29.exr,ReadingArea_rsl0-rcl69-esl100-rsm0-rcm44-esm29-rsr0-rcr11-esr29.npz,,,,,0,10,10,420,,left,green,4.44,609.4216711521149,609.8786289691925,,,1,,4,6,lightness,readingArea,realistic,75,2023-03-24_10h55.16.258,tripletExp_regina_11082022,2022.2.4,120.86460629637634,
4,3,11,0,0.694444444444444,0.298245614035088,0,0.444444444444444,0.298245614035088,0,1.0,1.0,ReadingArea_rsl0-rcl69-esl29-rsm0-rcm44-esm29-rsr0-rcr100-esr100,exr/ReadingArea_rsl0-rcl69-esl29-rsm0-rcm44-esm29-rsr0-rcr100-esr100.exr,ReadingArea_rsl0-rcl69-esl29-rsm0-rcm44-esm29-rsr0-rcr100-esr100.npz,,,,,0,11,11,439,,left,green,4.0,615.1349880695343,615.5916969776154,,,1,,4,6,lightness,readingArea,realistic,75,2023-03-24_10h55.16.258,tripletExp_regina_11082022,2022.2.4,120.86460629637634,
9,11,5,0,0.444444444444444,1.0,0,1.0,1.0,0,1.0,0.298245614035088,ReadingArea_rsl0-rcl44-esl100-rsm0-rcm100-esm100-rsr0-rcr100-esr29,exr/ReadingArea_rsl0-rcl44-esl100-rsm0-rcm100-esm100-rsr0-rcr100-esr29.exr,ReadingArea_rsl0-rcl44-esl100-rsm0-rcm100-esm100-rsr0-rcr100-esr29.npz,,,,,0,12,12,142,,left,green,4.21,620.8195240497589,621.2837679386139,,,1,,4,6,lightness,readingArea,realistic,75,2023-03-24_10h55.16.258,tripletExp_regina_11082022,2022.2.4,120.86460629637634,
12,6,7,0,0.027777777777778,3.10526315789474,0,0.027777777777778,1.0,0,0.111111111111111,1.0,ReadingArea_rsl0-rcl2-esl310-rsm0-rcm2-esm100-rsr0-rcr11-esr100,exr/ReadingArea_rsl0-rcl2-esl310-rsm0-rcm2-esm100-rsr0-rcr11-esr100.exr,ReadingArea_rsl0-rcl2-esl310-rsm0-rcm2-esm100-rsr0-rcr11-esr100.npz,,,,,0,13,13,308,,right,red,3.8,626.5453660488129,627.0094759464264,,,1,,4,6,lightness,readingArea,realistic,75,2023-03-24_10h55.16.258,tripletExp_regina_11082022,2022.2.4,120.86460629637634,
13,10,11,0,0.111111111111111,3.10526315789474,0,0.694444444444444,1.0,0,1.0,1.0,ReadingArea_rsl0-rcl11-esl310-rsm0-rcm69-esm100-rsr0-rcr100-esr100,exr/ReadingArea_rsl0-rcl11-esl310-rsm0-rcm69-esm100-rsr0-rcr100-esr100.exr,ReadingArea_rsl0-rcl11-esl310-rsm0-rcm69-esm100-rsr0-rcr100-esr100.npz,,,,,0,14,14,320,,left,green,4.51,632.2656610012054,632.83434009552,,,1,,4,6,lightness,readingArea,realistic,75,2023-03-24_10h55.16.258,tripletExp_regina_11082022,2022.2.4,120.86460629637634,
6,14,10,0,0.027777777777778,1.0,0,0.25,3.10526315789474,0,0.694444444444444,1.0,ReadingArea_rsl0-rcl2-esl100-rsm0-rcm25-esm310-rsr0-rcr69-esr100,exr/ReadingArea_rsl0-rcl2-esl100-rsm0-rcm25-esm310-rsr0-rcr69-esr100.exr,ReadingArea_rsl0-rcl2-esl100-rsm0-rcm25-esm310-rsr0-rcr69-esr100.npz,,,,,0,15,15,413,,right,red,3.81,638.0527231693268,,,,1,,4,6,lightness,readingArea,realistic,75,2023-03-24_10h55.16.258,tripletExp_regina_11082022,2022.2.4,120.86460629637634,
1,7,8,0,0.111111111111111,0.298245614035088,0,0.111111111111111,1.0,0,0.25,1.0,ReadingArea_rsl0-rcl11-esl29-rsm0-rcm11-esm100-rsr0-rcr25-esr100,exr/ReadingArea_rsl0-rcl11-esl29-rsm0-rcm11-esm100-rsr0-rcr25-esr100.exr,ReadingArea_rsl0-rcl11-esl29-rsm0-rcm11-esm100-rsr0-rcr25-esr100.npz,,,,,0,16,16,260,,left,green,3.86,643.7655930519104,644.2458381652832,,,1,,4,6,lightness,readingArea,realistic,75,2023-03-24_10h55.16.258,tripletExp_regina_11082022,2022.2.4,120.86460629637634,
14,5,11,0,0.25,3.10526315789474,0,1.0,0.298245614035088,0,1.0,1.0,ReadingArea_rsl0-rcl25-esl310-rsm0-rcm100-esm29-rsr0-rcr100-esr100,exr/ReadingArea_rsl0-rcl25-esl310-rsm0-rcm100-esm29-rsr0-rcr100-esr100.exr,ReadingArea_rsl0-rcl25-esl310-rsm0-rcm100-esm29-rsr0-rcr100-esr100.npz,,,,,0,17,17,161,,left,green,4.52,649.497298002243,649.9493260383606,,,1,,4,6,lightness,readingArea,realistic,75,2023-03-24_10h55.16.258,tripletExp_regina_11082022,2022.2.4,120.86460629637634,
10,3,14,0,0.694444444444444,1.0,0,0.444444444444444,0.298245614035088,0,0.25,3.10526315789474,ReadingArea_rsl0-rcl69-esl100-rsm0-rcm44-esm29-rsr0-rcr25-esr310,exr/ReadingArea_rsl0-rcl69-esl100-rsm0-rcm44-esm29-rsr0-rcr25-esr310.exr,ReadingArea_rsl0-rcl69-esl100-rsm0-rcm44-esm29-rsr0-rcr25-esr310.npz,,,,,0,18,18,597,,left,green,4.17,655.2052299976349,,,,1,,4,6,lightness,readingArea,realistic,75,2023-03-24_10h55.16.258,tripletExp_regina_11082022,2022.2.4,120.86460629637634,
5,1,13,0,1.0,0.298245614035088,0,0.111111111111111,0.298245614035088,0,0.111111111111111,3.10526315789474,ReadingArea_rsl0-rcl100-esl29-rsm0-rcm11-esm29-rsr0-rcr11-esr310,exr/ReadingArea_rsl0-rcl100-esl29-rsm0-rcm11-esm29-rsr0-rcr11-esr310.exr,ReadingArea_rsl0-rcl100-esl29-rsm0-rcm11-esm29-rsr0-rcr11-esr310.npz,,,,,0,19,19,594,,left,green,3.45,659.1606891155243,659.607833147049,,,1,,4,6,lightness,readingArea,realistic,75,2023-03-24_10h55.16.258,tripletExp_regina_11082022,2022.2.4,120.86460629637634,
5,4,1,0,1.0,0.298245614035088,0,0.694444444444444,0.298245614035088,0,0.111111111111111,0.298245614035088,ReadingArea_rsl0-rcl100-esl29-rsm0-rcm69-esm29-rsr0-rcr11-esr29,exr/ReadingArea_rsl0-rcl100-esl29-rsm0-rcm69-esm29-rsr0-rcr11-esr29.exr,ReadingArea_rsl0-rcl100-esl29-rsm0-rcm69-esm29-rsr0-rcr11-esr29.npz,,,,,0,20,20,560,,left,green,3.8,664.8293781280518,665.2750370502472,,,1,,4,6,lightness,readingArea,realistic,75,2023-03-24_10h55.16.258,tripletExp_regina_11082022,2022.2.4,120.86460629637634,
2,1,10,0,0.25,0.298245614035088,0,0.111111111111111,0.298245614035088,0,0.694444444444444,1.0,ReadingArea_rsl0-rcl25-esl29-rsm0-rcm11-esm29-rsr0-rcr69-esr100,exr/ReadingArea_rsl0-rcl25-esl29-rsm0-rcm11-esm29-rsr0-rcr69-esr100.exr,ReadingArea_rsl0-rcl25-esl29-rsm0-rcm11-esm29-rsr0-rcr69-esr100.npz,,,,,0,21,21,585,,left,green,2.12,668.7595300674438,669.1982159614563,,,1,,4,6,lightness,readingArea,realistic,75,2023-03-24_10h55.16.258,tripletExp_regina_11082022,2022.2.4,120.86460629637634,
3,9,0,0,0.444444444444444,0.298245614035088,0,0.444444444444444,1.0,0,0.027777777777778,0.298245614035088,ReadingArea_rsl0-rcl44-esl29-rsm0-rcm44-esm100-rsr0-rcr2-esr29,exr/ReadingArea_rsl0-rcl44-esl29-rsm0-rcm44-esm100-rsr0-rcr2-esr29.exr,ReadingArea_rsl0-rcl44-esl29-rsm0-rcm44-esm100-rsr0-rcr2-esr29.npz,,,,,0,22,22,551,,left,green,2.53,672.6799499988556,673.1414051055908,,,1,,4,6,lightness,readingArea,realistic,75,2023-03-24_10h55.16.258,tripletExp_regina_11082022,2022.2.4,120.86460629637634,
9,7,3,0,0.444444444444444,1.0,0,0.111111111111111,1.0,0,0.444444444444444,0.298245614035088,ReadingArea_rsl0-rcl44-esl100-rsm0-rcm11-esm100-rsr0-rcr44-esr29,exr/ReadingArea_rsl0-rcl44-esl100-rsm0-rcm11-esm100-rsr0-rcr44-esr29.exr,ReadingArea_rsl0-rcl44-esl100-rsm0-rcm11-esm100-rsr0-rcr44-esr29.npz,,,,,0,23,23,235,,right,red,2.75,676.640860080719,677.0834791660309,,,1,,4,6,lightness,readingArea,realistic,75,2023-03-24_10h55.16.258,tripletExp_regina_11082022,2022.2.4,120.86460629637634,
12,6,14,0,0.027777777777778,3.10526315789474,0,0.027777777777778,1.0,0,0.25,3.10526315789474,ReadingArea_rsl0-rcl2-esl310-rsm0-rcm2-esm100-rsr0-rcr25-esr310,exr/ReadingArea_rsl0-rcl2-esl310-rsm0-rcm2-esm100-rsr0-rcr25-esr310.exr,ReadingArea_rsl0-rcl2-esl310-rsm0-rcm2-esm100-rsr0-rcr25-esr310.npz,,,,,0,24,24,218,,left,green,2.54,680.5434420108795,680.9889831542969,,,1,,4,6,lightness,readingArea,realistic,75,2023-03-24_10h55.16.258,tripletExp_regina_11082022,2022.2.4,120.86460629637634,
13,8,0,0,0.111111111111111,3.10526315789474,0,0.25,1.0,0,0.027777777777778,0.298245614035088,ReadingArea_rsl0-rcl11-esl310-rsm0-rcm25-esm100-rsr0-rcr2-esr29,exr/ReadingArea_rsl0-rcl11-esl310-rsm0-rcm25-esm100-rsr0-rcr2-esr29.exr,ReadingArea_rsl0-rcl11-esl310-rsm0-rcm25-esm100-rsr0-rcr2-esr29.npz,,,,,0,25,25,429,,right,red,4.3,686.2409379482269,686.6845469474792,,,1,,4,6,lightness,readingArea,realistic,75,2023-03-24_10h55.16.258,tripletExp_regina_11082022,2022.2.4,120.86460629637634,
8,1,3,0,0.25,1.0,0,0.111111111111111,0.298245614035088,0,0.444444444444444,0.298245614035088,ReadingArea_rsl0-rcl25-esl100-rsm0-rcm11-esm29-rsr0-rcr44-esr29,exr/ReadingArea_rsl0-rcl25-esl100-rsm0-rcm11-esm29-rsr0-rcr44-esr29.exr,ReadingArea_rsl0-rcl25-esl100-rsm0-rcm11-esm29-rsr0-rcr44-esr29.npz,,,,,0,26,26,490,,right,red,2.03,690.1640989780426,690.6058950424194,,,1,,4,6,lightness,readingArea,realistic,75,2023-03-24_10h55.16.258,tripletExp_regina_11082022,2022.2.4,120.86460629637634,
2,0,3,0,0.25,0.298245614035088,0,0.027777777777778,0.298245614035088,0,0.444444444444444,0.298245614035088,ReadingArea_rsl0-rcl25-esl29-rsm0-rcm2-esm29-rsr0-rcr44-esr29,exr/ReadingArea_rsl0-rcl25-esl29-rsm0-rcm2-esm29-rsr0-rcr44-esr29.exr,ReadingArea_rsl0-rcl25-esl29-rsm0-rcm2-esm29-rsr0-rcr44-esr29.npz,,,,,0,27,27,338,,left,green,3.01,694.1121490001678,694.5714981555939,,,1,,4,6,lightness,readingArea,realistic,75,2023-03-24_10h55.16.258,tripletExp_regina_11082022,2022.2.4,120.86460629637634,
8,11,1,0,0.25,1.0,0,1.0,1.0,0,0.111111111111111,0.298245614035088,ReadingArea_rsl0-rcl25-esl100-rsm0-rcm100-esm100-rsr0-rcr11-esr29,exr/ReadingArea_rsl0-rcl25-esl100-rsm0-rcm100-esm100-rsr0-rcr11-esr29.exr,ReadingArea_rsl0-rcl25-esl100-rsm0-rcm100-esm100-rsr0-rcr11-esr29.npz,,,,,0,28,28,132,,left,green,3.46,698.0467081069946,698.5197751522064,,,1,,4,6,lightness,readingArea,realistic,75,2023-03-24_10h55.16.258,tripletExp_regina_11082022,2022.2.4,120.86460629637634,
5,4,12,0,1.0,0.298245614035088,0,0.694444444444444,0.298245614035088,0,0.027777777777778,3.10526315789474,ReadingArea_rsl0-rcl100-esl29-rsm0-rcm69-esm29-rsr0-rcr2-esr310,exr/ReadingArea_rsl0-rcl100-esl29-rsm0-rcm69-esm29-rsr0-rcr2-esr310.exr,ReadingArea_rsl0-rcl100-esl29-rsm0-rcm69-esm29-rsr0-rcr2-esr310.npz,,,,,0,29,29,82,,left,green,3.16,701.9658000469208,702.4163711071014,,,1,,4,6,lightness,readingArea,realistic,75,2023-03-24_10h55.16.258,tripletExp_regina_11082022,2022.2.4,120.86460629637634,
9,6,13,0,0.444444444444444,1.0,0,0.027777777777778,1.0,0,0.111111111111111,3.10526315789474,ReadingArea_rsl0-rcl44-esl100-rsm0-rcm2-esm100-rsr0-rcr11-esr310,exr/ReadingArea_rsl0-rcl44-esl100-rsm0-rcm2-esm100-rsr0-rcr11-esr310.exr,ReadingArea_rsl0-rcl44-esl100-rsm0-rcm2-esm100-rsr0-rcr11-esr310.npz,,,,,0,30,30,285,,right,red,3.78,707.6477530002594,708.1042301654816,,,1,,4,6,lightness,readingArea,realistic,75,2023-03-24_10h55.16.258,tripletExp_regina_11082022,2022.2.4,120.86460629637634,
14,10,9,0,0.25,3.10526315789474,0,0.694444444444444,1.0,0,0.444444444444444,1.0,ReadingArea_rsl0-rcl25-esl310-rsm0-rcm69-esm100-rsr0-rcr44-esr100,exr/ReadingArea_rsl0-rcl25-esl310-rsm0-rcm69-esm100-rsr0-rcr44-esr100.exr,ReadingArea_rsl0-rcl25-esl310-rsm0-rcm69-esm100-rsr0-rcr44-esr100.npz,,,,,0,31,31,402,,left,green,3.98,713.3047759532928,713.8982679843903,,,1,,4,6,lightness,readingArea,realistic,75,2023-03-24_10h55.16.258,tripletExp_regina_11082022,2022.2.4,120.86460629637634,
5,9,12,0,1.0,0.298245614035088,0,0.444444444444444,1.0,0,0.027777777777778,3.10526315789474,ReadingArea_rsl0-rcl100-esl29-rsm0-rcm44-esm100-rsr0-rcr2-esr310,exr/ReadingArea_rsl0-rcl100-esl29-rsm0-rcm44-esm100-rsr0-rcr2-esr310.exr,ReadingArea_rsl0-rcl100-esl29-rsm0-rcm44-esm100-rsr0-rcr2-esr310.npz,,,,,0,32,32,539,,left,green,3.83,719.1087200641632,719.5704870223999,,,1,,4,6,lightness,readingArea,realistic,75,2023-03-24_10h55.16.258,tripletExp_regina_11082022,2022.2.4,120.86460629637634,
6,4,10,0,0.027777777777778,1.0,0,0.694444444444444,0.298245614035088,0,0.694444444444444,1.0,ReadingArea_rsl0-rcl2-esl100-rsm0-rcm69-esm29-rsr0-rcr69-esr100,exr/ReadingArea_rsl0-rcl2-esl100-rsm0-rcm69-esm29-rsr0-rcr69-esr100.exr,ReadingArea_rsl0-rcl2-esl100-rsm0-rcm69-esm29-rsr0-rcr69-esr100.npz,,,,,0,33,33,554,,right,red,3.84,724.8303360939026,725.4397430419922,,,1,,4,6,lightness,readingArea,realistic,75,2023-03-24_10h55.16.258,tripletExp_regina_11082022,2022.2.4,120.86460629637634,
5,14,4,0,1.0,0.298245614035088,0,0.25,3.10526315789474,0,0.694444444444444,0.298245614035088,ReadingArea_rsl0-rcl100-esl29-rsm0-rcm25-esm310-rsr0-rcr69-esr29,exr/ReadingArea_rsl0-rcl100-esl29-rsm0-rcm25-esm310-rsr0-rcr69-esr29.exr,ReadingArea_rsl0-rcl100-esl29-rsm0-rcm25-esm310-rsr0-rcr69-esr29.npz,,,,,0,34,34,69,,left,green,3.05,728.9241991043091,729.3819110393524,,,1,,4,6,lightness,readingArea,realistic,75,2023-03-24_10h55.16.258,tripletExp_regina_11082022,2022.2.4,120.86460629637634,
11,7,8,0,1.0,1.0,0,0.111111111111111,1.0,0,0.25,1.0,ReadingArea_rsl0-rcl100-esl100-rsm0-rcm11-esm100-rsr0-rcr25-esr100,exr/ReadingArea_rsl0-rcl100-esl100-rsm0-rcm11-esm100-rsr0-rcr25-esr100.exr,ReadingArea_rsl0-rcl100-esl100-rsm0-rcm11-esm100-rsr0-rcr25-esr100.npz,,,,,0,35,35,37,,right,red,2.3,732.8579030036926,733.3025741577148,,,1,,4,6,lightness,readingArea,realistic,75,2023-03-24_10h55.16.258,tripletExp_regina_11082022,2022.2.4,120.86460629637634,
4,14,12,0,0.694444444444444,0.298245614035088,0,0.25,3.10526315789474,0,0.027777777777778,3.10526315789474,ReadingArea_rsl0-rcl69-esl29-rsm0-rcm25-esm310-rsr0-rcr2-esr310,exr/ReadingArea_rsl0-rcl69-esl29-rsm0-rcm25-esm310-rsr0-rcr2-esr310.exr,ReadingArea_rsl0-rcl69-esl29-rsm0-rcm25-esm310-rsr0-rcr2-esr310.npz,,,,,0,36,36,392,,left,green,2.19,736.7957711219788,737.2550001144409,,,1,,4,6,lightness,readingArea,realistic,75,2023-03-24_10h55.16.258,tripletExp_regina_11082022,2022.2.4,120.86460629637634,
1,2,12,0,0.111111111111111,0.298245614035088,0,0.25,0.298245614035088,0,0.027777777777778,3.10526315789474,ReadingArea_rsl0-rcl11-esl29-rsm0-rcm25-esm29-rsr0-rcr2-esr310,exr/ReadingArea_rsl0-rcl11-esl29-rsm0-rcm25-esm29-rsr0-rcr2-esr310.exr,ReadingArea_rsl0-rcl11-esl29-rsm0-rcm25-esm29-rsr0-rcr2-esr310.npz,,,,,0,37,37,229,,right,red,2.37,740.7290649414062,741.3278410434723,,,1,,4,6,lightness,readingArea,realistic,75,2023-03-24_10h55.16.258,tripletExp_regina_11082022,2022.2.4,120.86460629637634,
2,12,13,0,0.25,0.298245614035088,0,0.027777777777778,3.10526315789474,0,0.111111111111111,3.10526315789474,ReadingArea_rsl0-rcl25-esl29-rsm0-rcm2-esm310-rsr0-rcr11-esr310,exr/ReadingArea_rsl0-rcl25-esl29-rsm0-rcm2-esm310-rsr0-rcr11-esr310.exr,ReadingArea_rsl0-rcl25-esl29-rsm0-rcm2-esm310-rsr0-rcr11-esr310.npz,,,,,0,38,38,232,,left,green,3.21,744.7822699546814,745.2513179779053,,,1,,4,6,lightness,readingArea,realistic,75,2023-03-24_10h55.16.258,tripletExp_regina_11082022,2022.2.4,120.86460629637634,
2,9,10,0,0.25,0.298245614035088,0,0.444444444444444,1.0,0,0.694444444444444,1.0,ReadingArea_rsl0-rcl25-esl29-rsm0-rcm44-esm100-rsr0-rcr69-esr100,exr/ReadingArea_rsl0-rcl25-esl29-rsm0-rcm44-esm100-rsr0-rcr69-esr100.exr,ReadingArea_rsl0-rcl25-esl29-rsm0-rcm44-esm100-rsr0-rcr69-esr100.npz,,,,,0,39,39,117,,right,red,4.25,750.4728181362152,750.913437128067,,,1,,4,6,lightness,readingArea,realistic,75,2023-03-24_10h55.16.258,tripletExp_regina_11082022,2022.2.4,120.86460629637634,
13,0,12,0,0.111111111111111,3.10526315789474,0,0.027777777777778,0.298245614035088,0,0.027777777777778,3.10526315789474,ReadingArea_rsl0-rcl11-esl310-rsm0-rcm2-esm29-rsr0-rcr2-esr310,exr/ReadingArea_rsl0-rcl11-esl310-rsm0-rcm2-esm29-rsr0-rcr2-esr310.exr,ReadingArea_rsl0-rcl11-esl310-rsm0-rcm2-esm29-rsr0-rcr2-esr310.npz,,,,,0,40,40,56,,right,red,2.69,754.3782670497894,754.8258221149445,,,1,,4,6,lightness,readingArea,realistic,75,2023-03-24_10h55.16.258,tripletExp_regina_11082022,2022.2.4,120.86460629637634,
0,9,6,0,0.027777777777778,0.298245614035088,0,0.444444444444444,1.0,0,0.027777777777778,1.0,ReadingArea_rsl0-rcl2-esl29-rsm0-rcm44-esm100-rsr0-rcr2-esr100,exr/ReadingArea_rsl0-rcl2-esl29-rsm0-rcm44-esm100-rsr0-rcr2-esr100.exr,ReadingArea_rsl0-rcl2-esl29-rsm0-rcm44-esm100-rsr0-rcr2-esr100.npz,,,,,0,41,41,365,,right,red,3.94,760.0832710266113,760.5312280654907,,,1,,4,6,lightness,readingArea,realistic,75,2023-03-24_10h55.16.258,tripletExp_regina_11082022,2022.2.4,120.86460629637634,
7,8,11,0,0.111111111111111,1.0,0,0.25,1.0,0,1.0,1.0,ReadingArea_rsl0-rcl11-esl100-rsm0-rcm25-esm100-rsr0-rcr100-esr100,exr/ReadingArea_rsl0-rcl11-esl100-rsm0-rcm25-esm100-rsr0-rcr100-esr100.exr,ReadingArea_rsl0-rcl11-esl100-rsm0-rcm25-esm100-rsr0-rcr100-esr100.npz,,,,,0,42,42,363,,left,green,2.56,764.0010919570923,764.4553439617157,,,1,,4,6,lightness,readingArea,realistic,75,2023-03-24_10h55.16.258,tripletExp_regina_11082022,2022.2.4,120.86460629637634,
9,4,6,0,0.444444444444444,1.0,0,0.694444444444444,0.298245614035088,0,0.027777777777778,1.0,ReadingArea_rsl0-rcl44-esl100-rsm0-rcm69-esm29-rsr0-rcr2-esr100,exr/ReadingArea_rsl0-rcl44-esl100-rsm0-rcm69-esm29-rsr0-rcr2-esr100.exr,ReadingArea_rsl0-rcl44-esl100-rsm0-rcm69-esm29-rsr0-rcr2-esr100.npz,,,,,0,43,43,453,,left,green,3.33,767.9070179462433,,,,1,,4,6,lightness,readingArea,realistic,75,2023-03-24_10h55.16.258,tripletExp_regina_11082022,2022.2.4,120.86460629637634,
8,6,0,0,0.25,1.0,0,0.027777777777778,1.0,0,0.027777777777778,0.298245614035088,ReadingArea_rsl0-rcl25-esl100-rsm0-rcm2-esm100-rsr0-rcr2-esr29,exr/ReadingArea_rsl0-rcl25-esl100-rsm0-rcm2-esm100-rsr0-rcr2-esr29.exr,ReadingArea_rsl0-rcl25-esl100-rsm0-rcm2-esm100-rsr0-rcr2-esr29.npz,,,,,0,44,44,187,,right,red,2.15,771.7578060626984,772.2295110225677,,,1,,4,6,lightness,readingArea,realistic,75,2023-03-24_10h55.16.258,tripletExp_regina_11082022,2022.2.4,120.86460629637634,
11,14,2,0,1.0,1.0,0,0.25,3.10526315789474,0,0.25,0.298245614035088,ReadingArea_rsl0-rcl100-esl100-rsm0-rcm25-esm310-rsr0-rcr25-esr29,exr/ReadingArea_rsl0-rcl100-esl100-rsm0-rcm25-esm310-rsr0-rcr25-esr29.exr,ReadingArea_rsl0-rcl100-esl100-rsm0-rcm25-esm310-rsr0-rcr25-esr29.npz,,,,,0,45,45,419,,left,green,2.43,775.6821341514587,776.135792016983,,,1,,4,6,lightness,readingArea,realistic,75,2023-03-24_10h55.16.258,tripletExp_regina_11082022,2022.2.4,120.86460629637634,
4,7,1,0,0.694444444444444,0.298245614035088,0,0.111111111111111,1.0,0,0.111111111111111,0.298245614035088,ReadingArea_rsl0-rcl69-esl29-rsm0-rcm11-esm100-rsr0-rcr11-esr29,exr/ReadingArea_rsl0-rcl69-esl29-rsm0-rcm11-esm100-rsr0-rcr11-esr29.exr,ReadingArea_rsl0-rcl69-esl29-rsm0-rcm11-esm100-rsr0-rcr11-esr29.npz,,,,,0,46,46,33,,left,green,2.83,779.5777521133423,780.0395500659943,,,1,,4,6,lightness,readingArea,realistic,75,2023-03-24_10h55.16.258,tripletExp_regina_11082022,2022.2.4,120.86460629637634,
5,11,8,0,1.0,0.298245614035088,0,1.0,1.0,0,0.25,1.0,ReadingArea_rsl0-rcl100-esl29-rsm0-rcm100-esm100-rsr0-rcr25-esr100,exr/ReadingArea_rsl0-rcl100-esl29-rsm0-rcm100-esm100-rsr0-rcr25-esr100.exr,ReadingArea_rsl0-rcl100-esl29-rsm0-rcm100-esm100-rsr0-rcr25-esr100.npz,,,,,0,47,47,548,,right,red,2.54,783.5299971103668,783.9938371181488,,,1,,4,6,lightness,readingArea,realistic,75,2023-03-24_10h55.16.258,tripletExp_regina_11082022,2022.2.4,120.86460629637634,
4,7,5,0,0.694444444444444,0.298245614035088,0,0.111111111111111,1.0,0,1.0,0.298245614035088,ReadingArea_rsl0-rcl69-esl29-rsm0-rcm11-esm100-rsr0-rcr100-esr29,exr/ReadingArea_rsl0-rcl69-esl29-rsm0-rcm11-esm100-rsr0-rcr100-esr29.exr,ReadingArea_rsl0-rcl69-esl29-rsm0-rcm11-esm100-rsr0-rcr100-esr29.npz,,,,,0,48,48,195,,left,green,2.25,787.4576120376587,787.9108810424805,,,1,,4,6,lightness,readingArea,realistic,75,2023-03-24_10h55.16.258,tripletExp_regina_11082022,2022.2.4,120.86460629637634,
14,2,8,0,0.25,3.10526315789474,0,0.25,0.298245614035088,0,0.25,1.0,ReadingArea_rsl0-rcl25-esl310-rsm0-rcm25-esm29-rsr0-rcr25-esr100,exr/ReadingArea_rsl0-rcl25-esl310-rsm0-rcm25-esm29-rsr0-rcr25-esr100.exr,ReadingArea_rsl0-rcl25-esl310-rsm0-rcm25-esm29-rsr0-rcr25-esr100.npz,,,,,0,49,49,212,,right,red,2.94,791.3997180461884,791.8550791740417,,,1,,4,6,lightness,readingArea,realistic,75,2023-03-24_10h55.16.258,tripletExp_regina_11082022,2022.2.4,120.86460629637634,
14,0,3,0,0.25,3.10526315789474,0,0.027777777777778,0.298245614035088,0,0.444444444444444,0.298245614035088,ReadingArea_rsl0-rcl25-esl310-rsm0-rcm2-esm29-rsr0-rcr44-esr29,exr/ReadingArea_rsl0-rcl25-esl310-rsm0-rcm2-esm29-rsr0-rcr44-esr29.exr,ReadingArea_rsl0-rcl25-esl310-rsm0-rcm2-esm29-rsr0-rcr44-esr29.npz,,,,,0,50,50,75,,right,red,2.93,795.3305351734161,795.8112289905548,,,1,,4,6,lightness,readingArea,realistic,75,2023-03-24_10h55.16.258,tripletExp_regina_11082022,2022.2.4,120.86460629637634,
13,3,5,0,0.111111111111111,3.10526315789474,0,0.444444444444444,0.298245614035088,0,1.0,0.298245614035088,ReadingArea_rsl0-rcl11-esl310-rsm0-rcm44-esm29-rsr0-rcr100-esr29,exr/ReadingArea_rsl0-rcl11-esl310-rsm0-rcm44-esm29-rsr0-rcr100-esr29.exr,ReadingArea_rsl0-rcl11-esl310-rsm0-rcm44-esm29-rsr0-rcr100-esr29.npz,,,,,0,51,51,398,,right,red,4.04,801.0747079849243,801.6231460571289,,,1,,4,6,lightness,readingArea,realistic,75,2023-03-24_10h55.16.258,tripletExp_regina_11082022,2022.2.4,120.86460629637634,
4,1,3,0,0.694444444444444,0.298245614035088,0,0.111111111111111,0.298245614035088,0,0.444444444444444,0.298245614035088,ReadingArea_rsl0-rcl69-esl29-rsm0-rcm11-esm29-rsr0-rcr44-esr29,exr/ReadingArea_rsl0-rcl69-esl29-rsm0-rcm11-esm29-rsr0-rcr44-esr29.exr,ReadingArea_rsl0-rcl69-esl29-rsm0-rcm11-esm29-rsr0-rcr44-esr29.npz,,,,,0,52,52,70,,right,red,2.22,805.0741980075836,805.540176153183,,,1,,4,6,lightness,readingArea,realistic,75,2023-03-24_10h55.16.258,tripletExp_regina_11082022,2022.2.4,120.86460629637634,
13,6,0,0,0.111111111111111,3.10526315789474,0,0.027777777777778,1.0,0,0.027777777777778,0.298245614035088,ReadingArea_rsl0-rcl11-esl310-rsm0-rcm2-esm100-rsr0-rcr2-esr29,exr/ReadingArea_rsl0-rcl11-esl310-rsm0-rcm2-esm100-rsr0-rcr2-esr29.exr,ReadingArea_rsl0-rcl11-esl310-rsm0-rcm2-esm100-rsr0-rcr2-esr29.npz,,,,,0,53,53,309,,right,red,4.26,810.8116781711578,811.2730071544647,,,1,,4,6,lightness,readingArea,realistic,75,2023-03-24_10h55.16.258,tripletExp_regina_11082022,2022.2.4,120.86460629637634,
14,1,13,0,0.25,3.10526315789474,0,0.111111111111111,0.298245614035088,0,0.111111111111111,3.10526315789474,ReadingArea_rsl0-rcl25-esl310-rsm0-rcm11-esm29-rsr0-rcr11-esr310,exr/ReadingArea_rsl0-rcl25-esl310-rsm0-rcm11-esm29-rsr0-rcr11-esr310.exr,ReadingArea_rsl0-rcl25-esl310-rsm0-rcm11-esm29-rsr0-rcr11-esr310.npz,,,,,0,54,54,265,,right,red,2.49,814.7445909976959,815.1898331642151,,,1,,4,6,lightness,readingArea,realistic,75,2023-03-24_10h55.16.258,tripletExp_regina_11082022,2022.2.4,120.86460629637634,
4,2,5,0,0.694444444444444,0.298245614035088,0,0.25,0.298245614035088,0,1.0,0.298245614035088,ReadingArea_rsl0-rcl69-esl29-rsm0-rcm25-esm29-rsr0-rcr100-esr29,exr/ReadingArea_rsl0-rcl69-esl29-rsm0-rcm25-esm29-rsr0-rcr100-esr29.exr,ReadingArea_rsl0-rcl69-esl29-rsm0-rcm25-esm29-rsr0-rcr100-esr29.npz,,,,,0,55,55,101,,left,green,2.87,818.6768600940704,819.1334710121155,,,1,,4,6,lightness,readingArea,realistic,75,2023-03-24_10h55.16.258,tripletExp_regina_11082022,2022.2.4,120.86460629637634,
6,11,8,0,0.027777777777778,1.0,0,1.0,1.0,0,0.25,1.0,ReadingArea_rsl0-rcl2-esl100-rsm0-rcm100-esm100-rsr0-rcr25-esr100,exr/ReadingArea_rsl0-rcl2-esl100-rsm0-rcm100-esm100-rsr0-rcr25-esr100.exr,ReadingArea_rsl0-rcl2-esl100-rsm0-rcm100-esm100-rsr0-rcr25-esr100.npz,,,,,0,56,56,176,,right,red,2.4,822.5924589633942,823.0276710987091,,,1,,4,6,lightness,readingArea,realistic,75,2023-03-24_10h55.16.258,tripletExp_regina_11082022,2022.2.4,120.86460629637634,
4,13,2,0,0.694444444444444,0.298245614035088,0,0.111111111111111,3.10526315789474,0,0.25,0.298245614035088,ReadingArea_rsl0-rcl69-esl29-rsm0-rcm11-esm310-rsr0-rcr25-esr29,exr/ReadingArea_rsl0-rcl69-esl29-rsm0-rcm11-esm310-rsr0-rcr25-esr29.exr,ReadingArea_rsl0-rcl69-esl29-rsm0-rcm11-esm310-rsr0-rcr25-esr29.npz,,,,,0,57,57,592,,left,green,2.38,826.5142669677734,826.9725501537323,,,1,,4,6,lightness,readingArea,realistic,75,2023-03-24_10h55.16.258,tripletExp_regina_11082022,2022.2.4,120.86460629637634,
11,6,8,0,1.0,1.0,0,0.027777777777778,1.0,0,0.25,1.0,ReadingArea_rsl0-rcl100-esl100-rsm0-rcm2-esm100-rsr0-rcr25-esr100,exr/ReadingArea_rsl0-rcl100-esl100-rsm0-rcm2-esm100-rsr0-rcr25-esr100.exr,ReadingArea_rsl0-rcl100-esl100-rsm0-rcm2-esm100-rsr0-rcr25-esr100.npz,,,,,0,58,58,599,,right,red,2.65,830.4265351295471,830.8924901485443,,,1,,4,6,lightness,readingArea,realistic,75,2023-03-24_10h55.16.258,tripletExp_regina_11082022,2022.2.4,120.86460629637634,
7,13,4,0,0.111111111111111,1.0,0,0.111111111111111,3.10526315789474,0,0.694444444444444,0.298245614035088,ReadingArea_rsl0-rcl11-esl100-rsm0-rcm11-esm310-rsr0-rcr69-esr29,exr/ReadingArea_rsl0-rcl11-esl100-rsm0-rcm11-esm310-rsr0-rcr69-esr29.exr,ReadingArea_rsl0-rcl11-esl100-rsm0-rcm11-esm310-rsr0-rcr69-esr29.npz,,,,,0,59,59,456,,right,red,2.56,834.3781950473785,834.8395619392395,,,1,,4,6,lightness,readingArea,realistic,75,2023-03-24_10h55.16.258,tripletExp_regina_11082022,2022.2.4,120.86460629637634,
10,0,8,0,0.694444444444444,1.0,0,0.027777777777778,0.298245614035088,0,0.25,1.0,ReadingArea_rsl0-rcl69-esl100-rsm0-rcm2-esm29-rsr0-rcr25-esr100,exr/ReadingArea_rsl0-rcl69-esl100-rsm0-rcm2-esm29-rsr0-rcr25-esr100.exr,ReadingArea_rsl0-rcl69-esl100-rsm0-rcm2-esm29-rsr0-rcr25-esr100.npz,,,,,0,60,60,552,,right,red,2.38,838.318351984024,838.8341059684753,,,1,,4,6,lightness,readingArea,realistic,75,2023-03-24_10h55.16.258,tripletExp_regina_11082022,2022.2.4,120.86460629637634,
11,13,1,0,1.0,1.0,0,0.111111111111111,3.10526315789474,0,0.111111111111111,0.298245614035088,ReadingArea_rsl0-rcl100-esl100-rsm0-rcm11-esm310-rsr0-rcr11-esr29,exr/ReadingArea_rsl0-rcl100-esl100-rsm0-rcm11-esm310-rsr0-rcr11-esr29.exr,ReadingArea_rsl0-rcl100-esl100-rsm0-rcm11-esm310-rsr0-rcr11-esr29.npz,,,,,0,61,61,185,,right,red,2.94,842.3227071762085,842.7760870456696,,,1,,4,6,lightness,readingArea,realistic,75,2023-03-24_10h55.16.258,tripletExp_regina_11082022,2022.2.4,120.86460629637634,
7,8,6,0,0.111111111111111,1.0,0,0.25,1.0,0,0.027777777777778,1.0,ReadingArea_rsl0-rcl11-esl100-rsm0-rcm25-esm100-rsr0-rcr2-esr100,exr/ReadingArea_rsl0-rcl11-esl100-rsm0-rcm25-esm100-rsr0-rcr2-esr100.exr,ReadingArea_rsl0-rcl11-esl100-rsm0-rcm25-esm100-rsr0-rcr2-esr100.npz,,,,,0,62,62,387,,left,green,3.78,848.0216369628906,848.5912611484528,,,1,,4,6,lightness,readingArea,realistic,75,2023-03-24_10h55.16.258,tripletExp_regina_11082022,2022.2.4,120.86460629637634,
5,12,7,0,1.0,0.298245614035088,0,0.027777777777778,3.10526315789474,0,0.111111111111111,1.0,ReadingArea_rsl0-rcl100-esl29-rsm0-rcm2-esm310-rsr0-rcr11-esr100,exr/ReadingArea_rsl0-rcl100-esl29-rsm0-rcm2-esm310-rsr0-rcr11-esr100.exr,ReadingArea_rsl0-rcl100-esl29-rsm0-rcm2-esm310-rsr0-rcr11-esr100.npz,,,,,0,63,63,447,,right,red,2.22,852.0440480709076,852.4868550300598,,,1,,4,6,lightness,readingArea,realistic,75,2023-03-24_10h55.16.258,tripletExp_regina_11082022,2022.2.4,120.86460629637634,
9,0,8,0,0.444444444444444,1.0,0,0.027777777777778,0.298245614035088,0,0.25,1.0,ReadingArea_rsl0-rcl44-esl100-rsm0-rcm2-esm29-rsr0-rcr25-esr100,exr/ReadingArea_rsl0-rcl44-esl100-rsm0-rcm2-esm29-rsr0-rcr25-esr100.exr,ReadingArea_rsl0-rcl44-esl100-rsm0-rcm2-esm29-rsr0-rcr25-esr100.npz,,,,,0,64,64,27,,right,red,2.23,855.9325330257416,856.3896670341492,,,1,,4,6,lightness,readingArea,realistic,75,2023-03-24_10h55.16.258,tripletExp_regina_11082022,2022.2.4,120.86460629637634,
0,4,7,0,0.027777777777778,0.298245614035088,0,0.694444444444444,0.298245614035088,0,0.111111111111111,1.0,ReadingArea_rsl0-rcl2-esl29-rsm0-rcm69-esm29-rsr0-rcr11-esr100,exr/ReadingArea_rsl0-rcl2-esl29-rsm0-rcm69-esm29-rsr0-rcr11-esr100.exr,ReadingArea_rsl0-rcl2-esl29-rsm0-rcm69-esm29-rsr0-rcr11-esr100.npz,,,,,0,65,65,200,,right,red,2.24,859.8700909614563,860.3298280239105,,,1,,4,6,lightness,readingArea,realistic,75,2023-03-24_10h55.16.258,tripletExp_regina_11082022,2022.2.4,120.86460629637634,
4,11,12,0,0.694444444444444,0.298245614035088,0,1.0,1.0,0,0.027777777777778,3.10526315789474,ReadingArea_rsl0-rcl69-esl29-rsm0-rcm100-esm100-rsr0-rcr2-esr310,exr/ReadingArea_rsl0-rcl69-esl29-rsm0-rcm100-esm100-rsr0-rcr2-esr310.exr,ReadingArea_rsl0-rcl69-esl29-rsm0-rcm100-esm100-rsr0-rcr2-esr310.npz,,,,,0,66,66,109,,left,green,3.03,863.7806820869446,864.2094089984894,,,1,,4,6,lightness,readingArea,realistic,75,2023-03-24_10h55.16.258,tripletExp_regina_11082022,2022.2.4,120.86460629637634,
10,11,9,0,0.694444444444444,1.0,0,1.0,1.0,0,0.444444444444444,1.0,ReadingArea_rsl0-rcl69-esl100-rsm0-rcm100-esm100-rsr0-rcr44-esr100,exr/ReadingArea_rsl0-rcl69-esl100-rsm0-rcm100-esm100-rsr0-rcr44-esr100.exr,ReadingArea_rsl0-rcl69-esl100-rsm0-rcm100-esm100-rsr0-rcr44-esr100.npz,,,,,0,67,67,492,,left,green,2.35,867.673397064209,868.1337220668793,,,1,,4,6,lightness,readingArea,realistic,75,2023-03-24_10h55.16.258,tripletExp_regina_11082022,2022.2.4,120.86460629637634,
12,13,14,0,0.027777777777778,3.10526315789474,0,0.111111111111111,3.10526315789474,0,0.25,3.10526315789474,ReadingArea_rsl0-rcl2-esl310-rsm0-rcm11-esm310-rsr0-rcr25-esr310,exr/ReadingArea_rsl0-rcl2-esl310-rsm0-rcm11-esm310-rsr0-rcr25-esr310.exr,ReadingArea_rsl0-rcl2-esl310-rsm0-rcm11-esm310-rsr0-rcr25-esr310.npz,,,,,0,68,68,208,,left,green,2.77,871.5968611240387,872.0718460083008,,,1,,4,6,lightness,readingArea,realistic,75,2023-03-24_10h55.16.258,tripletExp_regina_11082022,2022.2.4,120.86460629637634,
8,1,10,0,0.25,1.0,0,0.111111111111111,0.298245614035088,0,0.694444444444444,1.0,ReadingArea_rsl0-rcl25-esl100-rsm0-rcm11-esm29-rsr0-rcr69-esr100,exr/ReadingArea_rsl0-rcl25-esl100-rsm0-rcm11-esm29-rsr0-rcr69-esr100.exr,ReadingArea_rsl0-rcl25-esl100-rsm0-rcm11-esm29-rsr0-rcr69-esr100.npz,,,,,0,69,69,442,,left,green,3.47,875.5350580215454,876.0983920097351,,,1,,4,6,lightness,readingArea,realistic,75,2023-03-24_10h55.16.258,tripletExp_regina_11082022,2022.2.4,120.86460629637634,
7,5,1,0,0.111111111111111,1.0,0,1.0,0.298245614035088,0,0.111111111111111,0.298245614035088,ReadingArea_rsl0-rcl11-esl100-rsm0-rcm100-esm29-rsr0-rcr11-esr29,exr/ReadingArea_rsl0-rcl11-esl100-rsm0-rcm100-esm29-rsr0-rcr11-esr29.exr,ReadingArea_rsl0-rcl11-esl100-rsm0-rcm100-esm29-rsr0-rcr11-esr29.npz,,,,,0,70,70,513,,left,green,2.64,879.5548770427704,880.0223641395569,,,1,,4,6,lightness,readingArea,realistic,75,2023-03-24_10h55.16.258,tripletExp_regina_11082022,2022.2.4,120.86460629637634,
4,13,1,0,0.694444444444444,0.298245614035088,0,0.111111111111111,3.10526315789474,0,0.111111111111111,0.298245614035088,ReadingArea_rsl0-rcl69-esl29-rsm0-rcm11-esm310-rsr0-rcr11-esr29,exr/ReadingArea_rsl0-rcl69-esl29-rsm0-rcm11-esm310-rsr0-rcr11-esr29.exr,ReadingArea_rsl0-rcl69-esl29-rsm0-rcm11-esm310-rsr0-rcr11-esr29.npz,,,,,0,71,71,192,,left,green,2.91,883.5080170631409,,,,1,,4,6,lightness,readingArea,realistic,75,2023-03-24_10h55.16.258,tripletExp_regina_11082022,2022.2.4,120.86460629637634,
14,0,6,0,0.25,3.10526315789474,0,0.027777777777778,0.298245614035088,0,0.027777777777778,1.0,ReadingArea_rsl0-rcl25-esl310-rsm0-rcm2-esm29-rsr0-rcr2-esr100,exr/ReadingArea_rsl0-rcl25-esl310-rsm0-rcm2-esm29-rsr0-rcr2-esr100.exr,ReadingArea_rsl0-rcl25-esl310-rsm0-rcm2-esm29-rsr0-rcr2-esr100.npz,,,,,0,72,72,496,,right,red,2.43,887.4400050640106,887.9670269489288,,,1,,4,6,lightness,readingArea,realistic,75,2023-03-24_10h55.16.258,tripletExp_regina_11082022,2022.2.4,120.86460629637634,
6,9,5,0,0.027777777777778,1.0,0,0.444444444444444,1.0,0,1.0,0.298245614035088,ReadingArea_rsl0-rcl2-esl100-rsm0-rcm44-esm100-rsr0-rcr100-esr29,exr/ReadingArea_rsl0-rcl2-esl100-rsm0-rcm44-esm100-rsr0-rcr100-esr29.exr,ReadingArea_rsl0-rcl2-esl100-rsm0-rcm44-esm100-rsr0-rcr100-esr29.npz,,,,,0,73,73,29,,right,red,2.11,891.4246230125427,891.8762259483337,,,1,,4,6,lightness,readingArea,realistic,75,2023-03-24_10h55.16.258,tripletExp_regina_11082022,2022.2.4,120.86460629637634,
3,6,13,0,0.444444444444444,0.298245614035088,0,0.027777777777778,1.0,0,0.111111111111111,3.10526315789474,ReadingArea_rsl0-rcl44-esl29-rsm0-rcm2-esm100-rsr0-rcr11-esr310,exr/ReadingArea_rsl0-rcl44-esl29-rsm0-rcm2-esm100-rsr0-rcr11-esr310.exr,ReadingArea_rsl0-rcl44-esl29-rsm0-rcm2-esm100-rsr0-rcr11-esr310.npz,,,,,0,74,74,449,,left,green,2.51,895.3178300857544,,,,1,,4,6,lightness,readingArea,realistic,75,2023-03-24_10h55.16.258,tripletExp_regina_11082022,2022.2.4,120.86460629637634,
11,5,2,0,1.0,1.0,0,1.0,0.298245614035088,0,0.25,0.298245614035088,ReadingArea_rsl0-rcl100-esl100-rsm0-rcm100-esm29-rsr0-rcr25-esr29,exr/ReadingArea_rsl0-rcl100-esl100-rsm0-rcm100-esm29-rsr0-rcr25-esr29.exr,ReadingArea_rsl0-rcl100-esl100-rsm0-rcm100-esm29-rsr0-rcr25-esr29.npz,,,,,0,75,75,596,,right,red,2.44,941.702090024948,942.260663986206,,,2,,4,6,lightness,readingArea,realistic,75,2023-03-24_10h55.16.258,tripletExp_regina_11082022,2022.2.4,120.86460629637634,
6,3,13,0,0.027777777777778,1.0,0,0.444444444444444,0.298245614035088,0,0.111111111111111,3.10526315789474,ReadingArea_rsl0-rcl2-esl100-rsm0-rcm44-esm29-rsr0-rcr11-esr310,exr/ReadingArea_rsl0-rcl2-esl100-rsm0-rcm44-esm29-rsr0-rcr11-esr310.exr,ReadingArea_rsl0-rcl2-esl100-rsm0-rcm44-esm29-rsr0-rcr11-esr310.npz,,,,,0,76,76,228,,right,red,2.48,945.7371830940248,946.1979660987854,,,2,,4,6,lightness,readingArea,realistic,75,2023-03-24_10h55.16.258,tripletExp_regina_11082022,2022.2.4,120.86460629637634,
12,6,8,0,0.027777777777778,3.10526315789474,0,0.027777777777778,1.0,0,0.25,1.0,ReadingArea_rsl0-rcl2-esl310-rsm0-rcm2-esm100-rsr0-rcr25-esr100,exr/ReadingArea_rsl0-rcl2-esl310-rsm0-rcm2-esm100-rsr0-rcr25-esr100.exr,ReadingArea_rsl0-rcl2-esl310-rsm0-rcm2-esm100-rsr0-rcr25-esr100.npz,,,,,0,77,77,540,,left,green,4.54,951.425320148468,951.8832559585572,,,2,,4,6,lightness,readingArea,realistic,75,2023-03-24_10h55.16.258,tripletExp_regina_11082022,2022.2.4,120.86460629637634,
5,14,3,0,1.0,0.298245614035088,0,0.25,3.10526315789474,0,0.444444444444444,0.298245614035088,ReadingArea_rsl0-rcl100-esl29-rsm0-rcm25-esm310-rsr0-rcr44-esr29,exr/ReadingArea_rsl0-rcl100-esl29-rsm0-rcm25-esm310-rsr0-rcr44-esr29.exr,ReadingArea_rsl0-rcl100-esl29-rsm0-rcm25-esm310-rsr0-rcr44-esr29.npz,,,,,0,78,78,93,,left,green,3.91,957.1326260566713,957.5967309474944,,,2,,4,6,lightness,readingArea,realistic,75,2023-03-24_10h55.16.258,tripletExp_regina_11082022,2022.2.4,120.86460629637634,
9,12,11,0,0.444444444444444,1.0,0,0.027777777777778,3.10526315789474,0,1.0,1.0,ReadingArea_rsl0-rcl44-esl100-rsm0-rcm2-esm310-rsr0-rcr100-esr100,exr/ReadingArea_rsl0-rcl44-esl100-rsm0-rcm2-esm310-rsr0-rcr100-esr100.exr,ReadingArea_rsl0-rcl44-esl100-rsm0-rcm2-esm310-rsr0-rcr100-esr100.npz,,,,,0,79,79,144,,left,green,4.27,962.8390800952913,963.3029160499572,,,2,,4,6,lightness,readingArea,realistic,75,2023-03-24_10h55.16.258,tripletExp_regina_11082022,2022.2.4,120.86460629637634,
0,13,12,0,0.027777777777778,0.298245614035088,0,0.111111111111111,3.10526315789474,0,0.027777777777778,3.10526315789474,ReadingArea_rsl0-rcl2-esl29-rsm0-rcm11-esm310-rsr0-rcr2-esr310,exr/ReadingArea_rsl0-rcl2-esl29-rsm0-rcm11-esm310-rsr0-rcr2-esr310.exr,ReadingArea_rsl0-rcl2-esl29-rsm0-rcm11-esm310-rsr0-rcr2-esr310.npz,,,,,0,80,80,501,,right,red,2.73,966.7627689838408,,,,2,,4,6,lightness,readingArea,realistic,75,2023-03-24_10h55.16.258,tripletExp_regina_11082022,2022.2.4,120.86460629637634,
7,14,10,0,0.111111111111111,1.0,0,0.25,3.10526315789474,0,0.694444444444444,1.0,ReadingArea_rsl0-rcl11-esl100-rsm0-rcm25-esm310-rsr0-rcr69-esr100,exr/ReadingArea_rsl0-rcl11-esl100-rsm0-rcm25-esm310-rsr0-rcr69-esr100.exr,ReadingArea_rsl0-rcl11-esl100-rsm0-rcm25-esm310-rsr0-rcr69-esr100.npz,,,,,0,81,81,472,,right,red,3.57,970.6729831695556,971.1252620220184,,,2,,4,6,lightness,readingArea,realistic,75,2023-03-24_10h55.16.258,tripletExp_regina_11082022,2022.2.4,120.86460629637634,
1,4,7,0,0.111111111111111,0.298245614035088,0,0.694444444444444,0.298245614035088,0,0.111111111111111,1.0,ReadingArea_rsl0-rcl11-esl29-rsm0-rcm69-esm29-rsr0-rcr11-esr100,exr/ReadingArea_rsl0-rcl11-esl29-rsm0-rcm69-esm29-rsr0-rcr11-esr100.exr,ReadingArea_rsl0-rcl11-esl29-rsm0-rcm69-esm29-rsr0-rcr11-esr100.npz,,,,,0,82,82,522,,right,red,2.67,974.6290769577026,975.0639641284944,,,2,,4,6,lightness,readingArea,realistic,75,2023-03-24_10h55.16.258,tripletExp_regina_11082022,2022.2.4,120.86460629637634,
14,4,7,0,0.25,3.10526315789474,0,0.694444444444444,0.298245614035088,0,0.111111111111111,1.0,ReadingArea_rsl0-rcl25-esl310-rsm0-rcm69-esm29-rsr0-rcr11-esr100,exr/ReadingArea_rsl0-rcl25-esl310-rsm0-rcm69-esm29-rsr0-rcr11-esr100.exr,ReadingArea_rsl0-rcl25-esl310-rsm0-rcm69-esm29-rsr0-rcr11-esr100.npz,,,,,0,83,83,136,,right,red,4.44,980.3197829723358,980.7716660499572,,,2,,4,6,lightness,readingArea,realistic,75,2023-03-24_10h55.16.258,tripletExp_regina_11082022,2022.2.4,120.86460629637634,
12,6,3,0,0.027777777777778,3.10526315789474,0,0.027777777777778,1.0,0,0.444444444444444,0.298245614035088,ReadingArea_rsl0-rcl2-esl310-rsm0-rcm2-esm100-rsr0-rcr44-esr29,exr/ReadingArea_rsl0-rcl2-esl310-rsm0-rcm2-esm100-rsr0-rcr44-esr29.exr,ReadingArea_rsl0-rcl2-esl310-rsm0-rcm2-esm100-rsr0-rcr44-esr29.npz,,,,,0,84,84,139,,left,green,3.78,986.0200910568236,986.4761011600494,,,2,,4,6,lightness,readingArea,realistic,75,2023-03-24_10h55.16.258,tripletExp_regina_11082022,2022.2.4,120.86460629637634,
14,7,13,0,0.25,3.10526315789474,0,0.111111111111111,1.0,0,0.111111111111111,3.10526315789474,ReadingArea_rsl0-rcl25-esl310-rsm0-rcm11-esm100-rsr0-rcr11-esr310,exr/ReadingArea_rsl0-rcl25-esl310-rsm0-rcm11-esm100-rsr0-rcr11-esr310.exr,ReadingArea_rsl0-rcl25-esl310-rsm0-rcm11-esm100-rsr0-rcr11-esr310.npz,,,,,0,85,85,358,,right,red,3.5,989.9278981685638,990.37992310524,,,2,,4,6,lightness,readingArea,realistic,75,2023-03-24_10h55.16.258,tripletExp_regina_11082022,2022.2.4,120.86460629637634,
1,10,7,0,0.111111111111111,0.298245614035088,0,0.694444444444444,1.0,0,0.111111111111111,1.0,ReadingArea_rsl0-rcl11-esl29-rsm0-rcm69-esm100-rsr0-rcr11-esr100,exr/ReadingArea_rsl0-rcl11-esl29-rsm0-rcm69-esm100-rsr0-rcr11-esr100.exr,ReadingArea_rsl0-rcl11-esl29-rsm0-rcm69-esm100-rsr0-rcr11-esr100.npz,,,,,0,86,86,94,,right,red,4.08,995.5939049720764,996.0521640777588,,,2,,4,6,lightness,readingArea,realistic,75,2023-03-24_10h55.16.258,tripletExp_regina_11082022,2022.2.4,120.86460629637634,
13,12,11,0,0.111111111111111,3.10526315789474,0,0.027777777777778,3.10526315789474,0,1.0,1.0,ReadingArea_rsl0-rcl11-esl310-rsm0-rcm2-esm310-rsr0-rcr100-esr100,exr/ReadingArea_rsl0-rcl11-esl310-rsm0-rcm2-esm310-rsr0-rcr100-esr100.exr,ReadingArea_rsl0-rcl11-esl310-rsm0-rcm2-esm310-rsr0-rcr100-esr100.npz,,,,,0,87,87,441,,left,green,2.63,999.5413751602172,1000.0034580230712,,,2,,4,6,lightness,readingArea,realistic,75,2023-03-24_10h55.16.258,tripletExp_regina_11082022,2022.2.4,120.86460629637634,
8,6,11,0,0.25,1.0,0,0.027777777777778,1.0,0,1.0,1.0,ReadingArea_rsl0-rcl25-esl100-rsm0-rcm2-esm100-rsr0-rcr100-esr100,exr/ReadingArea_rsl0-rcl25-esl100-rsm0-rcm2-esm100-rsr0-rcr100-esr100.exr,ReadingArea_rsl0-rcl25-esl100-rsm0-rcm2-esm100-rsr0-rcr100-esr100.npz,,,,,0,88,88,236,,left,green,2.28,1003.4518160820008,,,,2,,4,6,lightness,readingArea,realistic,75,2023-03-24_10h55.16.258,tripletExp_regina_11082022,2022.2.4,120.86460629637634,
12,5,4,0,0.027777777777778,3.10526315789474,0,1.0,0.298245614035088,0,0.694444444444444,0.298245614035088,ReadingArea_rsl0-rcl2-esl310-rsm0-rcm100-esm29-rsr0-rcr69-esr29,exr/ReadingArea_rsl0-rcl2-esl310-rsm0-rcm100-esm29-rsr0-rcr69-esr29.exr,ReadingArea_rsl0-rcl2-esl310-rsm0-rcm100-esm29-rsr0-rcr69-esr29.npz,,,,,0,89,89,566,,right,red,2.87,1007.3682441711426,1007.8359260559082,,,2,,4,6,lightness,readingArea,realistic,75,2023-03-24_10h55.16.258,tripletExp_regina_11082022,2022.2.4,120.86460629637634,
2,4,14,0,0.25,0.298245614035088,0,0.694444444444444,0.298245614035088,0,0.25,3.10526315789474,ReadingArea_rsl0-rcl25-esl29-rsm0-rcm69-esm29-rsr0-rcr25-esr310,exr/ReadingArea_rsl0-rcl25-esl29-rsm0-rcm69-esm29-rsr0-rcr25-esr310.exr,ReadingArea_rsl0-rcl25-esl29-rsm0-rcm69-esm29-rsr0-rcr25-esr310.npz,,,,,0,90,90,356,,left,green,3.39,1011.282434940338,1011.7420530319214,,,2,,4,6,lightness,readingArea,realistic,75,2023-03-24_10h55.16.258,tripletExp_regina_11082022,2022.2.4,120.86460629637634,
7,11,13,0,0.111111111111111,1.0,0,1.0,1.0,0,0.111111111111111,3.10526315789474,ReadingArea_rsl0-rcl11-esl100-rsm0-rcm100-esm100-rsr0-rcr11-esr310,exr/ReadingArea_rsl0-rcl11-esl100-rsm0-rcm100-esm100-rsr0-rcr11-esr310.exr,ReadingArea_rsl0-rcl11-esl100-rsm0-rcm100-esm100-rsr0-rcr11-esr310.npz,,,,,0,91,91,76,,right,red,4.91,1016.9668591022491,1017.429708957672,,,2,,4,6,lightness,readingArea,realistic,75,2023-03-24_10h55.16.258,tripletExp_regina_11082022,2022.2.4,120.86460629637634,
5,14,8,0,1.0,0.298245614035088,0,0.25,3.10526315789474,0,0.25,1.0,ReadingArea_rsl0-rcl100-esl29-rsm0-rcm25-esm310-rsr0-rcr25-esr100,exr/ReadingArea_rsl0-rcl100-esl29-rsm0-rcm25-esm310-rsr0-rcr25-esr100.exr,ReadingArea_rsl0-rcl100-esl29-rsm0-rcm25-esm310-rsr0-rcr25-esr100.npz,,,,,0,92,92,14,,left,green,4.26,1022.6527099609376,1023.0991871356964,,,2,,4,6,lightness,readingArea,realistic,75,2023-03-24_10h55.16.258,tripletExp_regina_11082022,2022.2.4,120.86460629637634,
12,5,2,0,0.027777777777778,3.10526315789474,0,1.0,0.298245614035088,0,0.25,0.298245614035088,ReadingArea_rsl0-rcl2-esl310-rsm0-rcm100-esm29-rsr0-rcr25-esr29,exr/ReadingArea_rsl0-rcl2-esl310-rsm0-rcm100-esm29-rsr0-rcr25-esr29.exr,ReadingArea_rsl0-rcl2-esl310-rsm0-rcm100-esm29-rsr0-rcr25-esr29.npz,,,,,0,93,93,415,,right,red,4.52,1028.3484060764313,1028.9832689762115,,,2,,4,6,lightness,readingArea,realistic,75,2023-03-24_10h55.16.258,tripletExp_regina_11082022,2022.2.4,120.86460629637634,
6,1,10,0,0.027777777777778,1.0,0,0.111111111111111,0.298245614035088,0,0.694444444444444,1.0,ReadingArea_rsl0-rcl2-esl100-rsm0-rcm11-esm29-rsr0-rcr69-esr100,exr/ReadingArea_rsl0-rcl2-esl100-rsm0-rcm11-esm29-rsr0-rcr69-esr100.exr,ReadingArea_rsl0-rcl2-esl100-rsm0-rcm11-esm29-rsr0-rcr69-esr100.npz,,,,,0,94,94,561,,left,green,4.05,1034.1939389705658,1034.680916070938,,,2,,4,6,lightness,readingArea,realistic,75,2023-03-24_10h55.16.258,tripletExp_regina_11082022,2022.2.4,120.86460629637634,
7,8,12,0,0.111111111111111,1.0,0,0.25,1.0,0,0.027777777777778,3.10526315789474,ReadingArea_rsl0-rcl11-esl100-rsm0-rcm25-esm100-rsr0-rcr2-esr310,exr/ReadingArea_rsl0-rcl11-esl100-rsm0-rcm25-esm100-rsr0-rcr2-esr310.exr,ReadingArea_rsl0-rcl11-esl100-rsm0-rcm25-esm100-rsr0-rcr2-esr310.npz,,,,,0,95,95,271,,left,green,2.55,1038.127268075943,1038.5743260383606,,,2,,4,6,lightness,readingArea,realistic,75,2023-03-24_10h55.16.258,tripletExp_regina_11082022,2022.2.4,120.86460629637634,
8,14,6,0,0.25,1.0,0,0.25,3.10526315789474,0,0.027777777777778,1.0,ReadingArea_rsl0-rcl25-esl100-rsm0-rcm25-esm310-rsr0-rcr2-esr100,exr/ReadingArea_rsl0-rcl25-esl100-rsm0-rcm25-esm310-rsr0-rcr2-esr100.exr,ReadingArea_rsl0-rcl25-esl100-rsm0-rcm25-esm310-rsr0-rcr2-esr100.npz,,,,,0,96,96,469,,left,green,2.54,1042.018371105194,1042.4812531471252,,,2,,4,6,lightness,readingArea,realistic,75,2023-03-24_10h55.16.258,tripletExp_regina_11082022,2022.2.4,120.86460629637634,
6,12,7,0,0.027777777777778,1.0,0,0.027777777777778,3.10526315789474,0,0.111111111111111,1.0,ReadingArea_rsl0-rcl2-esl100-rsm0-rcm2-esm310-rsr0-rcr11-esr100,exr/ReadingArea_rsl0-rcl2-esl100-rsm0-rcm2-esm310-rsr0-rcr11-esr100.exr,ReadingArea_rsl0-rcl2-esl100-rsm0-rcm2-esm310-rsr0-rcr11-esr100.npz,,,,,0,97,97,157,,right,red,2.33,1045.959676027298,1046.432604074478,,,2,,4,6,lightness,readingArea,realistic,75,2023-03-24_10h55.16.258,tripletExp_regina_11082022,2022.2.4,120.86460629637634,
12,0,2,0,0.027777777777778,3.10526315789474,0,0.027777777777778,0.298245614035088,0,0.25,0.298245614035088,ReadingArea_rsl0-rcl2-esl310-rsm0-rcm2-esm29-rsr0-rcr25-esr29,exr/ReadingArea_rsl0-rcl2-esl310-rsm0-rcm2-esm29-rsr0-rcr25-esr29.exr,ReadingArea_rsl0-rcl2-esl310-rsm0-rcm2-esm29-rsr0-rcr25-esr29.npz,,,,,0,98,98,77,,right,red,4.1,1051.6686170101166,1052.1277329921722,,,2,,4,6,lightness,readingArea,realistic,75,2023-03-24_10h55.16.258,tripletExp_regina_11082022,2022.2.4,120.86460629637634,
10,4,9,0,0.694444444444444,1.0,0,0.694444444444444,0.298245614035088,0,0.444444444444444,1.0,ReadingArea_rsl0-rcl69-esl100-rsm0-rcm69-esm29-rsr0-rcr44-esr100,exr/ReadingArea_rsl0-rcl69-esl100-rsm0-rcm69-esm29-rsr0-rcr44-esr100.exr,ReadingArea_rsl0-rcl69-esl100-rsm0-rcm69-esm29-rsr0-rcr44-esr100.npz,,,,,0,99,99,452,,right,red,3.17,1055.5905499458313,1056.045112133026,,,2,,4,6,lightness,readingArea,realistic,75,2023-03-24_10h55.16.258,tripletExp_regina_11082022,2022.2.4,120.86460629637634,
10,5,1,0,0.694444444444444,1.0,0,1.0,0.298245614035088,0,0.111111111111111,0.298245614035088,ReadingArea_rsl0-rcl69-esl100-rsm0-rcm100-esm29-rsr0-rcr11-esr29,exr/ReadingArea_rsl0-rcl69-esl100-rsm0-rcm100-esm29-rsr0-rcr11-esr29.exr,ReadingArea_rsl0-rcl69-esl100-rsm0-rcm100-esm29-rsr0-rcr11-esr29.npz,,,,,0,100,100,152,,left,green,3.1,1059.5179419517517,1059.977844953537,,,2,,4,6,lightness,readingArea,realistic,75,2023-03-24_10h55.16.258,tripletExp_regina_11082022,2022.2.4,120.86460629637634,
12,9,11,0,0.027777777777778,3.10526315789474,0,0.444444444444444,1.0,0,1.0,1.0,ReadingArea_rsl0-rcl2-esl310-rsm0-rcm44-esm100-rsr0-rcr100-esr100,exr/ReadingArea_rsl0-rcl2-esl310-rsm0-rcm44-esm100-rsr0-rcr100-esr100.exr,ReadingArea_rsl0-rcl2-esl310-rsm0-rcm44-esm100-rsr0-rcr100-esr100.npz,,,,,0,101,101,18,,left,green,4.7,1065.222207069397,1065.7817540168762,,,2,,4,6,lightness,readingArea,realistic,75,2023-03-24_10h55.16.258,tripletExp_regina_11082022,2022.2.4,120.86460629637634,
11,9,4,0,1.0,1.0,0,0.444444444444444,1.0,0,0.694444444444444,0.298245614035088,ReadingArea_rsl0-rcl100-esl100-rsm0-rcm44-esm100-rsr0-rcr69-esr29,exr/ReadingArea_rsl0-rcl100-esl100-rsm0-rcm44-esm100-rsr0-rcr69-esr29.exr,ReadingArea_rsl0-rcl100-esl100-rsm0-rcm44-esm100-rsr0-rcr69-esr29.npz,,,,,0,102,102,26,,right,red,2.0,1069.2696390151978,1069.7255489826202,,,2,,4,6,lightness,readingArea,realistic,75,2023-03-24_10h55.16.258,tripletExp_regina_11082022,2022.2.4,120.86460629637634,
13,8,14,0,0.111111111111111,3.10526315789474,0,0.25,1.0,0,0.25,3.10526315789474,ReadingArea_rsl0-rcl11-esl310-rsm0-rcm25-esm100-rsr0-rcr25-esr310,exr/ReadingArea_rsl0-rcl11-esl310-rsm0-rcm25-esm100-rsr0-rcr25-esr310.exr,ReadingArea_rsl0-rcl11-esl310-rsm0-rcm25-esm100-rsr0-rcr25-esr310.npz,,,,,0,103,103,345,,left,green,3.69,1074.9804420471191,1075.457318067551,,,2,,4,6,lightness,readingArea,realistic,75,2023-03-24_10h55.16.258,tripletExp_regina_11082022,2022.2.4,120.86460629637634,
0,7,13,0,0.027777777777778,0.298245614035088,0,0.111111111111111,1.0,0,0.111111111111111,3.10526315789474,ReadingArea_rsl0-rcl2-esl29-rsm0-rcm11-esm100-rsr0-rcr11-esr310,exr/ReadingArea_rsl0-rcl2-esl29-rsm0-rcm11-esm100-rsr0-rcr11-esr310.exr,ReadingArea_rsl0-rcl2-esl29-rsm0-rcm11-esm100-rsr0-rcr11-esr310.npz,,,,,0,104,104,159,,left,green,3.21,1078.9416329860687,1079.398831129074,,,2,,4,6,lightness,readingArea,realistic,75,2023-03-24_10h55.16.258,tripletExp_regina_11082022,2022.2.4,120.86460629637634,
13,4,12,0,0.111111111111111,3.10526315789474,0,0.694444444444444,0.298245614035088,0,0.027777777777778,3.10526315789474,ReadingArea_rsl0-rcl11-esl310-rsm0-rcm69-esm29-rsr0-rcr2-esr310,exr/ReadingArea_rsl0-rcl11-esl310-rsm0-rcm69-esm29-rsr0-rcr2-esr310.exr,ReadingArea_rsl0-rcl11-esl310-rsm0-rcm69-esm29-rsr0-rcr2-esr310.npz,,,,,0,105,105,122,,left,green,2.93,1082.8590941429138,1083.328185081482,,,2,,4,6,lightness,readingArea,realistic,75,2023-03-24_10h55.16.258,tripletExp_regina_11082022,2022.2.4,120.86460629637634,
11,8,10,0,1.0,1.0,0,0.25,1.0,0,0.694444444444444,1.0,ReadingArea_rsl0-rcl100-esl100-rsm0-rcm25-esm100-rsr0-rcr69-esr100,exr/ReadingArea_rsl0-rcl100-esl100-rsm0-rcm25-esm100-rsr0-rcr69-esr100.exr,ReadingArea_rsl0-rcl100-esl100-rsm0-rcm25-esm100-rsr0-rcr69-esr100.npz,,,,,0,106,106,67,,right,red,3.77,1088.5720160007477,1089.0231580734253,,,2,,4,6,lightness,readingArea,realistic,75,2023-03-24_10h55.16.258,tripletExp_regina_11082022,2022.2.4,120.86460629637634,
13,6,12,0,0.111111111111111,3.10526315789474,0,0.027777777777778,1.0,0,0.027777777777778,3.10526315789474,ReadingArea_rsl0-rcl11-esl310-rsm0-rcm2-esm100-rsr0-rcr2-esr310,exr/ReadingArea_rsl0-rcl11-esl310-rsm0-rcm2-esm100-rsr0-rcr2-esr310.exr,ReadingArea_rsl0-rcl11-esl310-rsm0-rcm2-esm100-rsr0-rcr2-esr310.npz,,,,,0,107,107,147,,right,red,2.67,1092.4896931648254,1092.9390499591827,,,2,,4,6,lightness,readingArea,realistic,75,2023-03-24_10h55.16.258,tripletExp_regina_11082022,2022.2.4,120.86460629637634,
4,3,1,0,0.694444444444444,0.298245614035088,0,0.444444444444444,0.298245614035088,0,0.111111111111111,0.298245614035088,ReadingArea_rsl0-rcl69-esl29-rsm0-rcm44-esm29-rsr0-rcr11-esr29,exr/ReadingArea_rsl0-rcl69-esl29-rsm0-rcm44-esm29-rsr0-rcr11-esr29.exr,ReadingArea_rsl0-rcl69-esl29-rsm0-rcm44-esm29-rsr0-rcr11-esr29.npz,,,,,0,108,108,60,,left,green,2.24,1096.4029581546783,1096.8612439632416,,,2,,4,6,lightness,readingArea,realistic,75,2023-03-24_10h55.16.258,tripletExp_regina_11082022,2022.2.4,120.86460629637634,
0,14,11,0,0.027777777777778,0.298245614035088,0,0.25,3.10526315789474,0,1.0,1.0,ReadingArea_rsl0-rcl2-esl29-rsm0-rcm25-esm310-rsr0-rcr100-esr100,exr/ReadingArea_rsl0-rcl2-esl29-rsm0-rcm25-esm310-rsr0-rcr100-esr100.exr,ReadingArea_rsl0-rcl2-esl29-rsm0-rcm25-esm310-rsr0-rcr100-esr100.npz,,,,,0,109,109,557,,right,red,2.12,1100.3368620872498,1100.7709431648254,,,2,,4,6,lightness,readingArea,realistic,75,2023-03-24_10h55.16.258,tripletExp_regina_11082022,2022.2.4,120.86460629637634,
9,0,11,0,0.444444444444444,1.0,0,0.027777777777778,0.298245614035088,0,1.0,1.0,ReadingArea_rsl0-rcl44-esl100-rsm0-rcm2-esm29-rsr0-rcr100-esr100,exr/ReadingArea_rsl0-rcl44-esl100-rsm0-rcm2-esm29-rsr0-rcr100-esr100.exr,ReadingArea_rsl0-rcl44-esl100-rsm0-rcm2-esm29-rsr0-rcr100-esr100.npz,,,,,0,110,110,319,,left,green,3.97,1105.986165046692,1106.478744983673,,,2,,4,6,lightness,readingArea,realistic,75,2023-03-24_10h55.16.258,tripletExp_regina_11082022,2022.2.4,120.86460629637634,
5,3,6,0,1.0,0.298245614035088,0,0.444444444444444,0.298245614035088,0,0.027777777777778,1.0,ReadingArea_rsl0-rcl100-esl29-rsm0-rcm44-esm29-rsr0-rcr2-esr100,exr/ReadingArea_rsl0-rcl100-esl29-rsm0-rcm44-esm29-rsr0-rcr2-esr100.exr,ReadingArea_rsl0-rcl100-esl29-rsm0-rcm44-esm29-rsr0-rcr2-esr100.npz,,,,,0,111,111,316,,right,red,4.09,1111.701737165451,,,,2,,4,6,lightness,readingArea,realistic,75,2023-03-24_10h55.16.258,tripletExp_regina_11082022,2022.2.4,120.86460629637634,
12,3,13,0,0.027777777777778,3.10526315789474,0,0.444444444444444,0.298245614035088,0,0.111111111111111,3.10526315789474,ReadingArea_rsl0-rcl2-esl310-rsm0-rcm44-esm29-rsr0-rcr11-esr310,exr/ReadingArea_rsl0-rcl2-esl310-rsm0-rcm44-esm29-rsr0-rcr11-esr310.exr,ReadingArea_rsl0-rcl2-esl310-rsm0-rcm44-esm29-rsr0-rcr11-esr310.npz,,,,,0,112,112,383,,left,green,3.31,1115.6401720046997,1116.078514099121,,,2,,4,6,lightness,readingArea,realistic,75,2023-03-24_10h55.16.258,tripletExp_regina_11082022,2022.2.4,120.86460629637634,
13,9,4,0,0.111111111111111,3.10526315789474,0,0.444444444444444,1.0,0,0.694444444444444,0.298245614035088,ReadingArea_rsl0-rcl11-esl310-rsm0-rcm44-esm100-rsr0-rcr69-esr29,exr/ReadingArea_rsl0-rcl11-esl310-rsm0-rcm44-esm100-rsr0-rcr69-esr29.exr,ReadingArea_rsl0-rcl11-esl310-rsm0-rcm44-esm100-rsr0-rcr69-esr29.npz,,,,,0,113,113,444,,left,green,2.06,1119.563877105713,1120.0584230422974,,,2,,4,6,lightness,readingArea,realistic,75,2023-03-24_10h55.16.258,tripletExp_regina_11082022,2022.2.4,120.86460629637634,
8,13,9,0,0.25,1.0,0,0.111111111111111,3.10526315789474,0,0.444444444444444,1.0,ReadingArea_rsl0-rcl25-esl100-rsm0-rcm11-esm310-rsr0-rcr44-esr100,exr/ReadingArea_rsl0-rcl25-esl100-rsm0-rcm11-esm310-rsr0-rcr44-esr100.exr,ReadingArea_rsl0-rcl25-esl100-rsm0-rcm11-esm310-rsr0-rcr44-esr100.npz,,,,,0,114,114,487,,right,red,2.85,1123.5533390045166,1123.9907369613647,,,2,,4,6,lightness,readingArea,realistic,75,2023-03-24_10h55.16.258,tripletExp_regina_11082022,2022.2.4,120.86460629637634,
14,6,7,0,0.25,3.10526315789474,0,0.027777777777778,1.0,0,0.111111111111111,1.0,ReadingArea_rsl0-rcl25-esl310-rsm0-rcm2-esm100-rsr0-rcr11-esr100,exr/ReadingArea_rsl0-rcl25-esl310-rsm0-rcm2-esm100-rsr0-rcr11-esr100.exr,ReadingArea_rsl0-rcl25-esl310-rsm0-rcm2-esm100-rsr0-rcr11-esr100.npz,,,,,0,115,115,306,,right,red,2.22,1127.4831681251526,1127.952579021454,,,2,,4,6,lightness,readingArea,realistic,75,2023-03-24_10h55.16.258,tripletExp_regina_11082022,2022.2.4,120.86460629637634,
14,3,4,0,0.25,3.10526315789474,0,0.444444444444444,0.298245614035088,0,0.694444444444444,0.298245614035088,ReadingArea_rsl0-rcl25-esl310-rsm0-rcm44-esm29-rsr0-rcr69-esr29,exr/ReadingArea_rsl0-rcl25-esl310-rsm0-rcm44-esm29-rsr0-rcr69-esr29.exr,ReadingArea_rsl0-rcl25-esl310-rsm0-rcm44-esm29-rsr0-rcr69-esr29.npz,,,,,0,116,116,127,,right,red,1.98,1131.41383600235,,,,2,,4,6,lightness,readingArea,realistic,75,2023-03-24_10h55.16.258,tripletExp_regina_11082022,2022.2.4,120.86460629637634,
6,2,12,0,0.027777777777778,1.0,0,0.25,0.298245614035088,0,0.027777777777778,3.10526315789474,ReadingArea_rsl0-rcl2-esl100-rsm0-rcm25-esm29-rsr0-rcr2-esr310,exr/ReadingArea_rsl0-rcl2-esl100-rsm0-rcm25-esm29-rsr0-rcr2-esr310.exr,ReadingArea_rsl0-rcl2-esl100-rsm0-rcm25-esm29-rsr0-rcr2-esr310.npz,,,,,0,117,117,480,,right,red,3.24,1135.347442150116,,,,2,,4,6,lightness,readingArea,realistic,75,2023-03-24_10h55.16.258,tripletExp_regina_11082022,2022.2.4,120.86460629637634,
2,8,7,0,0.25,0.298245614035088,0,0.25,1.0,0,0.111111111111111,1.0,ReadingArea_rsl0-rcl25-esl29-rsm0-rcm25-esm100-rsr0-rcr11-esr100,exr/ReadingArea_rsl0-rcl25-esl29-rsm0-rcm25-esm100-rsr0-rcr11-esr100.exr,ReadingArea_rsl0-rcl25-esl29-rsm0-rcm25-esm100-rsr0-rcr11-esr100.npz,,,,,0,118,118,393,,left,green,3.53,1139.2656390666962,1139.727970123291,,,2,,4,6,lightness,readingArea,realistic,75,2023-03-24_10h55.16.258,tripletExp_regina_11082022,2022.2.4,120.86460629637634,
13,11,7,0,0.111111111111111,3.10526315789474,0,1.0,1.0,0,0.111111111111111,1.0,ReadingArea_rsl0-rcl11-esl310-rsm0-rcm100-esm100-rsr0-rcr11-esr100,exr/ReadingArea_rsl0-rcl11-esl310-rsm0-rcm100-esm100-rsr0-rcr11-esr100.exr,ReadingArea_rsl0-rcl11-esl310-rsm0-rcm100-esm100-rsr0-rcr11-esr100.npz,,,,,0,119,119,590,,left,green,2.02,1143.21524310112,,,,2,,4,6,lightness,readingArea,realistic,75,2023-03-24_10h55.16.258,tripletExp_regina_11082022,2022.2.4,120.86460629637634,
13,1,3,0,0.111111111111111,3.10526315789474,0,0.111111111111111,0.298245614035088,0,0.444444444444444,0.298245614035088,ReadingArea_rsl0-rcl11-esl310-rsm0-rcm11-esm29-rsr0-rcr44-esr29,exr/ReadingArea_rsl0-rcl11-esl310-rsm0-rcm11-esm29-rsr0-rcr44-esr29.exr,ReadingArea_rsl0-rcl11-esl310-rsm0-rcm11-esm29-rsr0-rcr44-esr29.npz,,,,,0,120,120,588,,right,red,3.6,1147.125636100769,1147.589411020279,,,2,,4,6,lightness,readingArea,realistic,75,2023-03-24_10h55.16.258,tripletExp_regina_11082022,2022.2.4,120.86460629637634,
2,11,8,0,0.25,0.298245614035088,0,1.0,1.0,0,0.25,1.0,ReadingArea_rsl0-rcl25-esl29-rsm0-rcm100-esm100-rsr0-rcr25-esr100,exr/ReadingArea_rsl0-rcl25-esl29-rsm0-rcm100-esm100-rsr0-rcr25-esr100.exr,ReadingArea_rsl0-rcl25-esl29-rsm0-rcm100-esm100-rsr0-rcr25-esr100.npz,,,,,0,121,121,364,,right,red,2.22,1151.0865149497986,1151.5741119384766,,,2,,4,6,lightness,readingArea,realistic,75,2023-03-24_10h55.16.258,tripletExp_regina_11082022,2022.2.4,120.86460629637634,
5,6,0,0,1.0,0.298245614035088,0,0.027777777777778,1.0,0,0.027777777777778,0.298245614035088,ReadingArea_rsl0-rcl100-esl29-rsm0-rcm2-esm100-rsr0-rcr2-esr29,exr/ReadingArea_rsl0-rcl100-esl29-rsm0-rcm2-esm100-rsr0-rcr2-esr29.exr,ReadingArea_rsl0-rcl100-esl29-rsm0-rcm2-esm100-rsr0-rcr2-esr29.npz,,,,,0,122,122,511,,right,red,3.05,1155.0450899600985,1155.5195410251615,,,2,,4,6,lightness,readingArea,realistic,75,2023-03-24_10h55.16.258,tripletExp_regina_11082022,2022.2.4,120.86460629637634,
10,8,1,0,0.694444444444444,1.0,0,0.25,1.0,0,0.111111111111111,0.298245614035088,ReadingArea_rsl0-rcl69-esl100-rsm0-rcm25-esm100-rsr0-rcr11-esr29,exr/ReadingArea_rsl0-rcl69-esl100-rsm0-rcm25-esm100-rsr0-rcr11-esr29.exr,ReadingArea_rsl0-rcl69-esl100-rsm0-rcm25-esm100-rsr0-rcr11-esr29.npz,,,,,0,123,123,247,,right,red,4.02,1160.798376083374,1161.2667291164398,,,2,,4,6,lightness,readingArea,realistic,75,2023-03-24_10h55.16.258,tripletExp_regina_11082022,2022.2.4,120.86460629637634,
7,3,0,0,0.111111111111111,1.0,0,0.444444444444444,0.298245614035088,0,0.027777777777778,0.298245614035088,ReadingArea_rsl0-rcl11-esl100-rsm0-rcm44-esm29-rsr0-rcr2-esr29,exr/ReadingArea_rsl0-rcl11-esl100-rsm0-rcm44-esm29-rsr0-rcr2-esr29.exr,ReadingArea_rsl0-rcl11-esl100-rsm0-rcm44-esm29-rsr0-rcr2-esr29.npz,,,,,0,124,124,318,,left,green,2.04,1164.7252271175385,1165.171364068985,,,2,,4,6,lightness,readingArea,realistic,75,2023-03-24_10h55.16.258,tripletExp_regina_11082022,2022.2.4,120.86460629637634,
11,12,2,0,1.0,1.0,0,0.027777777777778,3.10526315789474,0,0.25,0.298245614035088,ReadingArea_rsl0-rcl100-esl100-rsm0-rcm2-esm310-rsr0-rcr25-esr29,exr/ReadingArea_rsl0-rcl100-esl100-rsm0-rcm2-esm310-rsr0-rcr25-esr29.exr,ReadingArea_rsl0-rcl100-esl100-rsm0-rcm2-esm310-rsr0-rcr25-esr29.npz,,,,,0,125,125,423,,right,red,2.87,1168.6186649799347,1169.078367948532,,,2,,4,6,lightness,readingArea,realistic,75,2023-03-24_10h55.16.258,tripletExp_regina_11082022,2022.2.4,120.86460629637634,
5,7,14,0,1.0,0.298245614035088,0,0.111111111111111,1.0,0,0.25,3.10526315789474,ReadingArea_rsl0-rcl100-esl29-rsm0-rcm11-esm100-rsr0-rcr25-esr310,exr/ReadingArea_rsl0-rcl100-esl29-rsm0-rcm11-esm100-rsr0-rcr25-esr310.exr,ReadingArea_rsl0-rcl100-esl29-rsm0-rcm11-esm100-rsr0-rcr25-esr310.npz,,,,,0,126,126,210,,left,green,4.42,1174.319447040558,1174.7778129577637,,,2,,4,6,lightness,readingArea,realistic,75,2023-03-24_10h55.16.258,tripletExp_regina_11082022,2022.2.4,120.86460629637634,
14,0,5,0,0.25,3.10526315789474,0,0.027777777777778,0.298245614035088,0,1.0,0.298245614035088,ReadingArea_rsl0-rcl25-esl310-rsm0-rcm2-esm29-rsr0-rcr100-esr29,exr/ReadingArea_rsl0-rcl25-esl310-rsm0-rcm2-esm29-rsr0-rcr100-esr29.exr,ReadingArea_rsl0-rcl25-esl310-rsm0-rcm2-esm29-rsr0-rcr100-esr29.npz,,,,,0,127,127,418,,right,red,3.85,1179.9874601364136,1180.495404005051,,,2,,4,6,lightness,readingArea,realistic,75,2023-03-24_10h55.16.258,tripletExp_regina_11082022,2022.2.4,120.86460629637634,
7,10,5,0,0.111111111111111,1.0,0,0.694444444444444,1.0,0,1.0,0.298245614035088,ReadingArea_rsl0-rcl11-esl100-rsm0-rcm69-esm100-rsr0-rcr100-esr29,exr/ReadingArea_rsl0-rcl11-esl100-rsm0-rcm69-esm100-rsr0-rcr100-esr29.exr,ReadingArea_rsl0-rcl11-esl100-rsm0-rcm69-esm100-rsr0-rcr100-esr29.npz,,,,,0,128,128,395,,right,red,3.21,1183.948364019394,1184.4262790679932,,,2,,4,6,lightness,readingArea,realistic,75,2023-03-24_10h55.16.258,tripletExp_regina_11082022,2022.2.4,120.86460629637634,
2,9,11,0,0.25,0.298245614035088,0,0.444444444444444,1.0,0,1.0,1.0,ReadingArea_rsl0-rcl25-esl29-rsm0-rcm44-esm100-rsr0-rcr100-esr100,exr/ReadingArea_rsl0-rcl25-esl29-rsm0-rcm44-esm100-rsr0-rcr100-esr100.exr,ReadingArea_rsl0-rcl25-esl29-rsm0-rcm44-esm100-rsr0-rcr100-esr100.npz,,,,,0,129,129,164,,right,red,2.72,1187.8875350952148,1188.3427760601044,,,2,,4,6,lightness,readingArea,realistic,75,2023-03-24_10h55.16.258,tripletExp_regina_11082022,2022.2.4,120.86460629637634,
10,9,6,0,0.694444444444444,1.0,0,0.444444444444444,1.0,0,0.027777777777778,1.0,ReadingArea_rsl0-rcl69-esl100-rsm0-rcm44-esm100-rsr0-rcr2-esr100,exr/ReadingArea_rsl0-rcl69-esl100-rsm0-rcm44-esm100-rsr0-rcr2-esr100.exr,ReadingArea_rsl0-rcl69-esl100-rsm0-rcm44-esm100-rsr0-rcr2-esr100.npz,,,,,0,130,130,35,,left,green,2.51,1191.8231301307678,,,,2,,4,6,lightness,readingArea,realistic,75,2023-03-24_10h55.16.258,tripletExp_regina_11082022,2022.2.4,120.86460629637634,
12,7,1,0,0.027777777777778,3.10526315789474,0,0.111111111111111,1.0,0,0.111111111111111,0.298245614035088,ReadingArea_rsl0-rcl2-esl310-rsm0-rcm11-esm100-rsr0-rcr11-esr29,exr/ReadingArea_rsl0-rcl2-esl310-rsm0-rcm11-esm100-rsr0-rcr11-esr29.exr,ReadingArea_rsl0-rcl2-esl310-rsm0-rcm11-esm100-rsr0-rcr11-esr29.npz,,,,,0,131,131,264,,left,green,2.09,1195.781937122345,,,,2,,4,6,lightness,readingArea,realistic,75,2023-03-24_10h55.16.258,tripletExp_regina_11082022,2022.2.4,120.86460629637634,
2,11,5,0,0.25,0.298245614035088,0,1.0,1.0,0,1.0,0.298245614035088,ReadingArea_rsl0-rcl25-esl29-rsm0-rcm100-esm100-rsr0-rcr100-esr29,exr/ReadingArea_rsl0-rcl25-esl29-rsm0-rcm100-esm100-rsr0-rcr100-esr29.exr,ReadingArea_rsl0-rcl25-esl29-rsm0-rcm100-esm100-rsr0-rcr100-esr29.npz,,,,,0,132,132,491,,right,red,2.55,1199.7077460289,,,,2,,4,6,lightness,readingArea,realistic,75,2023-03-24_10h55.16.258,tripletExp_regina_11082022,2022.2.4,120.86460629637634,
3,13,12,0,0.444444444444444,0.298245614035088,0,0.111111111111111,3.10526315789474,0,0.027777777777778,3.10526315789474,ReadingArea_rsl0-rcl44-esl29-rsm0-rcm11-esm310-rsr0-rcr2-esr310,exr/ReadingArea_rsl0-rcl44-esl29-rsm0-rcm11-esm310-rsr0-rcr2-esr310.exr,ReadingArea_rsl0-rcl44-esl29-rsm0-rcm11-esm310-rsr0-rcr2-esr310.npz,,,,,0,133,133,34,,left,green,2.92,1203.6209580898285,1204.0818071365356,,,2,,4,6,lightness,readingArea,realistic,75,2023-03-24_10h55.16.258,tripletExp_regina_11082022,2022.2.4,120.86460629637634,
11,8,0,0,1.0,1.0,0,0.25,1.0,0,0.027777777777778,0.298245614035088,ReadingArea_rsl0-rcl100-esl100-rsm0-rcm25-esm100-rsr0-rcr2-esr29,exr/ReadingArea_rsl0-rcl100-esl100-rsm0-rcm25-esm100-rsr0-rcr2-esr29.exr,ReadingArea_rsl0-rcl100-esl100-rsm0-rcm25-esm100-rsr0-rcr2-esr29.npz,,,,,0,134,134,81,,left,green,3.08,1207.55815410614,1208.022577047348,,,2,,4,6,lightness,readingArea,realistic,75,2023-03-24_10h55.16.258,tripletExp_regina_11082022,2022.2.4,120.86460629637634,
10,13,1,0,0.694444444444444,1.0,0,0.111111111111111,3.10526315789474,0,0.111111111111111,0.298245614035088,ReadingArea_rsl0-rcl69-esl100-rsm0-rcm11-esm310-rsr0-rcr11-esr29,exr/ReadingArea_rsl0-rcl69-esl100-rsm0-rcm11-esm310-rsr0-rcr11-esr29.exr,ReadingArea_rsl0-rcl69-esl100-rsm0-rcm11-esm310-rsr0-rcr11-esr29.npz,,,,,0,135,135,149,,right,red,2.29,1211.506369113922,1211.9741480350494,,,2,,4,6,lightness,readingArea,realistic,75,2023-03-24_10h55.16.258,tripletExp_regina_11082022,2022.2.4,120.86460629637634,
14,6,11,0,0.25,3.10526315789474,0,0.027777777777778,1.0,0,1.0,1.0,ReadingArea_rsl0-rcl25-esl310-rsm0-rcm2-esm100-rsr0-rcr100-esr100,exr/ReadingArea_rsl0-rcl25-esl310-rsm0-rcm2-esm100-rsr0-rcr100-esr100.exr,ReadingArea_rsl0-rcl25-esl310-rsm0-rcm2-esm100-rsr0-rcr100-esr100.npz,,,,,0,136,136,337,,right,red,2.95,1215.4210500717163,1215.898195028305,,,2,,4,6,lightness,readingArea,realistic,75,2023-03-24_10h55.16.258,tripletExp_regina_11082022,2022.2.4,120.86460629637634,
10,11,12,0,0.694444444444444,1.0,0,1.0,1.0,0,0.027777777777778,3.10526315789474,ReadingArea_rsl0-rcl69-esl100-rsm0-rcm100-esm100-rsr0-rcr2-esr310,exr/ReadingArea_rsl0-rcl69-esl100-rsm0-rcm100-esm100-rsr0-rcr2-esr310.exr,ReadingArea_rsl0-rcl69-esl100-rsm0-rcm100-esm100-rsr0-rcr2-esr310.npz,,,,,0,137,137,533,,left,green,2.36,1219.355004072189,1219.814381122589,,,2,,4,6,lightness,readingArea,realistic,75,2023-03-24_10h55.16.258,tripletExp_regina_11082022,2022.2.4,120.86460629637634,
5,1,4,0,1.0,0.298245614035088,0,0.111111111111111,0.298245614035088,0,0.694444444444444,0.298245614035088,ReadingArea_rsl0-rcl100-esl29-rsm0-rcm11-esm29-rsr0-rcr69-esr29,exr/ReadingArea_rsl0-rcl100-esl29-rsm0-rcm11-esm29-rsr0-rcr69-esr29.exr,ReadingArea_rsl0-rcl100-esl29-rsm0-rcm11-esm29-rsr0-rcr69-esr29.npz,,,,,0,138,138,287,,left,green,2.23,1223.2707030773165,1223.7364809513092,,,2,,4,6,lightness,readingArea,realistic,75,2023-03-24_10h55.16.258,tripletExp_regina_11082022,2022.2.4,120.86460629637634,
6,11,7,0,0.027777777777778,1.0,0,1.0,1.0,0,0.111111111111111,1.0,ReadingArea_rsl0-rcl2-esl100-rsm0-rcm100-esm100-rsr0-rcr11-esr100,exr/ReadingArea_rsl0-rcl2-esl100-rsm0-rcm100-esm100-rsr0-rcr11-esr100.exr,ReadingArea_rsl0-rcl2-esl100-rsm0-rcm100-esm100-rsr0-rcr11-esr100.npz,,,,,0,139,139,571,,right,red,1.99,1227.2072801589966,1227.6766040325165,,,2,,4,6,lightness,readingArea,realistic,75,2023-03-24_10h55.16.258,tripletExp_regina_11082022,2022.2.4,120.86460629637634,
9,7,2,0,0.444444444444444,1.0,0,0.111111111111111,1.0,0,0.25,0.298245614035088,ReadingArea_rsl0-rcl44-esl100-rsm0-rcm11-esm100-rsr0-rcr25-esr29,exr/ReadingArea_rsl0-rcl44-esl100-rsm0-rcm11-esm100-rsr0-rcr25-esr29.exr,ReadingArea_rsl0-rcl44-esl100-rsm0-rcm11-esm100-rsr0-rcr25-esr29.npz,,,,,0,140,140,428,,right,red,1.97,1231.134112119675,1231.6002161502838,,,2,,4,6,lightness,readingArea,realistic,75,2023-03-24_10h55.16.258,tripletExp_regina_11082022,2022.2.4,120.86460629637634,
4,5,1,0,0.694444444444444,0.298245614035088,0,1.0,0.298245614035088,0,0.111111111111111,0.298245614035088,ReadingArea_rsl0-rcl69-esl29-rsm0-rcm100-esm29-rsr0-rcr11-esr29,exr/ReadingArea_rsl0-rcl69-esl29-rsm0-rcm100-esm29-rsr0-rcr11-esr29.exr,ReadingArea_rsl0-rcl69-esl29-rsm0-rcm100-esm29-rsr0-rcr11-esr29.npz,,,,,0,141,141,240,,left,green,2.36,1235.0604419708252,1235.521409988403,,,2,,4,6,lightness,readingArea,realistic,75,2023-03-24_10h55.16.258,tripletExp_regina_11082022,2022.2.4,120.86460629637634,
11,7,9,0,1.0,1.0,0,0.111111111111111,1.0,0,0.444444444444444,1.0,ReadingArea_rsl0-rcl100-esl100-rsm0-rcm11-esm100-rsr0-rcr44-esr100,exr/ReadingArea_rsl0-rcl100-esl100-rsm0-rcm11-esm100-rsr0-rcr44-esr100.exr,ReadingArea_rsl0-rcl100-esl100-rsm0-rcm11-esm100-rsr0-rcr44-esr100.npz,,,,,0,142,142,521,,right,red,2.04,1238.982752084732,1239.4455170631409,,,2,,4,6,lightness,readingArea,realistic,75,2023-03-24_10h55.16.258,tripletExp_regina_11082022,2022.2.4,120.86460629637634,
12,13,10,0,0.027777777777778,3.10526315789474,0,0.111111111111111,3.10526315789474,0,0.694444444444444,1.0,ReadingArea_rsl0-rcl2-esl310-rsm0-rcm11-esm310-rsr0-rcr69-esr100,exr/ReadingArea_rsl0-rcl2-esl310-rsm0-rcm11-esm310-rsr0-rcr69-esr100.exr,ReadingArea_rsl0-rcl2-esl310-rsm0-rcm11-esm310-rsr0-rcr69-esr100.npz,,,,,0,143,143,295,,right,red,2.82,1242.9060640335083,,,,2,,4,6,lightness,readingArea,realistic,75,2023-03-24_10h55.16.258,tripletExp_regina_11082022,2022.2.4,120.86460629637634,
6,13,5,0,0.027777777777778,1.0,0,0.111111111111111,3.10526315789474,0,1.0,0.298245614035088,ReadingArea_rsl0-rcl2-esl100-rsm0-rcm11-esm310-rsr0-rcr100-esr29,exr/ReadingArea_rsl0-rcl2-esl100-rsm0-rcm11-esm310-rsr0-rcr100-esr29.exr,ReadingArea_rsl0-rcl2-esl100-rsm0-rcm11-esm310-rsr0-rcr100-esr29.npz,,,,,0,144,144,53,,right,red,2.98,1246.8709230422974,1247.336807012558,,,2,,4,6,lightness,readingArea,realistic,75,2023-03-24_10h55.16.258,tripletExp_regina_11082022,2022.2.4,120.86460629637634,
8,9,1,0,0.25,1.0,0,0.444444444444444,1.0,0,0.111111111111111,0.298245614035088,ReadingArea_rsl0-rcl25-esl100-rsm0-rcm44-esm100-rsr0-rcr11-esr29,exr/ReadingArea_rsl0-rcl25-esl100-rsm0-rcm44-esm100-rsr0-rcr11-esr29.exr,ReadingArea_rsl0-rcl25-esl100-rsm0-rcm44-esm100-rsr0-rcr11-esr29.npz,,,,,0,145,145,266,,left,green,2.09,1250.7974491119385,1251.254446029663,,,2,,4,6,lightness,readingArea,realistic,75,2023-03-24_10h55.16.258,tripletExp_regina_11082022,2022.2.4,120.86460629637634,
4,12,5,0,0.694444444444444,0.298245614035088,0,0.027777777777778,3.10526315789474,0,1.0,0.298245614035088,ReadingArea_rsl0-rcl69-esl29-rsm0-rcm2-esm310-rsr0-rcr100-esr29,exr/ReadingArea_rsl0-rcl69-esl29-rsm0-rcm2-esm310-rsr0-rcr100-esr29.exr,ReadingArea_rsl0-rcl69-esl29-rsm0-rcm2-esm310-rsr0-rcr100-esr29.npz,,,,,0,146,146,296,,left,green,2.13,1254.7109730243685,1255.17192196846,,,2,,4,6,lightness,readingArea,realistic,75,2023-03-24_10h55.16.258,tripletExp_regina_11082022,2022.2.4,120.86460629637634,
13,0,10,0,0.111111111111111,3.10526315789474,0,0.027777777777778,0.298245614035088,0,0.694444444444444,1.0,ReadingArea_rsl0-rcl11-esl310-rsm0-rcm2-esm29-rsr0-rcr69-esr100,exr/ReadingArea_rsl0-rcl11-esl310-rsm0-rcm2-esm29-rsr0-rcr69-esr100.exr,ReadingArea_rsl0-rcl11-esl310-rsm0-rcm2-esm29-rsr0-rcr69-esr100.npz,,,,,0,147,147,505,,left,green,4.01,1260.406131029129,1260.9545860290527,,,2,,4,6,lightness,readingArea,realistic,75,2023-03-24_10h55.16.258,tripletExp_regina_11082022,2022.2.4,120.86460629637634,
7,8,14,0,0.111111111111111,1.0,0,0.25,1.0,0,0.25,3.10526315789474,ReadingArea_rsl0-rcl11-esl100-rsm0-rcm25-esm100-rsr0-rcr25-esr310,exr/ReadingArea_rsl0-rcl11-esl100-rsm0-rcm25-esm100-rsr0-rcr25-esr310.exr,ReadingArea_rsl0-rcl11-esl100-rsm0-rcm25-esm100-rsr0-rcr25-esr310.npz,,,,,0,148,148,300,,left,green,2.21,1264.4126861095428,1264.882187128067,,,2,,4,6,lightness,readingArea,realistic,75,2023-03-24_10h55.16.258,tripletExp_regina_11082022,2022.2.4,120.86460629637634,
4,8,11,0,0.694444444444444,0.298245614035088,0,0.25,1.0,0,1.0,1.0,ReadingArea_rsl0-rcl69-esl29-rsm0-rcm25-esm100-rsr0-rcr100-esr100,exr/ReadingArea_rsl0-rcl69-esl29-rsm0-rcm25-esm100-rsr0-rcr100-esr100.exr,ReadingArea_rsl0-rcl69-esl29-rsm0-rcm25-esm100-rsr0-rcr100-esr100.npz,,,,,0,149,149,403,,left,green,2.6,1268.3490250110626,1268.550369977951,,,2,,4,6,lightness,readingArea,realistic,75,2023-03-24_10h55.16.258,tripletExp_regina_11082022,2022.2.4,120.86460629637634,
1,13,11,0,0.111111111111111,0.298245614035088,0,0.111111111111111,3.10526315789474,0,1.0,1.0,ReadingArea_rsl0-rcl11-esl29-rsm0-rcm11-esm310-rsr0-rcr100-esr100,exr/ReadingArea_rsl0-rcl11-esl29-rsm0-rcm11-esm310-rsr0-rcr100-esr100.exr,ReadingArea_rsl0-rcl11-esl29-rsm0-rcm11-esm310-rsr0-rcr100-esr100.npz,,,,,0,150,150,333,,left,green,4.31,1349.307885169983,1349.8555171489716,,,3,,4,6,lightness,readingArea,realistic,75,2023-03-24_10h55.16.258,tripletExp_regina_11082022,2022.2.4,120.86460629637634,
6,4,2,0,0.027777777777778,1.0,0,0.694444444444444,0.298245614035088,0,0.25,0.298245614035088,ReadingArea_rsl0-rcl2-esl100-rsm0-rcm69-esm29-rsr0-rcr25-esr29,exr/ReadingArea_rsl0-rcl2-esl100-rsm0-rcm69-esm29-rsr0-rcr25-esr29.exr,ReadingArea_rsl0-rcl2-esl100-rsm0-rcm69-esm29-rsr0-rcr25-esr29.npz,,,,,0,151,151,134,,right,red,2.1,1353.312709093094,1353.773370027542,,,3,,4,6,lightness,readingArea,realistic,75,2023-03-24_10h55.16.258,tripletExp_regina_11082022,2022.2.4,120.86460629637634,
10,1,0,0,0.694444444444444,1.0,0,0.111111111111111,0.298245614035088,0,0.027777777777778,0.298245614035088,ReadingArea_rsl0-rcl69-esl100-rsm0-rcm11-esm29-rsr0-rcr2-esr29,exr/ReadingArea_rsl0-rcl69-esl100-rsm0-rcm11-esm29-rsr0-rcr2-esr29.exr,ReadingArea_rsl0-rcl69-esl100-rsm0-rcm11-esm29-rsr0-rcr2-esr29.npz,,,,,0,152,152,276,,right,red,2.45,1357.2221510410309,1357.6849009990692,,,3,,4,6,lightness,readingArea,realistic,75,2023-03-24_10h55.16.258,tripletExp_regina_11082022,2022.2.4,120.86460629637634,
12,8,6,0,0.027777777777778,3.10526315789474,0,0.25,1.0,0,0.027777777777778,1.0,ReadingArea_rsl0-rcl2-esl310-rsm0-rcm25-esm100-rsr0-rcr2-esr100,exr/ReadingArea_rsl0-rcl2-esl310-rsm0-rcm25-esm100-rsr0-rcr2-esr100.exr,ReadingArea_rsl0-rcl2-esl310-rsm0-rcm25-esm100-rsr0-rcr2-esr100.npz,,,,,0,153,153,281,,left,green,2.14,1361.1417031288147,,,,3,,4,6,lightness,readingArea,realistic,75,2023-03-24_10h55.16.258,tripletExp_regina_11082022,2022.2.4,120.86460629637634,
0,10,12,0,0.027777777777778,0.298245614035088,0,0.694444444444444,1.0,0,0.027777777777778,3.10526315789474,ReadingArea_rsl0-rcl2-esl29-rsm0-rcm69-esm100-rsr0-rcr2-esr310,exr/ReadingArea_rsl0-rcl2-esl29-rsm0-rcm69-esm100-rsr0-rcr2-esr310.exr,ReadingArea_rsl0-rcl2-esl29-rsm0-rcm69-esm100-rsr0-rcr2-esr310.npz,,,,,0,154,154,531,,right,red,2.12,1365.1070020198822,1365.586138963699,,,3,,4,6,lightness,readingArea,realistic,75,2023-03-24_10h55.16.258,tripletExp_regina_11082022,2022.2.4,120.86460629637634,
0,10,14,0,0.027777777777778,0.298245614035088,0,0.694444444444444,1.0,0,0.25,3.10526315789474,ReadingArea_rsl0-rcl2-esl29-rsm0-rcm69-esm100-rsr0-rcr25-esr310,exr/ReadingArea_rsl0-rcl2-esl29-rsm0-rcm69-esm100-rsr0-rcr25-esr310.exr,ReadingArea_rsl0-rcl2-esl29-rsm0-rcm69-esm100-rsr0-rcr25-esr310.npz,,,,,0,155,155,31,,right,red,2.08,1369.041021108627,1369.540452957153,,,3,,4,6,lightness,readingArea,realistic,75,2023-03-24_10h55.16.258,tripletExp_regina_11082022,2022.2.4,120.86460629637634,
5,3,2,0,1.0,0.298245614035088,0,0.444444444444444,0.298245614035088,0,0.25,0.298245614035088,ReadingArea_rsl0-rcl100-esl29-rsm0-rcm44-esm29-rsr0-rcr25-esr29,exr/ReadingArea_rsl0-rcl100-esl29-rsm0-rcm44-esm29-rsr0-rcr25-esr29.exr,ReadingArea_rsl0-rcl100-esl29-rsm0-rcm44-esm29-rsr0-rcr25-esr29.npz,,,,,0,156,156,143,,right,red,4.11,1374.7909469604492,1375.2665650844574,,,3,,4,6,lightness,readingArea,realistic,75,2023-03-24_10h55.16.258,tripletExp_regina_11082022,2022.2.4,120.86460629637634,
14,10,13,0,0.25,3.10526315789474,0,0.694444444444444,1.0,0,0.111111111111111,3.10526315789474,ReadingArea_rsl0-rcl25-esl310-rsm0-rcm69-esm100-rsr0-rcr11-esr310,exr/ReadingArea_rsl0-rcl25-esl310-rsm0-rcm69-esm100-rsr0-rcr11-esr310.exr,ReadingArea_rsl0-rcl25-esl310-rsm0-rcm69-esm100-rsr0-rcr11-esr310.npz,,,,,0,157,157,204,,left,green,3.96,1380.4911170005798,1380.9690861701963,,,3,,4,6,lightness,readingArea,realistic,75,2023-03-24_10h55.16.258,tripletExp_regina_11082022,2022.2.4,120.86460629637634,
0,4,12,0,0.027777777777778,0.298245614035088,0,0.694444444444444,0.298245614035088,0,0.027777777777778,3.10526315789474,ReadingArea_rsl0-rcl2-esl29-rsm0-rcm69-esm29-rsr0-rcr2-esr310,exr/ReadingArea_rsl0-rcl2-esl29-rsm0-rcm69-esm29-rsr0-rcr2-esr310.exr,ReadingArea_rsl0-rcl2-esl29-rsm0-rcm69-esm29-rsr0-rcr2-esr310.npz,,,,,0,158,158,150,,right,red,2.61,1384.4272820949554,1384.8805680274963,,,3,,4,6,lightness,readingArea,realistic,75,2023-03-24_10h55.16.258,tripletExp_regina_11082022,2022.2.4,120.86460629637634,
4,14,1,0,0.694444444444444,0.298245614035088,0,0.25,3.10526315789474,0,0.111111111111111,0.298245614035088,ReadingArea_rsl0-rcl69-esl29-rsm0-rcm25-esm310-rsr0-rcr11-esr29,exr/ReadingArea_rsl0-rcl69-esl29-rsm0-rcm25-esm310-rsr0-rcr11-esr29.exr,ReadingArea_rsl0-rcl69-esl29-rsm0-rcm25-esm310-rsr0-rcr11-esr29.npz,,,,,0,159,159,477,,left,green,3.82,1390.1167600154877,1390.5773780345917,,,3,,4,6,lightness,readingArea,realistic,75,2023-03-24_10h55.16.258,tripletExp_regina_11082022,2022.2.4,120.86460629637634,
7,14,3,0,0.111111111111111,1.0,0,0.25,3.10526315789474,0,0.444444444444444,0.298245614035088,ReadingArea_rsl0-rcl11-esl100-rsm0-rcm25-esm310-rsr0-rcr44-esr29,exr/ReadingArea_rsl0-rcl11-esl100-rsm0-rcm25-esm310-rsr0-rcr44-esr29.exr,ReadingArea_rsl0-rcl11-esl100-rsm0-rcm25-esm310-rsr0-rcr44-esr29.npz,,,,,0,160,160,103,,left,green,2.18,1394.0502021312714,1394.5237381458282,,,3,,4,6,lightness,readingArea,realistic,75,2023-03-24_10h55.16.258,tripletExp_regina_11082022,2022.2.4,120.86460629637634,
1,8,12,0,0.111111111111111,0.298245614035088,0,0.25,1.0,0,0.027777777777778,3.10526315789474,ReadingArea_rsl0-rcl11-esl29-rsm0-rcm25-esm100-rsr0-rcr2-esr310,exr/ReadingArea_rsl0-rcl11-esl29-rsm0-rcm25-esm100-rsr0-rcr2-esr310.exr,ReadingArea_rsl0-rcl11-esl29-rsm0-rcm25-esm100-rsr0-rcr2-esr310.npz,,,,,0,161,161,156,,right,red,4.29,1399.76548910141,1400.234636068344,,,3,,4,6,lightness,readingArea,realistic,75,2023-03-24_10h55.16.258,tripletExp_regina_11082022,2022.2.4,120.86460629637634,
6,2,5,0,0.027777777777778,1.0,0,0.25,0.298245614035088,0,1.0,0.298245614035088,ReadingArea_rsl0-rcl2-esl100-rsm0-rcm25-esm29-rsr0-rcr100-esr29,exr/ReadingArea_rsl0-rcl2-esl100-rsm0-rcm25-esm29-rsr0-rcr100-esr29.exr,ReadingArea_rsl0-rcl2-esl100-rsm0-rcm25-esm29-rsr0-rcr100-esr29.npz,,,,,0,162,162,504,,,red,4.29,1405.462346076965,1405.923334121704,,,3,1405.095085477829,4,6,lightness,readingArea,realistic,75,2023-03-24_10h55.16.258,tripletExp_regina_11082022,2022.2.4,120.86460629637634,
14,8,3,0,0.25,3.10526315789474,0,0.25,1.0,0,0.444444444444444,0.298245614035088,ReadingArea_rsl0-rcl25-esl310-rsm0-rcm25-esm100-rsr0-rcr44-esr29,exr/ReadingArea_rsl0-rcl25-esl310-rsm0-rcm25-esm100-rsr0-rcr44-esr29.exr,ReadingArea_rsl0-rcl25-esl310-rsm0-rcm25-esm100-rsr0-rcr44-esr29.npz,,,,,0,163,163,100,,right,red,2.38,1409.401759147644,1409.8786761760712,,,3,,4,6,lightness,readingArea,realistic,75,2023-03-24_10h55.16.258,tripletExp_regina_11082022,2022.2.4,120.86460629637634,
7,9,3,0,0.111111111111111,1.0,0,0.444444444444444,1.0,0,0.444444444444444,0.298245614035088,ReadingArea_rsl0-rcl11-esl100-rsm0-rcm44-esm100-rsr0-rcr44-esr29,exr/ReadingArea_rsl0-rcl11-esl100-rsm0-rcm44-esm100-rsr0-rcr44-esr29.exr,ReadingArea_rsl0-rcl11-esl100-rsm0-rcm44-esm100-rsr0-rcr44-esr29.npz,,,,,0,164,164,311,,left,green,2.28,1413.3654050827026,1413.8310210704803,,,3,,4,6,lightness,readingArea,realistic,75,2023-03-24_10h55.16.258,tripletExp_regina_11082022,2022.2.4,120.86460629637634,
1,14,5,0,0.111111111111111,0.298245614035088,0,0.25,3.10526315789474,0,1.0,0.298245614035088,ReadingArea_rsl0-rcl11-esl29-rsm0-rcm25-esm310-rsr0-rcr100-esr29,exr/ReadingArea_rsl0-rcl11-esl29-rsm0-rcm25-esm310-rsr0-rcr100-esr29.exr,ReadingArea_rsl0-rcl11-esl29-rsm0-rcm25-esm310-rsr0-rcr100-esr29.npz,,,,,0,165,165,509,,right,red,2.01,1417.2965240478516,1417.9248070716858,,,3,,4,6,lightness,readingArea,realistic,75,2023-03-24_10h55.16.258,tripletExp_regina_11082022,2022.2.4,120.86460629637634,
5,0,11,0,1.0,0.298245614035088,0,0.027777777777778,0.298245614035088,0,1.0,1.0,ReadingArea_rsl0-rcl100-esl29-rsm0-rcm2-esm29-rsr0-rcr100-esr100,exr/ReadingArea_rsl0-rcl100-esl29-rsm0-rcm2-esm29-rsr0-rcr100-esr100.exr,ReadingArea_rsl0-rcl100-esl29-rsm0-rcm2-esm29-rsr0-rcr100-esr100.npz,,,,,0,166,166,547,,left,green,3.22,1421.3748049736023,1421.842610120773,,,3,,4,6,lightness,readingArea,realistic,75,2023-03-24_10h55.16.258,tripletExp_regina_11082022,2022.2.4,120.86460629637634,
3,10,4,0,0.444444444444444,0.298245614035088,0,0.694444444444444,1.0,0,0.694444444444444,0.298245614035088,ReadingArea_rsl0-rcl44-esl29-rsm0-rcm69-esm100-rsr0-rcr69-esr29,exr/ReadingArea_rsl0-rcl44-esl29-rsm0-rcm69-esm100-rsr0-rcr69-esr29.exr,ReadingArea_rsl0-rcl44-esl29-rsm0-rcm69-esm100-rsr0-rcr69-esr29.npz,,,,,0,167,167,435,,right,red,3.29,1425.2887020111084,1425.748424053192,,,3,,4,6,lightness,readingArea,realistic,75,2023-03-24_10h55.16.258,tripletExp_regina_11082022,2022.2.4,120.86460629637634,
5,2,14,0,1.0,0.298245614035088,0,0.25,0.298245614035088,0,0.25,3.10526315789474,ReadingArea_rsl0-rcl100-esl29-rsm0-rcm25-esm29-rsr0-rcr25-esr310,exr/ReadingArea_rsl0-rcl100-esl29-rsm0-rcm25-esm29-rsr0-rcr25-esr310.exr,ReadingArea_rsl0-rcl100-esl29-rsm0-rcm25-esm29-rsr0-rcr25-esr310.npz,,,,,0,168,168,462,,left,green,4.5,1431.028881072998,1431.5892870426178,,,3,,4,6,lightness,readingArea,realistic,75,2023-03-24_10h55.16.258,tripletExp_regina_11082022,2022.2.4,120.86460629637634,
10,14,13,0,0.694444444444444,1.0,0,0.25,3.10526315789474,0,0.111111111111111,3.10526315789474,ReadingArea_rsl0-rcl69-esl100-rsm0-rcm25-esm310-rsr0-rcr11-esr310,exr/ReadingArea_rsl0-rcl69-esl100-rsm0-rcm25-esm310-rsr0-rcr11-esr310.exr,ReadingArea_rsl0-rcl69-esl100-rsm0-rcm25-esm310-rsr0-rcr11-esr310.npz,,,,,0,169,169,168,,,green,4.5,1436.8231840133667,1437.4073340892792,,,3,1436.459093427658,4,6,lightness,readingArea,realistic,75,2023-03-24_10h55.16.258,tripletExp_regina_11082022,2022.2.4,120.86460629637634,
13,6,2,0,0.111111111111111,3.10526315789474,0,0.027777777777778,1.0,0,0.25,0.298245614035088,ReadingArea_rsl0-rcl11-esl310-rsm0-rcm2-esm100-rsr0-rcr25-esr29,exr/ReadingArea_rsl0-rcl11-esl310-rsm0-rcm2-esm100-rsr0-rcr25-esr29.exr,ReadingArea_rsl0-rcl11-esl310-rsm0-rcm2-esm100-rsr0-rcr25-esr29.npz,,,,,0,170,170,115,,right,red,2.47,1440.8781249523165,1441.337218999863,,,3,,4,6,lightness,readingArea,realistic,75,2023-03-24_10h55.16.258,tripletExp_regina_11082022,2022.2.4,120.86460629637634,
7,12,2,0,0.111111111111111,1.0,0,0.027777777777778,3.10526315789474,0,0.25,0.298245614035088,ReadingArea_rsl0-rcl11-esl100-rsm0-rcm2-esm310-rsr0-rcr25-esr29,exr/ReadingArea_rsl0-rcl11-esl100-rsm0-rcm2-esm310-rsr0-rcr25-esr29.exr,ReadingArea_rsl0-rcl11-esl100-rsm0-rcm2-esm310-rsr0-rcr25-esr29.npz,,,,,0,171,171,72,,left,green,3.14,1444.808357000351,1445.264976978302,,,3,,4,6,lightness,readingArea,realistic,75,2023-03-24_10h55.16.258,tripletExp_regina_11082022,2022.2.4,120.86460629637634,
11,7,10,0,1.0,1.0,0,0.111111111111111,1.0,0,0.694444444444444,1.0,ReadingArea_rsl0-rcl100-esl100-rsm0-rcm11-esm100-rsr0-rcr69-esr100,exr/ReadingArea_rsl0-rcl100-esl100-rsm0-rcm11-esm100-rsr0-rcr69-esr100.exr,ReadingArea_rsl0-rcl100-esl100-rsm0-rcm11-esm100-rsr0-rcr69-esr100.npz,,,,,0,172,172,411,,right,red,2.0,1448.753762960434,1449.2264831066132,,,3,,4,6,lightness,readingArea,realistic,75,2023-03-24_10h55.16.258,tripletExp_regina_11082022,2022.2.4,120.86460629637634,
11,0,10,0,1.0,1.0,0,0.027777777777778,0.298245614035088,0,0.694444444444444,1.0,ReadingArea_rsl0-rcl100-esl100-rsm0-rcm2-esm29-rsr0-rcr69-esr100,exr/ReadingArea_rsl0-rcl100-esl100-rsm0-rcm2-esm29-rsr0-rcr69-esr100.exr,ReadingArea_rsl0-rcl100-esl100-rsm0-rcm2-esm29-rsr0-rcr69-esr100.npz,,,,,0,173,173,259,,right,red,2.25,1452.7098231315613,1453.303369998932,,,3,,4,6,lightness,readingArea,realistic,75,2023-03-24_10h55.16.258,tripletExp_regina_11082022,2022.2.4,120.86460629637634,
7,10,13,0,0.111111111111111,1.0,0,0.694444444444444,1.0,0,0.111111111111111,3.10526315789474,ReadingArea_rsl0-rcl11-esl100-rsm0-rcm69-esm100-rsr0-rcr11-esr310,exr/ReadingArea_rsl0-rcl11-esl100-rsm0-rcm69-esm100-rsr0-rcr11-esr310.exr,ReadingArea_rsl0-rcl11-esl100-rsm0-rcm69-esm100-rsr0-rcr11-esr310.npz,,,,,0,174,174,446,,right,red,4.46,1458.5448400974274,1459.0369639396667,,,3,,4,6,lightness,readingArea,realistic,75,2023-03-24_10h55.16.258,tripletExp_regina_11082022,2022.2.4,120.86460629637634,
1,5,14,0,0.111111111111111,0.298245614035088,0,1.0,0.298245614035088,0,0.25,3.10526315789474,ReadingArea_rsl0-rcl11-esl29-rsm0-rcm100-esm29-rsr0-rcr25-esr310,exr/ReadingArea_rsl0-rcl11-esl29-rsm0-rcm100-esm29-rsr0-rcr25-esr310.exr,ReadingArea_rsl0-rcl11-esl29-rsm0-rcm100-esm29-rsr0-rcr25-esr310.npz,,,,,0,175,175,191,,right,red,3.31,1462.5136859416962,1462.9849829673767,,,3,,4,6,lightness,readingArea,realistic,75,2023-03-24_10h55.16.258,tripletExp_regina_11082022,2022.2.4,120.86460629637634,
3,1,6,0,0.444444444444444,0.298245614035088,0,0.111111111111111,0.298245614035088,0,0.027777777777778,1.0,ReadingArea_rsl0-rcl44-esl29-rsm0-rcm11-esm29-rsr0-rcr2-esr100,exr/ReadingArea_rsl0-rcl44-esl29-rsm0-rcm11-esm29-rsr0-rcr2-esr100.exr,ReadingArea_rsl0-rcl44-esl29-rsm0-rcm11-esm29-rsr0-rcr2-esr100.npz,,,,,0,176,176,464,,right,red,4.3,1468.1822609901428,1468.655436038971,,,3,,4,6,lightness,readingArea,realistic,75,2023-03-24_10h55.16.258,tripletExp_regina_11082022,2022.2.4,120.86460629637634,
1,13,7,0,0.111111111111111,0.298245614035088,0,0.111111111111111,3.10526315789474,0,0.111111111111111,1.0,ReadingArea_rsl0-rcl11-esl29-rsm0-rcm11-esm310-rsr0-rcr11-esr100,exr/ReadingArea_rsl0-rcl11-esl29-rsm0-rcm11-esm310-rsr0-rcr11-esr100.exr,ReadingArea_rsl0-rcl11-esl29-rsm0-rcm11-esm310-rsr0-rcr11-esr100.npz,,,,,0,177,177,158,,right,red,3.85,1473.900503158569,,,,3,,4,6,lightness,readingArea,realistic,75,2023-03-24_10h55.16.258,tripletExp_regina_11082022,2022.2.4,120.86460629637634,
6,7,3,0,0.027777777777778,1.0,0,0.111111111111111,1.0,0,0.444444444444444,0.298245614035088,ReadingArea_rsl0-rcl2-esl100-rsm0-rcm11-esm100-rsr0-rcr44-esr29,exr/ReadingArea_rsl0-rcl2-esl100-rsm0-rcm11-esm100-rsr0-rcr44-esr29.exr,ReadingArea_rsl0-rcl2-esl100-rsm0-rcm11-esm100-rsr0-rcr44-esr29.npz,,,,,0,178,178,47,,right,red,2.93,1477.830274105072,1478.2857601642609,,,3,,4,6,lightness,readingArea,realistic,75,2023-03-24_10h55.16.258,tripletExp_regina_11082022,2022.2.4,120.86460629637634,
10,11,5,0,0.694444444444444,1.0,0,1.0,1.0,0,1.0,0.298245614035088,ReadingArea_rsl0-rcl69-esl100-rsm0-rcm100-esm100-rsr0-rcr100-esr29,exr/ReadingArea_rsl0-rcl69-esl100-rsm0-rcm100-esm100-rsr0-rcr100-esr29.exr,ReadingArea_rsl0-rcl69-esl100-rsm0-rcm100-esm100-rsr0-rcr100-esr29.npz,,,,,0,179,179,514,,left,green,3.83,1483.5338549613953,1484.002455949783,,,3,,4,6,lightness,readingArea,realistic,75,2023-03-24_10h55.16.258,tripletExp_regina_11082022,2022.2.4,120.86460629637634,
2,14,8,0,0.25,0.298245614035088,0,0.25,3.10526315789474,0,0.25,1.0,ReadingArea_rsl0-rcl25-esl29-rsm0-rcm25-esm310-rsr0-rcr25-esr100,exr/ReadingArea_rsl0-rcl25-esl29-rsm0-rcm25-esm310-rsr0-rcr25-esr100.exr,ReadingArea_rsl0-rcl25-esl29-rsm0-rcm25-esm310-rsr0-rcr25-esr100.npz,,,,,0,180,180,255,,right,red,2.39,1487.460366010666,1487.9058051109314,,,3,,4,6,lightness,readingArea,realistic,75,2023-03-24_10h55.16.258,tripletExp_regina_11082022,2022.2.4,120.86460629637634,
11,0,6,0,1.0,1.0,0,0.027777777777778,0.298245614035088,0,0.027777777777778,1.0,ReadingArea_rsl0-rcl100-esl100-rsm0-rcm2-esm29-rsr0-rcr2-esr100,exr/ReadingArea_rsl0-rcl100-esl100-rsm0-rcm2-esm29-rsr0-rcr2-esr100.exr,ReadingArea_rsl0-rcl100-esl100-rsm0-rcm2-esm29-rsr0-rcr2-esr100.npz,,,,,0,181,181,586,,right,red,2.3,1491.3613820075989,,,,3,,4,6,lightness,readingArea,realistic,75,2023-03-24_10h55.16.258,tripletExp_regina_11082022,2022.2.4,120.86460629637634,
3,4,13,0,0.444444444444444,0.298245614035088,0,0.694444444444444,0.298245614035088,0,0.111111111111111,3.10526315789474,ReadingArea_rsl0-rcl44-esl29-rsm0-rcm69-esm29-rsr0-rcr11-esr310,exr/ReadingArea_rsl0-rcl44-esl29-rsm0-rcm69-esm29-rsr0-rcr11-esr310.exr,ReadingArea_rsl0-rcl44-esl29-rsm0-rcm69-esm29-rsr0-rcr11-esr310.npz,,,,,0,182,182,63,,right,red,3.32,1495.2981481552124,1495.84671998024,,,3,,4,6,lightness,readingArea,realistic,75,2023-03-24_10h55.16.258,tripletExp_regina_11082022,2022.2.4,120.86460629637634,
4,10,6,0,0.694444444444444,0.298245614035088,0,0.694444444444444,1.0,0,0.027777777777778,1.0,ReadingArea_rsl0-rcl69-esl29-rsm0-rcm69-esm100-rsr0-rcr2-esr100,exr/ReadingArea_rsl0-rcl69-esl29-rsm0-rcm69-esm100-rsr0-rcr2-esr100.exr,ReadingArea_rsl0-rcl69-esl29-rsm0-rcm69-esm100-rsr0-rcr2-esr100.npz,,,,,0,183,183,468,,left,green,2.96,1499.3046641349792,,,,3,,4,6,lightness,readingArea,realistic,75,2023-03-24_10h55.16.258,tripletExp_regina_11082022,2022.2.4,120.86460629637634,
9,11,2,0,0.444444444444444,1.0,0,1.0,1.0,0,0.25,0.298245614035088,ReadingArea_rsl0-rcl44-esl100-rsm0-rcm100-esm100-rsr0-rcr25-esr29,exr/ReadingArea_rsl0-rcl44-esl100-rsm0-rcm100-esm100-rsr0-rcr25-esr29.exr,ReadingArea_rsl0-rcl44-esl100-rsm0-rcm100-esm100-rsr0-rcr25-esr29.npz,,,,,0,184,184,329,,left,green,2.36,1503.2319450378418,1503.6911799907684,,,3,,4,6,lightness,readingArea,realistic,75,2023-03-24_10h55.16.258,tripletExp_regina_11082022,2022.2.4,120.86460629637634,
11,2,4,0,1.0,1.0,0,0.25,0.298245614035088,0,0.694444444444444,0.298245614035088,ReadingArea_rsl0-rcl100-esl100-rsm0-rcm25-esm29-rsr0-rcr69-esr29,exr/ReadingArea_rsl0-rcl100-esl100-rsm0-rcm25-esm29-rsr0-rcr69-esr29.exr,ReadingArea_rsl0-rcl100-esl100-rsm0-rcm25-esm29-rsr0-rcr69-esr29.npz,,,,,0,185,185,359,,right,red,2.1,1507.1694359779358,1507.6355290412905,,,3,,4,6,lightness,readingArea,realistic,75,2023-03-24_10h55.16.258,tripletExp_regina_11082022,2022.2.4,120.86460629637634,
12,3,10,0,0.027777777777778,3.10526315789474,0,0.444444444444444,0.298245614035088,0,0.694444444444444,1.0,ReadingArea_rsl0-rcl2-esl310-rsm0-rcm44-esm29-rsr0-rcr69-esr100,exr/ReadingArea_rsl0-rcl2-esl310-rsm0-rcm44-esm29-rsr0-rcr69-esr100.exr,ReadingArea_rsl0-rcl2-esl310-rsm0-rcm44-esm29-rsr0-rcr69-esr100.npz,,,,,0,186,186,437,,left,green,3.08,1511.0983109474182,,,,3,,4,6,lightness,readingArea,realistic,75,2023-03-24_10h55.16.258,tripletExp_regina_11082022,2022.2.4,120.86460629637634,
7,10,4,0,0.111111111111111,1.0,0,0.694444444444444,1.0,0,0.694444444444444,0.298245614035088,ReadingArea_rsl0-rcl11-esl100-rsm0-rcm69-esm100-rsr0-rcr69-esr29,exr/ReadingArea_rsl0-rcl11-esl100-rsm0-rcm69-esm100-rsr0-rcr69-esr29.exr,ReadingArea_rsl0-rcl11-esl100-rsm0-rcm69-esm100-rsr0-rcr69-esr29.npz,,,,,0,187,187,46,,right,red,2.15,1515.018424987793,1515.488804101944,,,3,,4,6,lightness,readingArea,realistic,75,2023-03-24_10h55.16.258,tripletExp_regina_11082022,2022.2.4,120.86460629637634,
0,14,8,0,0.027777777777778,0.298245614035088,0,0.25,3.10526315789474,0,0.25,1.0,ReadingArea_rsl0-rcl2-esl29-rsm0-rcm25-esm310-rsr0-rcr25-esr100,exr/ReadingArea_rsl0-rcl2-esl29-rsm0-rcm25-esm310-rsr0-rcr25-esr100.exr,ReadingArea_rsl0-rcl2-esl29-rsm0-rcm25-esm310-rsr0-rcr25-esr100.npz,,,,,0,188,188,545,,right,red,3.05,1518.951737165451,1519.418701171875,,,3,,4,6,lightness,readingArea,realistic,75,2023-03-24_10h55.16.258,tripletExp_regina_11082022,2022.2.4,120.86460629637634,
8,4,2,0,0.25,1.0,0,0.694444444444444,0.298245614035088,0,0.25,0.298245614035088,ReadingArea_rsl0-rcl25-esl100-rsm0-rcm69-esm29-rsr0-rcr25-esr29,exr/ReadingArea_rsl0-rcl25-esl100-rsm0-rcm69-esm29-rsr0-rcr25-esr29.exr,ReadingArea_rsl0-rcl25-esl100-rsm0-rcm69-esm29-rsr0-rcr25-esr29.npz,,,,,0,189,189,184,,left,green,1.96,1522.904823064804,1523.3792550563812,,,3,,4,6,lightness,readingArea,realistic,75,2023-03-24_10h55.16.258,tripletExp_regina_11082022,2022.2.4,120.86460629637634,
7,12,1,0,0.111111111111111,1.0,0,0.027777777777778,3.10526315789474,0,0.111111111111111,0.298245614035088,ReadingArea_rsl0-rcl11-esl100-rsm0-rcm2-esm310-rsr0-rcr11-esr29,exr/ReadingArea_rsl0-rcl11-esl100-rsm0-rcm2-esm310-rsr0-rcr11-esr29.exr,ReadingArea_rsl0-rcl11-esl100-rsm0-rcm2-esm310-rsr0-rcr11-esr29.npz,,,,,0,190,190,20,,right,red,3.44,1526.8610470294952,1527.3348059654236,,,3,,4,6,lightness,readingArea,realistic,75,2023-03-24_10h55.16.258,tripletExp_regina_11082022,2022.2.4,120.86460629637634,
13,14,7,0,0.111111111111111,3.10526315789474,0,0.25,3.10526315789474,0,0.111111111111111,1.0,ReadingArea_rsl0-rcl11-esl310-rsm0-rcm25-esm310-rsr0-rcr11-esr100,exr/ReadingArea_rsl0-rcl11-esl310-rsm0-rcm25-esm310-rsr0-rcr11-esr100.exr,ReadingArea_rsl0-rcl11-esl310-rsm0-rcm25-esm310-rsr0-rcr11-esr100.npz,,,,,0,191,191,324,,left,green,2.54,1530.829689025879,1531.313439130783,,,3,,4,6,lightness,readingArea,realistic,75,2023-03-24_10h55.16.258,tripletExp_regina_11082022,2022.2.4,120.86460629637634,
3,7,9,0,0.444444444444444,0.298245614035088,0,0.111111111111111,1.0,0,0.444444444444444,1.0,ReadingArea_rsl0-rcl44-esl29-rsm0-rcm11-esm100-rsr0-rcr44-esr100,exr/ReadingArea_rsl0-rcl44-esl29-rsm0-rcm11-esm100-rsr0-rcr44-esr100.exr,ReadingArea_rsl0-rcl44-esl29-rsm0-rcm11-esm100-rsr0-rcr44-esr100.npz,,,,,0,192,192,382,,left,green,2.12,1534.7702021598816,1535.254627943039,,,3,,4,6,lightness,readingArea,realistic,75,2023-03-24_10h55.16.258,tripletExp_regina_11082022,2022.2.4,120.86460629637634,
5,9,10,0,1.0,0.298245614035088,0,0.444444444444444,1.0,0,0.694444444444444,1.0,ReadingArea_rsl0-rcl100-esl29-rsm0-rcm44-esm100-rsr0-rcr69-esr100,exr/ReadingArea_rsl0-rcl100-esl29-rsm0-rcm44-esm100-rsr0-rcr69-esr100.exr,ReadingArea_rsl0-rcl100-esl29-rsm0-rcm44-esm100-rsr0-rcr69-esr100.npz,,,,,0,193,193,322,,left,green,2.06,1538.711126089096,,,,3,,4,6,lightness,readingArea,realistic,75,2023-03-24_10h55.16.258,tripletExp_regina_11082022,2022.2.4,120.86460629637634,
12,11,13,0,0.027777777777778,3.10526315789474,0,1.0,1.0,0,0.111111111111111,3.10526315789474,ReadingArea_rsl0-rcl2-esl310-rsm0-rcm100-esm100-rsr0-rcr11-esr310,exr/ReadingArea_rsl0-rcl2-esl310-rsm0-rcm100-esm100-rsr0-rcr11-esr310.exr,ReadingArea_rsl0-rcl2-esl310-rsm0-rcm100-esm100-rsr0-rcr11-esr310.npz,,,,,0,194,194,151,,right,red,2.32,1542.6504890918732,1543.128700017929,,,3,,4,6,lightness,readingArea,realistic,75,2023-03-24_10h55.16.258,tripletExp_regina_11082022,2022.2.4,120.86460629637634,
2,5,0,0,0.25,0.298245614035088,0,1.0,0.298245614035088,0,0.027777777777778,0.298245614035088,ReadingArea_rsl0-rcl25-esl29-rsm0-rcm100-esm29-rsr0-rcr2-esr29,exr/ReadingArea_rsl0-rcl25-esl29-rsm0-rcm100-esm29-rsr0-rcr2-esr29.exr,ReadingArea_rsl0-rcl25-esl29-rsm0-rcm100-esm29-rsr0-rcr2-esr29.npz,,,,,0,195,195,414,,left,green,2.11,1546.5928881168363,1547.0509071350098,,,3,,4,6,lightness,readingArea,realistic,75,2023-03-24_10h55.16.258,tripletExp_regina_11082022,2022.2.4,120.86460629637634,
6,12,3,0,0.027777777777778,1.0,0,0.027777777777778,3.10526315789474,0,0.444444444444444,0.298245614035088,ReadingArea_rsl0-rcl2-esl100-rsm0-rcm2-esm310-rsr0-rcr44-esr29,exr/ReadingArea_rsl0-rcl2-esl100-rsm0-rcm2-esm310-rsr0-rcr44-esr29.exr,ReadingArea_rsl0-rcl2-esl100-rsm0-rcm2-esm310-rsr0-rcr44-esr29.npz,,,,,0,196,196,284,,right,red,3.85,1552.2845981121063,1552.7556710243225,,,3,,4,6,lightness,readingArea,realistic,75,2023-03-24_10h55.16.258,tripletExp_regina_11082022,2022.2.4,120.86460629637634,
10,6,13,0,0.694444444444444,1.0,0,0.027777777777778,1.0,0,0.111111111111111,3.10526315789474,ReadingArea_rsl0-rcl69-esl100-rsm0-rcm2-esm100-rsr0-rcr11-esr310,exr/ReadingArea_rsl0-rcl69-esl100-rsm0-rcm2-esm100-rsr0-rcr11-esr310.exr,ReadingArea_rsl0-rcl69-esl100-rsm0-rcm2-esm100-rsr0-rcr11-esr310.npz,,,,,0,197,197,41,,right,red,3.49,1556.2380430698397,1556.7022440433502,,,3,,4,6,lightness,readingArea,realistic,75,2023-03-24_10h55.16.258,tripletExp_regina_11082022,2022.2.4,120.86460629637634,
3,13,10,0,0.444444444444444,0.298245614035088,0,0.111111111111111,3.10526315789474,0,0.694444444444444,1.0,ReadingArea_rsl0-rcl44-esl29-rsm0-rcm11-esm310-rsr0-rcr69-esr100,exr/ReadingArea_rsl0-rcl44-esl29-rsm0-rcm11-esm310-rsr0-rcr69-esr100.exr,ReadingArea_rsl0-rcl44-esl29-rsm0-rcm11-esm310-rsr0-rcr69-esr100.npz,,,,,0,198,198,416,,left,green,4.22,1561.9714889526367,1562.452542066574,,,3,,4,6,lightness,readingArea,realistic,75,2023-03-24_10h55.16.258,tripletExp_regina_11082022,2022.2.4,120.86460629637634,
8,9,2,0,0.25,1.0,0,0.444444444444444,1.0,0,0.25,0.298245614035088,ReadingArea_rsl0-rcl25-esl100-rsm0-rcm44-esm100-rsr0-rcr25-esr29,exr/ReadingArea_rsl0-rcl25-esl100-rsm0-rcm44-esm100-rsr0-rcr25-esr29.exr,ReadingArea_rsl0-rcl25-esl100-rsm0-rcm44-esm100-rsr0-rcr25-esr29.npz,,,,,0,199,199,559,,left,green,2.71,1565.936439037323,1566.3921840190887,,,3,,4,6,lightness,readingArea,realistic,75,2023-03-24_10h55.16.258,tripletExp_regina_11082022,2022.2.4,120.86460629637634,
9,13,5,0,0.444444444444444,1.0,0,0.111111111111111,3.10526315789474,0,1.0,0.298245614035088,ReadingArea_rsl0-rcl44-esl100-rsm0-rcm11-esm310-rsr0-rcr100-esr29,exr/ReadingArea_rsl0-rcl44-esl100-rsm0-rcm11-esm310-rsr0-rcr100-esr29.exr,ReadingArea_rsl0-rcl44-esl100-rsm0-rcm11-esm310-rsr0-rcr100-esr29.npz,,,,,0,200,200,349,,right,red,2.27,1569.8526380062103,1570.3289551734924,,,3,,4,6,lightness,readingArea,realistic,75,2023-03-24_10h55.16.258,tripletExp_regina_11082022,2022.2.4,120.86460629637634,
12,7,9,0,0.027777777777778,3.10526315789474,0,0.111111111111111,1.0,0,0.444444444444444,1.0,ReadingArea_rsl0-rcl2-esl310-rsm0-rcm11-esm100-rsr0-rcr44-esr100,exr/ReadingArea_rsl0-rcl2-esl310-rsm0-rcm11-esm100-rsr0-rcr44-esr100.exr,ReadingArea_rsl0-rcl2-esl310-rsm0-rcm11-esm100-rsr0-rcr44-esr100.npz,,,,,0,201,201,124,,left,green,3.02,1573.7953519821167,1574.2609369754791,,,3,,4,6,lightness,readingArea,realistic,75,2023-03-24_10h55.16.258,tripletExp_regina_11082022,2022.2.4,120.86460629637634,
1,12,6,0,0.111111111111111,0.298245614035088,0,0.027777777777778,3.10526315789474,0,0.027777777777778,1.0,ReadingArea_rsl0-rcl11-esl29-rsm0-rcm2-esm310-rsr0-rcr2-esr100,exr/ReadingArea_rsl0-rcl11-esl29-rsm0-rcm2-esm310-rsr0-rcr2-esr100.exr,ReadingArea_rsl0-rcl11-esl29-rsm0-rcm2-esm310-rsr0-rcr2-esr100.npz,,,,,0,202,202,277,,left,green,3.05,1577.747197151184,1578.209575176239,,,3,,4,6,lightness,readingArea,realistic,75,2023-03-24_10h55.16.258,tripletExp_regina_11082022,2022.2.4,120.86460629637634,
