index_left,index_middle,index_right,reflectance_surround_left,reflectance_center_left,emission_spot_left,reflectance_surround_middle,reflectance_center_middle,emission_spot_middle,reflectance_surround_right,reflectance_center_right,emission_spot_right,ImageName,ImageExr,ImageNpy,trials_2.thisRepN,trials_2.thisTrialN,trials_2.thisN,trials_2.thisIndex,trials.thisRepN,trials.thisTrialN,trials.thisN,trials.thisIndex,sound_1.started,BB_Trial.resp,BB_Trial.color,BB_Trial.rt,text.started,text.stopped,block,sound_4.started,participant,session,L/B,scene,condition,nTrialsPerBlock,date,expName,psychopyVersion,frameRate,Unnamed: 41
4,3,1,2,0.694444444444444,0.298245614035088,2,0.444444444444444,0.298245614035088,2,0.111111111111111,0.298245614035088,ReadingArea_rsl2-rcl69-esl29-rsm2-rcm44-esm29-rsr2-rcr11-esr29,exr/ReadingArea_rsl2-rcl69-esl29-rsm2-rcm44-esm29-rsr2-rcr11-esr29.exr,ReadingArea_rsl2-rcl69-esl29-rsm2-rcm44-esm29-rsr2-rcr11-esr29.npz,,,,,0,0,0,60,275.8543512821197,left,green,0.78,284.9836950302124,277.0725519657135,1,,3,4,brightness,readingArea,realistic,75,2023-03-17_15h19.17.333,tripletExp_regina_11082022,2022.2.4,119.67313398767403,
12,3,13,2,0.027777777777778,3.10526315789474,2,0.444444444444444,0.298245614035088,2,0.111111111111111,3.10526315789474,ReadingArea_rsl2-rcl2-esl310-rsm2-rcm44-esm29-rsr2-rcr11-esr310,exr/ReadingArea_rsl2-rcl2-esl310-rsm2-rcm44-esm29-rsr2-rcr11-esr310.exr,ReadingArea_rsl2-rcl2-esl310-rsm2-rcm44-esm29-rsr2-rcr11-esr310.npz,,,,,0,1,1,383,,left,green,3.26,288.7834129333496,289.15687894821167,1,,3,4,brightness,readingArea,realistic,75,2023-03-17_15h19.17.333,tripletExp_regina_11082022,2022.2.4,119.67313398767403,
4,9,13,2,0.694444444444444,0.298245614035088,2,0.444444444444444,1.0,2,0.111111111111111,3.10526315789474,ReadingArea_rsl2-rcl69-esl29-rsm2-rcm44-esm100-rsr2-rcr11-esr310,exr/ReadingArea_rsl2-rcl69-esl29-rsm2-rcm44-esm100-rsr2-rcr11-esr310.exr,ReadingArea_rsl2-rcl69-esl29-rsm2-rcm44-esm100-rsr2-rcr11-esr310.npz,,,,,0,2,2,488,,right,red,1.0,290.8436269760132,291.1761989593506,1,,3,4,brightness,readingArea,realistic,75,2023-03-17_15h19.17.333,tripletExp_regina_11082022,2022.2.4,119.67313398767403,
9,11,13,2,0.444444444444444,1.0,2,1.0,1.0,2,0.111111111111111,3.10526315789474,ReadingArea_rsl2-rcl44-esl100-rsm2-rcm100-esm100-rsr2-rcr11-esr310,exr/ReadingArea_rsl2-rcl44-esl100-rsm2-rcm100-esm100-rsr2-rcr11-esr310.exr,ReadingArea_rsl2-rcl44-esl100-rsm2-rcm100-esm100-rsr2-rcr11-esr310.npz,,,,,0,3,3,254,,left,green,1.46,292.9010879993439,,1,,3,4,brightness,readingArea,realistic,75,2023-03-17_15h19.17.333,tripletExp_regina_11082022,2022.2.4,119.67313398767403,
13,0,4,2,0.111111111111111,3.10526315789474,2,0.027777777777778,0.298245614035088,2,0.694444444444444,0.298245614035088,ReadingArea_rsl2-rcl11-esl310-rsm2-rcm2-esm29-rsr2-rcr69-esr29,exr/ReadingArea_rsl2-rcl11-esl310-rsm2-rcm2-esm29-rsr2-rcr69-esr29.exr,ReadingArea_rsl2-rcl11-esl310-rsm2-rcm2-esm29-rsr2-rcr69-esr29.npz,,,,,0,4,4,270,,right,red,3.12,296.71017599105835,,1,,3,4,brightness,readingArea,realistic,75,2023-03-17_15h19.17.333,tripletExp_regina_11082022,2022.2.4,119.67313398767403,
6,11,14,2,0.027777777777778,1.0,2,1.0,1.0,2,0.25,3.10526315789474,ReadingArea_rsl2-rcl2-esl100-rsm2-rcm100-esm100-rsr2-rcr25-esr310,exr/ReadingArea_rsl2-rcl2-esl100-rsm2-rcm100-esm100-rsr2-rcr25-esr310.exr,ReadingArea_rsl2-rcl2-esl100-rsm2-rcm100-esm100-rsr2-rcr25-esr310.npz,,,,,0,5,5,262,,right,red,0.9,298.7649221420288,299.0951211452484,1,,3,4,brightness,readingArea,realistic,75,2023-03-17_15h19.17.333,tripletExp_regina_11082022,2022.2.4,119.67313398767403,
14,6,13,2,0.25,3.10526315789474,2,0.027777777777778,1.0,2,0.111111111111111,3.10526315789474,ReadingArea_rsl2-rcl25-esl310-rsm2-rcm2-esm100-rsr2-rcr11-esr310,exr/ReadingArea_rsl2-rcl25-esl310-rsm2-rcm2-esm100-rsr2-rcr11-esr310.exr,ReadingArea_rsl2-rcl25-esl310-rsm2-rcm2-esm100-rsr2-rcr11-esr310.npz,,,,,0,6,6,91,,right,red,4.22,304.37644600868225,304.7587249279022,1,,3,4,brightness,readingArea,realistic,75,2023-03-17_15h19.17.333,tripletExp_regina_11082022,2022.2.4,119.67313398767403,
6,3,13,2,0.027777777777778,1.0,2,0.444444444444444,0.298245614035088,2,0.111111111111111,3.10526315789474,ReadingArea_rsl2-rcl2-esl100-rsm2-rcm44-esm29-rsr2-rcr11-esr310,exr/ReadingArea_rsl2-rcl2-esl100-rsm2-rcm44-esm29-rsr2-rcr11-esr310.exr,ReadingArea_rsl2-rcl2-esl100-rsm2-rcm44-esm29-rsr2-rcr11-esr310.npz,,,,,0,7,7,228,,right,red,1.29,306.4395489692688,306.7718131542206,1,,3,4,brightness,readingArea,realistic,75,2023-03-17_15h19.17.333,tripletExp_regina_11082022,2022.2.4,119.67313398767403,
14,13,2,2,0.25,3.10526315789474,2,0.111111111111111,3.10526315789474,2,0.25,0.298245614035088,ReadingArea_rsl2-rcl25-esl310-rsm2-rcm11-esm310-rsr2-rcr25-esr29,exr/ReadingArea_rsl2-rcl25-esl310-rsm2-rcm11-esm310-rsr2-rcr25-esr29.exr,ReadingArea_rsl2-rcl25-esl310-rsm2-rcm11-esm310-rsr2-rcr25-esr29.npz,,,,,0,8,8,377,,right,red,3.34,310.2411119937897,310.5744831562042,1,,3,4,brightness,readingArea,realistic,75,2023-03-17_15h19.17.333,tripletExp_regina_11082022,2022.2.4,119.67313398767403,
10,5,1,2,0.694444444444444,1.0,2,1.0,0.298245614035088,2,0.111111111111111,0.298245614035088,ReadingArea_rsl2-rcl69-esl100-rsm2-rcm100-esm29-rsr2-rcr11-esr29,exr/ReadingArea_rsl2-rcl69-esl100-rsm2-rcm100-esm29-rsr2-rcr11-esr29.exr,ReadingArea_rsl2-rcl69-esl100-rsm2-rcm100-esm29-rsr2-rcr11-esr29.npz,,,,,0,9,9,152,,left,green,1.48,312.2868220806122,312.61308908462524,1,,3,4,brightness,readingArea,realistic,75,2023-03-17_15h19.17.333,tripletExp_regina_11082022,2022.2.4,119.67313398767403,
11,12,4,2,1.0,1.0,2,0.027777777777778,3.10526315789474,2,0.694444444444444,0.298245614035088,ReadingArea_rsl2-rcl100-esl100-rsm2-rcm2-esm310-rsr2-rcr69-esr29,exr/ReadingArea_rsl2-rcl100-esl100-rsm2-rcm2-esm310-rsr2-rcr69-esr29.exr,ReadingArea_rsl2-rcl100-esl100-rsm2-rcm2-esm310-rsr2-rcr69-esr29.npz,,,,,0,10,10,250,,right,red,2.99,316.1146330833435,,1,,3,4,brightness,readingArea,realistic,75,2023-03-17_15h19.17.333,tripletExp_regina_11082022,2022.2.4,119.67313398767403,
6,1,14,2,0.027777777777778,1.0,2,0.111111111111111,0.298245614035088,2,0.25,3.10526315789474,ReadingArea_rsl2-rcl2-esl100-rsm2-rcm11-esm29-rsr2-rcr25-esr310,exr/ReadingArea_rsl2-rcl2-esl100-rsm2-rcm11-esm29-rsr2-rcr25-esr310.exr,ReadingArea_rsl2-rcl2-esl100-rsm2-rcm11-esm29-rsr2-rcr25-esr310.npz,,,,,0,11,11,381,,left,green,1.1,318.1797800064087,,1,,3,4,brightness,readingArea,realistic,75,2023-03-17_15h19.17.333,tripletExp_regina_11082022,2022.2.4,119.67313398767403,
2,6,13,2,0.25,0.298245614035088,2,0.027777777777778,1.0,2,0.111111111111111,3.10526315789474,ReadingArea_rsl2-rcl25-esl29-rsm2-rcm2-esm100-rsr2-rcr11-esr310,exr/ReadingArea_rsl2-rcl25-esl29-rsm2-rcm2-esm100-rsr2-rcr11-esr310.exr,ReadingArea_rsl2-rcl25-esl29-rsm2-rcm2-esm100-rsr2-rcr11-esr310.npz,,,,,0,12,12,388,,left,green,0.81,320.20852494239807,320.5619010925293,1,,3,4,brightness,readingArea,realistic,75,2023-03-17_15h19.17.333,tripletExp_regina_11082022,2022.2.4,119.67313398767403,
8,4,2,2,0.25,1.0,2,0.694444444444444,0.298245614035088,2,0.25,0.298245614035088,ReadingArea_rsl2-rcl25-esl100-rsm2-rcm69-esm29-rsr2-rcr25-esr29,exr/ReadingArea_rsl2-rcl25-esl100-rsm2-rcm69-esm29-rsr2-rcr25-esr29.exr,ReadingArea_rsl2-rcl25-esl100-rsm2-rcm69-esm29-rsr2-rcr25-esr29.npz,,,,,0,13,13,184,,left,green,1.34,322.25173592567444,322.5820851325989,1,,3,4,brightness,readingArea,realistic,75,2023-03-17_15h19.17.333,tripletExp_regina_11082022,2022.2.4,119.67313398767403,
7,8,6,2,0.111111111111111,1.0,2,0.25,1.0,2,0.027777777777778,1.0,ReadingArea_rsl2-rcl11-esl100-rsm2-rcm25-esm100-rsr2-rcr2-esr100,exr/ReadingArea_rsl2-rcl11-esl100-rsm2-rcm25-esm100-rsr2-rcr2-esr100.exr,ReadingArea_rsl2-rcl11-esl100-rsm2-rcm25-esm100-rsr2-rcr2-esr100.npz,,,,,0,14,14,387,,left,green,1.2,324.2985589504242,324.6347680091858,1,,3,4,brightness,readingArea,realistic,75,2023-03-17_15h19.17.333,tripletExp_regina_11082022,2022.2.4,119.67313398767403,
4,7,1,2,0.694444444444444,0.298245614035088,2,0.111111111111111,1.0,2,0.111111111111111,0.298245614035088,ReadingArea_rsl2-rcl69-esl29-rsm2-rcm11-esm100-rsr2-rcr11-esr29,exr/ReadingArea_rsl2-rcl69-esl29-rsm2-rcm11-esm100-rsr2-rcr11-esr29.exr,ReadingArea_rsl2-rcl69-esl29-rsm2-rcm11-esm100-rsr2-rcr11-esr29.npz,,,,,0,15,15,33,,left,green,3.89,329.88274693489075,330.219260931015,1,,3,4,brightness,readingArea,realistic,75,2023-03-17_15h19.17.333,tripletExp_regina_11082022,2022.2.4,119.67313398767403,
2,4,13,2,0.25,0.298245614035088,2,0.694444444444444,0.298245614035088,2,0.111111111111111,3.10526315789474,ReadingArea_rsl2-rcl25-esl29-rsm2-rcm69-esm29-rsr2-rcr11-esr310,exr/ReadingArea_rsl2-rcl25-esl29-rsm2-rcm69-esm29-rsr2-rcr11-esr310.exr,ReadingArea_rsl2-rcl25-esl29-rsm2-rcm69-esm29-rsr2-rcr11-esr310.npz,,,,,0,16,16,325,,right,red,1.27,331.90773010253906,332.24236011505127,1,,3,4,brightness,readingArea,realistic,75,2023-03-17_15h19.17.333,tripletExp_regina_11082022,2022.2.4,119.67313398767403,
3,13,1,2,0.444444444444444,0.298245614035088,2,0.111111111111111,3.10526315789474,2,0.111111111111111,0.298245614035088,ReadingArea_rsl2-rcl44-esl29-rsm2-rcm11-esm310-rsr2-rcr11-esr29,exr/ReadingArea_rsl2-rcl44-esl29-rsm2-rcm11-esm310-rsr2-rcr11-esr29.exr,ReadingArea_rsl2-rcl44-esl29-rsm2-rcm11-esm310-rsr2-rcr11-esr29.npz,,,,,0,17,17,421,,left,green,1.34,333.93244099617004,,1,,3,4,brightness,readingArea,realistic,75,2023-03-17_15h19.17.333,tripletExp_regina_11082022,2022.2.4,119.67313398767403,
14,0,5,2,0.25,3.10526315789474,2,0.027777777777778,0.298245614035088,2,1.0,0.298245614035088,ReadingArea_rsl2-rcl25-esl310-rsm2-rcm2-esm29-rsr2-rcr100-esr29,exr/ReadingArea_rsl2-rcl25-esl310-rsm2-rcm2-esm29-rsr2-rcr100-esr29.exr,ReadingArea_rsl2-rcl25-esl310-rsm2-rcm2-esm29-rsr2-rcr100-esr29.npz,,,,,0,18,18,418,,right,red,2.15,337.7526750564575,338.0849461555481,1,,3,4,brightness,readingArea,realistic,75,2023-03-17_15h19.17.333,tripletExp_regina_11082022,2022.2.4,119.67313398767403,
12,6,9,2,0.027777777777778,3.10526315789474,2,0.027777777777778,1.0,2,0.444444444444444,1.0,ReadingArea_rsl2-rcl2-esl310-rsm2-rcm2-esm100-rsr2-rcr44-esr100,exr/ReadingArea_rsl2-rcl2-esl310-rsm2-rcm2-esm100-rsr2-rcr44-esr100.exr,ReadingArea_rsl2-rcl2-esl310-rsm2-rcm2-esm100-rsr2-rcr44-esr100.npz,,,,,0,19,19,177,,left,green,1.07,339.7735331058502,340.10166692733765,1,,3,4,brightness,readingArea,realistic,75,2023-03-17_15h19.17.333,tripletExp_regina_11082022,2022.2.4,119.67313398767403,
1,2,12,2,0.111111111111111,0.298245614035088,2,0.25,0.298245614035088,2,0.027777777777778,3.10526315789474,ReadingArea_rsl2-rcl11-esl29-rsm2-rcm25-esm29-rsr2-rcr2-esr310,exr/ReadingArea_rsl2-rcl11-esl29-rsm2-rcm25-esm29-rsr2-rcr2-esr310.exr,ReadingArea_rsl2-rcl11-esl29-rsm2-rcm25-esm29-rsr2-rcr2-esr310.npz,,,,,0,20,20,229,,right,red,2.56,343.565320968628,343.89829897880554,1,,3,4,brightness,readingArea,realistic,75,2023-03-17_15h19.17.333,tripletExp_regina_11082022,2022.2.4,119.67313398767403,
14,8,5,2,0.25,3.10526315789474,2,0.25,1.0,2,1.0,0.298245614035088,ReadingArea_rsl2-rcl25-esl310-rsm2-rcm25-esm100-rsr2-rcr100-esr29,exr/ReadingArea_rsl2-rcl25-esl310-rsm2-rcm25-esm100-rsr2-rcr100-esr29.exr,ReadingArea_rsl2-rcl25-esl310-rsm2-rcm25-esm100-rsr2-rcr100-esr29.npz,,,,,0,21,21,28,,right,red,0.95,345.62067794799805,345.9546859264374,1,,3,4,brightness,readingArea,realistic,75,2023-03-17_15h19.17.333,tripletExp_regina_11082022,2022.2.4,119.67313398767403,
9,0,3,2,0.444444444444444,1.0,2,0.027777777777778,0.298245614035088,2,0.444444444444444,0.298245614035088,ReadingArea_rsl2-rcl44-esl100-rsm2-rcm2-esm29-rsr2-rcr44-esr29,exr/ReadingArea_rsl2-rcl44-esl100-rsm2-rcm2-esm29-rsr2-rcr44-esr29.exr,ReadingArea_rsl2-rcl44-esl100-rsm2-rcm2-esm29-rsr2-rcr44-esr29.npz,,,,,0,22,22,2,,right,red,1.16,347.6781630516052,348.0130250453949,1,,3,4,brightness,readingArea,realistic,75,2023-03-17_15h19.17.333,tripletExp_regina_11082022,2022.2.4,119.67313398767403,
14,8,2,2,0.25,3.10526315789474,2,0.25,1.0,2,0.25,0.298245614035088,ReadingArea_rsl2-rcl25-esl310-rsm2-rcm25-esm100-rsr2-rcr25-esr29,exr/ReadingArea_rsl2-rcl25-esl310-rsm2-rcm25-esm100-rsr2-rcr25-esr29.exr,ReadingArea_rsl2-rcl25-esl310-rsm2-rcm25-esm100-rsr2-rcr25-esr29.npz,,,,,0,23,23,251,,left,green,4.22,353.2354519367218,,1,,3,4,brightness,readingArea,realistic,75,2023-03-17_15h19.17.333,tripletExp_regina_11082022,2022.2.4,119.67313398767403,
1,13,14,2,0.111111111111111,0.298245614035088,2,0.111111111111111,3.10526315789474,2,0.25,3.10526315789474,ReadingArea_rsl2-rcl11-esl29-rsm2-rcm11-esm310-rsr2-rcr25-esr310,exr/ReadingArea_rsl2-rcl11-esl29-rsm2-rcm11-esm310-rsr2-rcr25-esr310.exr,ReadingArea_rsl2-rcl11-esl29-rsm2-rcm11-esm310-rsr2-rcr25-esr310.npz,,,,,0,24,24,183,,right,red,1.13,355.2785220146179,355.61223697662354,1,,3,4,brightness,readingArea,realistic,75,2023-03-17_15h19.17.333,tripletExp_regina_11082022,2022.2.4,119.67313398767403,
0,8,3,2,0.027777777777778,0.298245614035088,2,0.25,1.0,2,0.444444444444444,0.298245614035088,ReadingArea_rsl2-rcl2-esl29-rsm2-rcm25-esm100-rsr2-rcr44-esr29,exr/ReadingArea_rsl2-rcl2-esl29-rsm2-rcm25-esm100-rsr2-rcr44-esr29.exr,ReadingArea_rsl2-rcl2-esl29-rsm2-rcm25-esm100-rsr2-rcr44-esr29.npz,,,,,0,25,25,301,,right,red,0.74,357.3094220161438,357.6375849246979,1,,3,4,brightness,readingArea,realistic,75,2023-03-17_15h19.17.333,tripletExp_regina_11082022,2022.2.4,119.67313398767403,
9,4,11,2,0.444444444444444,1.0,2,0.694444444444444,0.298245614035088,2,1.0,1.0,ReadingArea_rsl2-rcl44-esl100-rsm2-rcm69-esm29-rsr2-rcr100-esr100,exr/ReadingArea_rsl2-rcl44-esl100-rsm2-rcm69-esm29-rsr2-rcr100-esr100.exr,ReadingArea_rsl2-rcl44-esl100-rsm2-rcm69-esm29-rsr2-rcr100-esr100.npz,,,,,0,26,26,133,,left,green,0.88,359.3611590862274,359.6892869472504,1,,3,4,brightness,readingArea,realistic,75,2023-03-17_15h19.17.333,tripletExp_regina_11082022,2022.2.4,119.67313398767403,
8,4,1,2,0.25,1.0,2,0.694444444444444,0.298245614035088,2,0.111111111111111,0.298245614035088,ReadingArea_rsl2-rcl25-esl100-rsm2-rcm69-esm29-rsr2-rcr11-esr29,exr/ReadingArea_rsl2-rcl25-esl100-rsm2-rcm69-esm29-rsr2-rcr11-esr29.exr,ReadingArea_rsl2-rcl25-esl100-rsm2-rcm69-esm29-rsr2-rcr11-esr29.npz,,,,,0,27,27,286,,left,green,0.75,361.4002530574799,361.7316131591797,1,,3,4,brightness,readingArea,realistic,75,2023-03-17_15h19.17.333,tripletExp_regina_11082022,2022.2.4,119.67313398767403,
9,12,6,2,0.444444444444444,1.0,2,0.027777777777778,3.10526315789474,2,0.027777777777778,1.0,ReadingArea_rsl2-rcl44-esl100-rsm2-rcm2-esm310-rsr2-rcr2-esr100,exr/ReadingArea_rsl2-rcl44-esl100-rsm2-rcm2-esm310-rsr2-rcr2-esr100.exr,ReadingArea_rsl2-rcl44-esl100-rsm2-rcm2-esm310-rsr2-rcr2-esr100.npz,,,,,0,28,28,5,,left,green,3.08,365.1870739459992,,1,,3,4,brightness,readingArea,realistic,75,2023-03-17_15h19.17.333,tripletExp_regina_11082022,2022.2.4,119.67313398767403,
3,11,2,2,0.444444444444444,0.298245614035088,2,1.0,1.0,2,0.25,0.298245614035088,ReadingArea_rsl2-rcl44-esl29-rsm2-rcm100-esm100-rsr2-rcr25-esr29,exr/ReadingArea_rsl2-rcl44-esl29-rsm2-rcm100-esm100-rsr2-rcr25-esr29.exr,ReadingArea_rsl2-rcl44-esl29-rsm2-rcm100-esm100-rsr2-rcr25-esr29.npz,,,,,0,29,29,220,,left,green,1.56,367.2436890602112,367.5727889537811,1,,3,4,brightness,readingArea,realistic,75,2023-03-17_15h19.17.333,tripletExp_regina_11082022,2022.2.4,119.67313398767403,
8,3,12,2,0.25,1.0,2,0.444444444444444,0.298245614035088,2,0.027777777777778,3.10526315789474,ReadingArea_rsl2-rcl25-esl100-rsm2-rcm44-esm29-rsr2-rcr2-esr310,exr/ReadingArea_rsl2-rcl25-esl100-rsm2-rcm44-esm29-rsr2-rcr2-esr310.exr,ReadingArea_rsl2-rcl25-esl100-rsm2-rcm44-esm29-rsr2-rcr2-esr310.npz,,,,,0,30,30,22,,left,green,3.04,371.0302269458771,,1,,3,4,brightness,readingArea,realistic,75,2023-03-17_15h19.17.333,tripletExp_regina_11082022,2022.2.4,119.67313398767403,
6,12,8,2,0.027777777777778,1.0,2,0.027777777777778,3.10526315789474,2,0.25,1.0,ReadingArea_rsl2-rcl2-esl100-rsm2-rcm2-esm310-rsr2-rcr25-esr100,exr/ReadingArea_rsl2-rcl2-esl100-rsm2-rcm2-esm310-rsr2-rcr25-esr100.exr,ReadingArea_rsl2-rcl2-esl100-rsm2-rcm2-esm310-rsr2-rcr25-esr100.npz,,,,,0,31,31,186,,right,red,4.54,376.6134250164032,376.9438109397888,1,,3,4,brightness,readingArea,realistic,75,2023-03-17_15h19.17.333,tripletExp_regina_11082022,2022.2.4,119.67313398767403,
12,6,3,2,0.027777777777778,3.10526315789474,2,0.027777777777778,1.0,2,0.444444444444444,0.298245614035088,ReadingArea_rsl2-rcl2-esl310-rsm2-rcm2-esm100-rsr2-rcr44-esr29,exr/ReadingArea_rsl2-rcl2-esl310-rsm2-rcm2-esm100-rsr2-rcr44-esr29.exr,ReadingArea_rsl2-rcl2-esl310-rsm2-rcm2-esm100-rsr2-rcr44-esr29.npz,,,,,0,32,32,139,,left,green,2.84,380.4167499542236,380.7521481513977,1,,3,4,brightness,readingArea,realistic,75,2023-03-17_15h19.17.333,tripletExp_regina_11082022,2022.2.4,119.67313398767403,
13,4,7,2,0.111111111111111,3.10526315789474,2,0.694444444444444,0.298245614035088,2,0.111111111111111,1.0,ReadingArea_rsl2-rcl11-esl310-rsm2-rcm69-esm29-rsr2-rcr11-esr100,exr/ReadingArea_rsl2-rcl11-esl310-rsm2-rcm69-esm29-rsr2-rcr11-esr100.exr,ReadingArea_rsl2-rcl11-esl310-rsm2-rcm69-esm29-rsr2-rcr11-esr100.npz,,,,,0,33,33,282,,left,green,1.4,382.4677181243897,382.8012411594391,1,,3,4,brightness,readingArea,realistic,75,2023-03-17_15h19.17.333,tripletExp_regina_11082022,2022.2.4,119.67313398767403,
11,9,4,2,1.0,1.0,2,0.444444444444444,1.0,2,0.694444444444444,0.298245614035088,ReadingArea_rsl2-rcl100-esl100-rsm2-rcm44-esm100-rsr2-rcr69-esr29,exr/ReadingArea_rsl2-rcl100-esl100-rsm2-rcm44-esm100-rsr2-rcr69-esr29.exr,ReadingArea_rsl2-rcl100-esl100-rsm2-rcm44-esm100-rsr2-rcr69-esr29.npz,,,,,0,34,34,26,,right,red,1.25,384.5060861110687,384.8345100879669,1,,3,4,brightness,readingArea,realistic,75,2023-03-17_15h19.17.333,tripletExp_regina_11082022,2022.2.4,119.67313398767403,
2,13,0,2,0.25,0.298245614035088,2,0.111111111111111,3.10526315789474,2,0.027777777777778,0.298245614035088,ReadingArea_rsl2-rcl25-esl29-rsm2-rcm11-esm310-rsr2-rcr2-esr29,exr/ReadingArea_rsl2-rcl25-esl29-rsm2-rcm11-esm310-rsr2-rcr2-esr29.exr,ReadingArea_rsl2-rcl25-esl29-rsm2-rcm11-esm310-rsr2-rcr2-esr29.npz,,,,,0,35,35,454,,left,green,1.13,386.5595660209656,386.8944790363312,1,,3,4,brightness,readingArea,realistic,75,2023-03-17_15h19.17.333,tripletExp_regina_11082022,2022.2.4,119.67313398767403,
7,12,1,2,0.111111111111111,1.0,2,0.027777777777778,3.10526315789474,2,0.111111111111111,0.298245614035088,ReadingArea_rsl2-rcl11-esl100-rsm2-rcm2-esm310-rsr2-rcr11-esr29,exr/ReadingArea_rsl2-rcl11-esl100-rsm2-rcm2-esm310-rsr2-rcr11-esr29.exr,ReadingArea_rsl2-rcl11-esl100-rsm2-rcm2-esm310-rsr2-rcr11-esr29.npz,,,,,0,36,36,20,,left,green,1.33,388.6094059944153,388.9459841251373,1,,3,4,brightness,readingArea,realistic,75,2023-03-17_15h19.17.333,tripletExp_regina_11082022,2022.2.4,119.67313398767403,
1,5,13,2,0.111111111111111,0.298245614035088,2,1.0,0.298245614035088,2,0.111111111111111,3.10526315789474,ReadingArea_rsl2-rcl11-esl29-rsm2-rcm100-esm29-rsr2-rcr11-esr310,exr/ReadingArea_rsl2-rcl11-esl29-rsm2-rcm100-esm29-rsr2-rcr11-esr310.exr,ReadingArea_rsl2-rcl11-esl29-rsm2-rcm100-esm29-rsr2-rcr11-esr310.npz,,,,,0,37,37,598,,right,red,0.92,390.6659820079804,,1,,3,4,brightness,readingArea,realistic,75,2023-03-17_15h19.17.333,tripletExp_regina_11082022,2022.2.4,119.67313398767403,
14,2,8,2,0.25,3.10526315789474,2,0.25,0.298245614035088,2,0.25,1.0,ReadingArea_rsl2-rcl25-esl310-rsm2-rcm25-esm29-rsr2-rcr25-esr100,exr/ReadingArea_rsl2-rcl25-esl310-rsm2-rcm25-esm29-rsr2-rcr25-esr100.exr,ReadingArea_rsl2-rcl25-esl310-rsm2-rcm25-esm29-rsr2-rcr25-esr100.npz,,,,,0,38,38,212,,right,red,2.26,394.4695711135864,394.80362701416016,1,,3,4,brightness,readingArea,realistic,75,2023-03-17_15h19.17.333,tripletExp_regina_11082022,2022.2.4,119.67313398767403,
4,8,10,2,0.694444444444444,0.298245614035088,2,0.25,1.0,2,0.694444444444444,1.0,ReadingArea_rsl2-rcl69-esl29-rsm2-rcm25-esm100-rsr2-rcr69-esr100,exr/ReadingArea_rsl2-rcl69-esl29-rsm2-rcm25-esm100-rsr2-rcr69-esr100.exr,ReadingArea_rsl2-rcl69-esl29-rsm2-rcm25-esm100-rsr2-rcr69-esr100.npz,,,,,0,39,39,221,,left,green,0.85,396.5229380130768,396.8579039573669,1,,3,4,brightness,readingArea,realistic,75,2023-03-17_15h19.17.333,tripletExp_regina_11082022,2022.2.4,119.67313398767403,
6,4,10,2,0.027777777777778,1.0,2,0.694444444444444,0.298245614035088,2,0.694444444444444,1.0,ReadingArea_rsl2-rcl2-esl100-rsm2-rcm69-esm29-rsr2-rcr69-esr100,exr/ReadingArea_rsl2-rcl2-esl100-rsm2-rcm69-esm29-rsr2-rcr69-esr100.exr,ReadingArea_rsl2-rcl2-esl100-rsm2-rcm69-esm29-rsr2-rcr69-esr100.npz,,,,,0,40,40,554,,right,red,2.76,400.3141341209412,400.6488959789276,1,,3,4,brightness,readingArea,realistic,75,2023-03-17_15h19.17.333,tripletExp_regina_11082022,2022.2.4,119.67313398767403,
8,9,6,2,0.25,1.0,2,0.444444444444444,1.0,2,0.027777777777778,1.0,ReadingArea_rsl2-rcl25-esl100-rsm2-rcm44-esm100-rsr2-rcr2-esr100,exr/ReadingArea_rsl2-rcl25-esl100-rsm2-rcm44-esm100-rsr2-rcr2-esr100.exr,ReadingArea_rsl2-rcl25-esl100-rsm2-rcm44-esm100-rsr2-rcr2-esr100.npz,,,,,0,41,41,3,,left,green,0.83,402.3689601421356,402.70783710479736,1,,3,4,brightness,readingArea,realistic,75,2023-03-17_15h19.17.333,tripletExp_regina_11082022,2022.2.4,119.67313398767403,
3,12,4,2,0.444444444444444,0.298245614035088,2,0.027777777777778,3.10526315789474,2,0.694444444444444,0.298245614035088,ReadingArea_rsl2-rcl44-esl29-rsm2-rcm2-esm310-rsr2-rcr69-esr29,exr/ReadingArea_rsl2-rcl44-esl29-rsm2-rcm2-esm310-rsr2-rcr69-esr29.exr,ReadingArea_rsl2-rcl44-esl29-rsm2-rcm2-esm310-rsr2-rcr69-esr29.npz,,,,,0,42,42,426,,left,green,1.07,404.40970611572266,404.7425539493561,1,,3,4,brightness,readingArea,realistic,75,2023-03-17_15h19.17.333,tripletExp_regina_11082022,2022.2.4,119.67313398767403,
2,14,7,2,0.25,0.298245614035088,2,0.25,3.10526315789474,2,0.111111111111111,1.0,ReadingArea_rsl2-rcl25-esl29-rsm2-rcm25-esm310-rsr2-rcr11-esr100,exr/ReadingArea_rsl2-rcl25-esl29-rsm2-rcm25-esm310-rsr2-rcr11-esr100.exr,ReadingArea_rsl2-rcl25-esl29-rsm2-rcm25-esm310-rsr2-rcr11-esr100.npz,,,,,0,43,43,310,,right,red,1.41,406.4279370307922,406.7652990818024,1,,3,4,brightness,readingArea,realistic,75,2023-03-17_15h19.17.333,tripletExp_regina_11082022,2022.2.4,119.67313398767403,
7,4,2,2,0.111111111111111,1.0,2,0.694444444444444,0.298245614035088,2,0.25,0.298245614035088,ReadingArea_rsl2-rcl11-esl100-rsm2-rcm69-esm29-rsr2-rcr25-esr29,exr/ReadingArea_rsl2-rcl11-esl100-rsm2-rcm69-esm29-rsr2-rcr25-esr29.exr,ReadingArea_rsl2-rcl11-esl100-rsm2-rcm69-esm29-rsr2-rcr25-esr29.npz,,,,,0,44,44,146,,left,green,1.21,408.4548799991608,408.7896900177002,1,,3,4,brightness,readingArea,realistic,75,2023-03-17_15h19.17.333,tripletExp_regina_11082022,2022.2.4,119.67313398767403,
9,13,0,2,0.444444444444444,1.0,2,0.111111111111111,3.10526315789474,2,0.027777777777778,0.298245614035088,ReadingArea_rsl2-rcl44-esl100-rsm2-rcm11-esm310-rsr2-rcr2-esr29,exr/ReadingArea_rsl2-rcl44-esl100-rsm2-rcm11-esm310-rsr2-rcr2-esr29.exr,ReadingArea_rsl2-rcl44-esl100-rsm2-rcm11-esm310-rsr2-rcr2-esr29.npz,,,,,0,45,45,205,,left,green,0.84,410.5036520957947,410.8422329425812,1,,3,4,brightness,readingArea,realistic,75,2023-03-17_15h19.17.333,tripletExp_regina_11082022,2022.2.4,119.67313398767403,
5,1,4,2,1.0,0.298245614035088,2,0.111111111111111,0.298245614035088,2,0.694444444444444,0.298245614035088,ReadingArea_rsl2-rcl100-esl29-rsm2-rcm11-esm29-rsr2-rcr69-esr29,exr/ReadingArea_rsl2-rcl100-esl29-rsm2-rcm11-esm29-rsr2-rcr69-esr29.exr,ReadingArea_rsl2-rcl100-esl29-rsm2-rcm11-esm29-rsr2-rcr69-esr29.npz,,,,,0,46,46,287,,right,red,1.61,412.53383207321167,412.864333152771,1,,3,4,brightness,readingArea,realistic,75,2023-03-17_15h19.17.333,tripletExp_regina_11082022,2022.2.4,119.67313398767403,
13,2,4,2,0.111111111111111,3.10526315789474,2,0.25,0.298245614035088,2,0.694444444444444,0.298245614035088,ReadingArea_rsl2-rcl11-esl310-rsm2-rcm25-esm29-rsr2-rcr69-esr29,exr/ReadingArea_rsl2-rcl11-esl310-rsm2-rcm25-esm29-rsr2-rcr69-esr29.exr,ReadingArea_rsl2-rcl11-esl310-rsm2-rcm25-esm29-rsr2-rcr69-esr29.npz,,,,,0,47,47,307,,right,red,2.85,416.33218812942505,416.6688120365143,1,,3,4,brightness,readingArea,realistic,75,2023-03-17_15h19.17.333,tripletExp_regina_11082022,2022.2.4,119.67313398767403,
5,11,8,2,1.0,0.298245614035088,2,1.0,1.0,2,0.25,1.0,ReadingArea_rsl2-rcl100-esl29-rsm2-rcm100-esm100-rsr2-rcr25-esr100,exr/ReadingArea_rsl2-rcl100-esl29-rsm2-rcm100-esm100-rsr2-rcr25-esr100.exr,ReadingArea_rsl2-rcl100-esl29-rsm2-rcm100-esm100-rsr2-rcr25-esr100.npz,,,,,0,48,48,548,,left,green,1.32,418.35814213752747,418.6924331188202,1,,3,4,brightness,readingArea,realistic,75,2023-03-17_15h19.17.333,tripletExp_regina_11082022,2022.2.4,119.67313398767403,
8,7,13,2,0.25,1.0,2,0.111111111111111,1.0,2,0.111111111111111,3.10526315789474,ReadingArea_rsl2-rcl25-esl100-rsm2-rcm11-esm100-rsr2-rcr11-esr310,exr/ReadingArea_rsl2-rcl25-esl100-rsm2-rcm11-esm100-rsr2-rcr11-esr310.exr,ReadingArea_rsl2-rcl25-esl100-rsm2-rcm11-esm100-rsr2-rcr11-esr310.npz,,,,,0,49,49,512,,left,green,1.31,420.3961269855499,,1,,3,4,brightness,readingArea,realistic,75,2023-03-17_15h19.17.333,tripletExp_regina_11082022,2022.2.4,119.67313398767403,
10,1,6,2,0.694444444444444,1.0,2,0.111111111111111,0.298245614035088,2,0.027777777777778,1.0,ReadingArea_rsl2-rcl69-esl100-rsm2-rcm11-esm29-rsr2-rcr2-esr100,exr/ReadingArea_rsl2-rcl69-esl100-rsm2-rcm11-esm29-rsr2-rcr2-esr100.exr,ReadingArea_rsl2-rcl69-esl100-rsm2-rcm11-esm29-rsr2-rcr2-esr100.npz,,,,,0,50,50,160,,right,red,1.23,422.4539799690247,422.78611612319946,1,,3,4,brightness,readingArea,realistic,75,2023-03-17_15h19.17.333,tripletExp_regina_11082022,2022.2.4,119.67313398767403,
13,3,14,2,0.111111111111111,3.10526315789474,2,0.444444444444444,0.298245614035088,2,0.25,3.10526315789474,ReadingArea_rsl2-rcl11-esl310-rsm2-rcm44-esm29-rsr2-rcr25-esr310,exr/ReadingArea_rsl2-rcl11-esl310-rsm2-rcm44-esm29-rsr2-rcr25-esr310.exr,ReadingArea_rsl2-rcl11-esl310-rsm2-rcm44-esm29-rsr2-rcr25-esr310.npz,,,,,0,51,51,38,,left,green,2.06,426.2335331439972,426.5694651603699,1,,3,4,brightness,readingArea,realistic,75,2023-03-17_15h19.17.333,tripletExp_regina_11082022,2022.2.4,119.67313398767403,
2,3,13,2,0.25,0.298245614035088,2,0.444444444444444,0.298245614035088,2,0.111111111111111,3.10526315789474,ReadingArea_rsl2-rcl25-esl29-rsm2-rcm44-esm29-rsr2-rcr11-esr310,exr/ReadingArea_rsl2-rcl25-esl29-rsm2-rcm44-esm29-rsr2-rcr11-esr310.exr,ReadingArea_rsl2-rcl25-esl29-rsm2-rcm44-esm29-rsr2-rcr11-esr310.npz,,,,,0,52,52,498,,right,red,2.37,430.077908039093,430.41224694252014,1,,3,4,brightness,readingArea,realistic,75,2023-03-17_15h19.17.333,tripletExp_regina_11082022,2022.2.4,119.67313398767403,
3,4,0,2,0.444444444444444,0.298245614035088,2,0.694444444444444,0.298245614035088,2,0.027777777777778,0.298245614035088,ReadingArea_rsl2-rcl44-esl29-rsm2-rcm69-esm29-rsr2-rcr2-esr29,exr/ReadingArea_rsl2-rcl44-esl29-rsm2-rcm69-esm29-rsr2-rcr2-esr29.exr,ReadingArea_rsl2-rcl44-esl29-rsm2-rcm69-esm29-rsr2-rcr2-esr29.npz,,,,,0,53,53,130,,left,green,0.81,432.1047041416168,432.4380619525909,1,,3,4,brightness,readingArea,realistic,75,2023-03-17_15h19.17.333,tripletExp_regina_11082022,2022.2.4,119.67313398767403,
12,8,9,2,0.027777777777778,3.10526315789474,2,0.25,1.0,2,0.444444444444444,1.0,ReadingArea_rsl2-rcl2-esl310-rsm2-rcm25-esm100-rsr2-rcr44-esr100,exr/ReadingArea_rsl2-rcl2-esl310-rsm2-rcm25-esm100-rsr2-rcr44-esr100.exr,ReadingArea_rsl2-rcl2-esl310-rsm2-rcm25-esm100-rsr2-rcr44-esr100.npz,,,,,0,54,54,517,,right,red,2.4,435.9047100543976,436.2374069690704,1,,3,4,brightness,readingArea,realistic,75,2023-03-17_15h19.17.333,tripletExp_regina_11082022,2022.2.4,119.67313398767403,
4,5,1,2,0.694444444444444,0.298245614035088,2,1.0,0.298245614035088,2,0.111111111111111,0.298245614035088,ReadingArea_rsl2-rcl69-esl29-rsm2-rcm100-esm29-rsr2-rcr11-esr29,exr/ReadingArea_rsl2-rcl69-esl29-rsm2-rcm100-esm29-rsr2-rcr11-esr29.exr,ReadingArea_rsl2-rcl69-esl29-rsm2-rcm100-esm29-rsr2-rcr11-esr29.npz,,,,,0,55,55,240,,left,green,0.72,437.9241600036621,438.2653679847717,1,,3,4,brightness,readingArea,realistic,75,2023-03-17_15h19.17.333,tripletExp_regina_11082022,2022.2.4,119.67313398767403,
4,2,0,2,0.694444444444444,0.298245614035088,2,0.25,0.298245614035088,2,0.027777777777778,0.298245614035088,ReadingArea_rsl2-rcl69-esl29-rsm2-rcm25-esm29-rsr2-rcr2-esr29,exr/ReadingArea_rsl2-rcl69-esl29-rsm2-rcm25-esm29-rsr2-rcr2-esr29.exr,ReadingArea_rsl2-rcl69-esl29-rsm2-rcm25-esm29-rsr2-rcr2-esr29.npz,,,,,0,56,56,71,,left,green,1.0,439.9852449893952,440.3209829330444,1,,3,4,brightness,readingArea,realistic,75,2023-03-17_15h19.17.333,tripletExp_regina_11082022,2022.2.4,119.67313398767403,
3,12,14,2,0.444444444444444,0.298245614035088,2,0.027777777777778,3.10526315789474,2,0.25,3.10526315789474,ReadingArea_rsl2-rcl44-esl29-rsm2-rcm2-esm310-rsr2-rcr25-esr310,exr/ReadingArea_rsl2-rcl44-esl29-rsm2-rcm2-esm310-rsr2-rcr25-esr310.exr,ReadingArea_rsl2-rcl44-esl29-rsm2-rcm2-esm310-rsr2-rcr25-esr310.npz,,,,,0,57,57,16,,left,green,1.16,442.03987312316895,442.3734550476074,1,,3,4,brightness,readingArea,realistic,75,2023-03-17_15h19.17.333,tripletExp_regina_11082022,2022.2.4,119.67313398767403,
4,7,10,2,0.694444444444444,0.298245614035088,2,0.111111111111111,1.0,2,0.694444444444444,1.0,ReadingArea_rsl2-rcl69-esl29-rsm2-rcm11-esm100-rsr2-rcr69-esr100,exr/ReadingArea_rsl2-rcl69-esl29-rsm2-rcm11-esm100-rsr2-rcr69-esr100.exr,ReadingArea_rsl2-rcl69-esl29-rsm2-rcm11-esm100-rsr2-rcr69-esr100.npz,,,,,0,58,58,8,,left,green,0.89,444.0880489349365,444.42389607429504,1,,3,4,brightness,readingArea,realistic,75,2023-03-17_15h19.17.333,tripletExp_regina_11082022,2022.2.4,119.67313398767403,
8,10,9,2,0.25,1.0,2,0.694444444444444,1.0,2,0.444444444444444,1.0,ReadingArea_rsl2-rcl25-esl100-rsm2-rcm69-esm100-rsr2-rcr44-esr100,exr/ReadingArea_rsl2-rcl25-esl100-rsm2-rcm69-esm100-rsr2-rcr44-esr100.exr,ReadingArea_rsl2-rcl25-esl100-rsm2-rcm69-esm100-rsr2-rcr44-esr100.npz,,,,,0,59,59,342,,right,red,1.01,446.1199140548706,446.4863209724426,1,,3,4,brightness,readingArea,realistic,75,2023-03-17_15h19.17.333,tripletExp_regina_11082022,2022.2.4,119.67313398767403,
12,7,9,2,0.027777777777778,3.10526315789474,2,0.111111111111111,1.0,2,0.444444444444444,1.0,ReadingArea_rsl2-rcl2-esl310-rsm2-rcm11-esm100-rsr2-rcr44-esr100,exr/ReadingArea_rsl2-rcl2-esl310-rsm2-rcm11-esm100-rsr2-rcr44-esr100.exr,ReadingArea_rsl2-rcl2-esl310-rsm2-rcm11-esm100-rsr2-rcr44-esr100.npz,,,,,0,60,60,124,,left,green,0.91,448.2102899551392,448.54806995391846,1,,3,4,brightness,readingArea,realistic,75,2023-03-17_15h19.17.333,tripletExp_regina_11082022,2022.2.4,119.67313398767403,
7,4,6,2,0.111111111111111,1.0,2,0.694444444444444,0.298245614035088,2,0.027777777777778,1.0,ReadingArea_rsl2-rcl11-esl100-rsm2-rcm69-esm29-rsr2-rcr2-esr100,exr/ReadingArea_rsl2-rcl11-esl100-rsm2-rcm69-esm29-rsr2-rcr2-esr100.exr,ReadingArea_rsl2-rcl11-esl100-rsm2-rcm69-esm29-rsr2-rcr2-esr100.npz,,,,,0,61,61,528,,left,green,1.32,450.2423479557037,,1,,3,4,brightness,readingArea,realistic,75,2023-03-17_15h19.17.333,tripletExp_regina_11082022,2022.2.4,119.67313398767403,
9,0,14,2,0.444444444444444,1.0,2,0.027777777777778,0.298245614035088,2,0.25,3.10526315789474,ReadingArea_rsl2-rcl44-esl100-rsm2-rcm2-esm29-rsr2-rcr25-esr310,exr/ReadingArea_rsl2-rcl44-esl100-rsm2-rcm2-esm29-rsr2-rcr25-esr310.exr,ReadingArea_rsl2-rcl44-esl100-rsm2-rcm2-esm29-rsr2-rcr25-esr310.npz,,,,,0,62,62,550,,left,green,3.1,454.05958914756775,,1,,3,4,brightness,readingArea,realistic,75,2023-03-17_15h19.17.333,tripletExp_regina_11082022,2022.2.4,119.67313398767403,
1,10,7,2,0.111111111111111,0.298245614035088,2,0.694444444444444,1.0,2,0.111111111111111,1.0,ReadingArea_rsl2-rcl11-esl29-rsm2-rcm69-esm100-rsr2-rcr11-esr100,exr/ReadingArea_rsl2-rcl11-esl29-rsm2-rcm69-esm100-rsr2-rcr11-esr100.exr,ReadingArea_rsl2-rcl11-esl29-rsm2-rcm69-esm100-rsr2-rcr11-esr100.npz,,,,,0,63,63,94,,right,red,1.41,456.1229269504547,456.4574019908905,1,,3,4,brightness,readingArea,realistic,75,2023-03-17_15h19.17.333,tripletExp_regina_11082022,2022.2.4,119.67313398767403,
14,10,13,2,0.25,3.10526315789474,2,0.694444444444444,1.0,2,0.111111111111111,3.10526315789474,ReadingArea_rsl2-rcl25-esl310-rsm2-rcm69-esm100-rsr2-rcr11-esr310,exr/ReadingArea_rsl2-rcl25-esl310-rsm2-rcm69-esm100-rsr2-rcr11-esr310.exr,ReadingArea_rsl2-rcl25-esl310-rsm2-rcm69-esm100-rsr2-rcr11-esr310.npz,,,,,0,64,64,204,,left,green,1.31,458.1699149608612,458.5089600086212,1,,3,4,brightness,readingArea,realistic,75,2023-03-17_15h19.17.333,tripletExp_regina_11082022,2022.2.4,119.67313398767403,
12,6,7,2,0.027777777777778,3.10526315789474,2,0.027777777777778,1.0,2,0.111111111111111,1.0,ReadingArea_rsl2-rcl2-esl310-rsm2-rcm2-esm100-rsr2-rcr11-esr100,exr/ReadingArea_rsl2-rcl2-esl310-rsm2-rcm2-esm100-rsr2-rcr11-esr100.exr,ReadingArea_rsl2-rcl2-esl310-rsm2-rcm2-esm100-rsr2-rcr11-esr100.npz,,,,,0,65,65,308,,left,green,3.89,463.753555059433,464.12625193595886,1,,3,4,brightness,readingArea,realistic,75,2023-03-17_15h19.17.333,tripletExp_regina_11082022,2022.2.4,119.67313398767403,
0,5,1,2,0.027777777777778,0.298245614035088,2,1.0,0.298245614035088,2,0.111111111111111,0.298245614035088,ReadingArea_rsl2-rcl2-esl29-rsm2-rcm100-esm29-rsr2-rcr11-esr29,exr/ReadingArea_rsl2-rcl2-esl29-rsm2-rcm100-esm29-rsr2-rcr11-esr29.exr,ReadingArea_rsl2-rcl2-esl29-rsm2-rcm100-esm29-rsr2-rcr11-esr29.npz,,,,,0,66,66,367,,right,red,0.89,465.8119521141052,466.1529140472412,1,,3,4,brightness,readingArea,realistic,75,2023-03-17_15h19.17.333,tripletExp_regina_11082022,2022.2.4,119.67313398767403,
11,8,7,2,1.0,1.0,2,0.25,1.0,2,0.111111111111111,1.0,ReadingArea_rsl2-rcl100-esl100-rsm2-rcm25-esm100-rsr2-rcr11-esr100,exr/ReadingArea_rsl2-rcl100-esl100-rsm2-rcm25-esm100-rsr2-rcr11-esr100.exr,ReadingArea_rsl2-rcl100-esl100-rsm2-rcm25-esm100-rsr2-rcr11-esr100.npz,,,,,0,67,67,105,,right,red,1.14,467.8648009300232,468.2026829719544,1,,3,4,brightness,readingArea,realistic,75,2023-03-17_15h19.17.333,tripletExp_regina_11082022,2022.2.4,119.67313398767403,
12,5,2,2,0.027777777777778,3.10526315789474,2,1.0,0.298245614035088,2,0.25,0.298245614035088,ReadingArea_rsl2-rcl2-esl310-rsm2-rcm100-esm29-rsr2-rcr25-esr29,exr/ReadingArea_rsl2-rcl2-esl310-rsm2-rcm100-esm29-rsr2-rcr25-esr29.exr,ReadingArea_rsl2-rcl2-esl310-rsm2-rcm100-esm29-rsr2-rcr25-esr29.npz,,,,,0,68,68,415,,left,green,1.22,469.9191360473633,470.2524471282959,1,,3,4,brightness,readingArea,realistic,75,2023-03-17_15h19.17.333,tripletExp_regina_11082022,2022.2.4,119.67313398767403,
10,4,9,2,0.694444444444444,1.0,2,0.694444444444444,0.298245614035088,2,0.444444444444444,1.0,ReadingArea_rsl2-rcl69-esl100-rsm2-rcm69-esm29-rsr2-rcr44-esr100,exr/ReadingArea_rsl2-rcl69-esl100-rsm2-rcm69-esm29-rsr2-rcr44-esr100.exr,ReadingArea_rsl2-rcl69-esl100-rsm2-rcm69-esm29-rsr2-rcr44-esr100.npz,,,,,0,69,69,452,,right,red,1.4,471.9731900691986,472.3108460903168,1,,3,4,brightness,readingArea,realistic,75,2023-03-17_15h19.17.333,tripletExp_regina_11082022,2022.2.4,119.67313398767403,
7,2,0,2,0.111111111111111,1.0,2,0.25,0.298245614035088,2,0.027777777777778,0.298245614035088,ReadingArea_rsl2-rcl11-esl100-rsm2-rcm25-esm29-rsr2-rcr2-esr29,exr/ReadingArea_rsl2-rcl11-esl100-rsm2-rcm25-esm29-rsr2-rcr2-esr29.exr,ReadingArea_rsl2-rcl11-esl100-rsm2-rcm25-esm29-rsr2-rcr2-esr29.npz,,,,,0,70,70,520,,left,green,0.79,474.0281970500946,474.376727104187,1,,3,4,brightness,readingArea,realistic,75,2023-03-17_15h19.17.333,tripletExp_regina_11082022,2022.2.4,119.67313398767403,
13,11,8,2,0.111111111111111,3.10526315789474,2,1.0,1.0,2,0.25,1.0,ReadingArea_rsl2-rcl11-esl310-rsm2-rcm100-esm100-rsr2-rcr25-esr100,exr/ReadingArea_rsl2-rcl11-esl310-rsm2-rcm100-esm100-rsr2-rcr25-esr100.exr,ReadingArea_rsl2-rcl11-esl310-rsm2-rcm100-esm100-rsr2-rcr25-esr100.npz,,,,,0,71,71,410,,left,green,1.0,476.0743119716644,476.41289806365967,1,,3,4,brightness,readingArea,realistic,75,2023-03-17_15h19.17.333,tripletExp_regina_11082022,2022.2.4,119.67313398767403,
0,8,14,2,0.027777777777778,0.298245614035088,2,0.25,1.0,2,0.25,3.10526315789474,ReadingArea_rsl2-rcl2-esl29-rsm2-rcm25-esm100-rsr2-rcr25-esr310,exr/ReadingArea_rsl2-rcl2-esl29-rsm2-rcm25-esm100-rsr2-rcr25-esr310.exr,ReadingArea_rsl2-rcl2-esl29-rsm2-rcm25-esm100-rsr2-rcr25-esr310.npz,,,,,0,72,72,114,,right,red,1.38,478.12033796310425,478.4557480812073,1,,3,4,brightness,readingArea,realistic,75,2023-03-17_15h19.17.333,tripletExp_regina_11082022,2022.2.4,119.67313398767403,
14,12,10,2,0.25,3.10526315789474,2,0.027777777777778,3.10526315789474,2,0.694444444444444,1.0,ReadingArea_rsl2-rcl25-esl310-rsm2-rcm2-esm310-rsr2-rcr69-esr100,exr/ReadingArea_rsl2-rcl25-esl310-rsm2-rcm2-esm310-rsr2-rcr69-esr100.exr,ReadingArea_rsl2-rcl25-esl310-rsm2-rcm2-esm310-rsr2-rcr69-esr100.npz,,,,,0,73,73,331,,right,red,3.17,481.89797616004944,482.2404580116272,1,,3,4,brightness,readingArea,realistic,75,2023-03-17_15h19.17.333,tripletExp_regina_11082022,2022.2.4,119.67313398767403,
3,9,0,2,0.444444444444444,0.298245614035088,2,0.444444444444444,1.0,2,0.027777777777778,0.298245614035088,ReadingArea_rsl2-rcl44-esl29-rsm2-rcm44-esm100-rsr2-rcr2-esr29,exr/ReadingArea_rsl2-rcl44-esl29-rsm2-rcm44-esm100-rsr2-rcr2-esr29.exr,ReadingArea_rsl2-rcl44-esl29-rsm2-rcm44-esm100-rsr2-rcr2-esr29.npz,,,,,0,74,74,551,,left,green,1.13,483.945277929306,484.1463470458984,1,,3,4,brightness,readingArea,realistic,75,2023-03-17_15h19.17.333,tripletExp_regina_11082022,2022.2.4,119.67313398767403,
9,3,8,2,0.444444444444444,1.0,2,0.444444444444444,0.298245614035088,2,0.25,1.0,ReadingArea_rsl2-rcl44-esl100-rsm2-rcm44-esm29-rsr2-rcr25-esr100,exr/ReadingArea_rsl2-rcl44-esl100-rsm2-rcm44-esm29-rsr2-rcr25-esr100.exr,ReadingArea_rsl2-rcl44-esl100-rsm2-rcm44-esm29-rsr2-rcr25-esr100.npz,,,,,0,75,75,530,,right,red,1.11,513.9097321033478,514.2482550144196,2,,3,4,brightness,readingArea,realistic,75,2023-03-17_15h19.17.333,tripletExp_regina_11082022,2022.2.4,119.67313398767403,
14,5,9,2,0.25,3.10526315789474,2,1.0,0.298245614035088,2,0.444444444444444,1.0,ReadingArea_rsl2-rcl25-esl310-rsm2-rcm100-esm29-rsr2-rcr44-esr100,exr/ReadingArea_rsl2-rcl25-esl310-rsm2-rcm100-esm29-rsr2-rcr44-esr100.exr,ReadingArea_rsl2-rcl25-esl310-rsm2-rcm100-esm29-rsr2-rcr44-esr100.npz,,,,,0,76,76,482,,right,red,0.93,515.9396660327911,516.2767720222473,2,,3,4,brightness,readingArea,realistic,75,2023-03-17_15h19.17.333,tripletExp_regina_11082022,2022.2.4,119.67313398767403,
3,6,5,2,0.444444444444444,0.298245614035088,2,0.027777777777778,1.0,2,1.0,0.298245614035088,ReadingArea_rsl2-rcl44-esl29-rsm2-rcm2-esm100-rsr2-rcr100-esr29,exr/ReadingArea_rsl2-rcl44-esl29-rsm2-rcm2-esm100-rsr2-rcr100-esr29.exr,ReadingArea_rsl2-rcl44-esl29-rsm2-rcm2-esm100-rsr2-rcr100-esr29.npz,,,,,0,77,77,274,,left,green,1.52,517.9962680339813,518.3343851566315,2,,3,4,brightness,readingArea,realistic,75,2023-03-17_15h19.17.333,tripletExp_regina_11082022,2022.2.4,119.67313398767403,
5,4,1,2,1.0,0.298245614035088,2,0.694444444444444,0.298245614035088,2,0.111111111111111,0.298245614035088,ReadingArea_rsl2-rcl100-esl29-rsm2-rcm69-esm29-rsr2-rcr11-esr29,exr/ReadingArea_rsl2-rcl100-esl29-rsm2-rcm69-esm29-rsr2-rcr11-esr29.exr,ReadingArea_rsl2-rcl100-esl29-rsm2-rcm69-esm29-rsr2-rcr11-esr29.npz,,,,,0,78,78,560,,left,green,0.86,520.0414590835571,520.3781819343567,2,,3,4,brightness,readingArea,realistic,75,2023-03-17_15h19.17.333,tripletExp_regina_11082022,2022.2.4,119.67313398767403,
1,14,8,2,0.111111111111111,0.298245614035088,2,0.25,3.10526315789474,2,0.25,1.0,ReadingArea_rsl2-rcl11-esl29-rsm2-rcm25-esm310-rsr2-rcr25-esr100,exr/ReadingArea_rsl2-rcl11-esl29-rsm2-rcm25-esm310-rsr2-rcr25-esr100.exr,ReadingArea_rsl2-rcl11-esl29-rsm2-rcm25-esm310-rsr2-rcr25-esr100.npz,,,,,0,79,79,108,,right,red,1.11,522.0940980911255,522.4326369762421,2,,3,4,brightness,readingArea,realistic,75,2023-03-17_15h19.17.333,tripletExp_regina_11082022,2022.2.4,119.67313398767403,
0,8,6,2,0.027777777777778,0.298245614035088,2,0.25,1.0,2,0.027777777777778,1.0,ReadingArea_rsl2-rcl2-esl29-rsm2-rcm25-esm100-rsr2-rcr2-esr100,exr/ReadingArea_rsl2-rcl2-esl29-rsm2-rcm25-esm100-rsr2-rcr2-esr100.exr,ReadingArea_rsl2-rcl2-esl29-rsm2-rcm25-esm100-rsr2-rcr2-esr100.npz,,,,,0,80,80,92,,right,red,1.46,524.1366939544678,524.4709129333496,2,,3,4,brightness,readingArea,realistic,75,2023-03-17_15h19.17.333,tripletExp_regina_11082022,2022.2.4,119.67313398767403,
12,7,1,2,0.027777777777778,3.10526315789474,2,0.111111111111111,1.0,2,0.111111111111111,0.298245614035088,ReadingArea_rsl2-rcl2-esl310-rsm2-rcm11-esm100-rsr2-rcr11-esr29,exr/ReadingArea_rsl2-rcl2-esl310-rsm2-rcm11-esm100-rsr2-rcr11-esr29.exr,ReadingArea_rsl2-rcl2-esl310-rsm2-rcm11-esm100-rsr2-rcr11-esr29.npz,,,,,0,81,81,264,,left,green,0.97,526.1956040859222,,2,,3,4,brightness,readingArea,realistic,75,2023-03-17_15h19.17.333,tripletExp_regina_11082022,2022.2.4,119.67313398767403,
7,14,11,2,0.111111111111111,1.0,2,0.25,3.10526315789474,2,1.0,1.0,ReadingArea_rsl2-rcl11-esl100-rsm2-rcm25-esm310-rsr2-rcr100-esr100,exr/ReadingArea_rsl2-rcl11-esl100-rsm2-rcm25-esm310-rsr2-rcr100-esr100.exr,ReadingArea_rsl2-rcl11-esl100-rsm2-rcm25-esm310-rsr2-rcr100-esr100.npz,,,,,0,82,82,252,,right,red,0.78,528.2580001354218,528.5966191291809,2,,3,4,brightness,readingArea,realistic,75,2023-03-17_15h19.17.333,tripletExp_regina_11082022,2022.2.4,119.67313398767403,
9,0,11,2,0.444444444444444,1.0,2,0.027777777777778,0.298245614035088,2,1.0,1.0,ReadingArea_rsl2-rcl44-esl100-rsm2-rcm2-esm29-rsr2-rcr100-esr100,exr/ReadingArea_rsl2-rcl44-esl100-rsm2-rcm2-esm29-rsr2-rcr100-esr100.exr,ReadingArea_rsl2-rcl44-esl100-rsm2-rcm2-esm29-rsr2-rcr100-esr100.npz,,,,,0,83,83,319,,left,green,1.36,530.3169901371002,530.657329082489,2,,3,4,brightness,readingArea,realistic,75,2023-03-17_15h19.17.333,tripletExp_regina_11082022,2022.2.4,119.67313398767403,
3,4,5,2,0.444444444444444,0.298245614035088,2,0.694444444444444,0.298245614035088,2,1.0,0.298245614035088,ReadingArea_rsl2-rcl44-esl29-rsm2-rcm69-esm29-rsr2-rcr100-esr29,exr/ReadingArea_rsl2-rcl44-esl29-rsm2-rcm69-esm29-rsr2-rcr100-esr29.exr,ReadingArea_rsl2-rcl44-esl29-rsm2-rcm69-esm29-rsr2-rcr100-esr29.npz,,,,,0,84,84,233,,left,green,0.76,532.3501889705658,532.6880600452423,2,,3,4,brightness,readingArea,realistic,75,2023-03-17_15h19.17.333,tripletExp_regina_11082022,2022.2.4,119.67313398767403,
2,9,12,2,0.25,0.298245614035088,2,0.444444444444444,1.0,2,0.027777777777778,3.10526315789474,ReadingArea_rsl2-rcl25-esl29-rsm2-rcm44-esm100-rsr2-rcr2-esr310,exr/ReadingArea_rsl2-rcl25-esl29-rsm2-rcm44-esm100-rsr2-rcr2-esr310.exr,ReadingArea_rsl2-rcl25-esl29-rsm2-rcm44-esm100-rsr2-rcr2-esr310.npz,,,,,0,85,85,354,,left,green,1.49,534.405296087265,,2,,3,4,brightness,readingArea,realistic,75,2023-03-17_15h19.17.333,tripletExp_regina_11082022,2022.2.4,119.67313398767403,
10,3,0,2,0.694444444444444,1.0,2,0.444444444444444,0.298245614035088,2,0.027777777777778,0.298245614035088,ReadingArea_rsl2-rcl69-esl100-rsm2-rcm44-esm29-rsr2-rcr2-esr29,exr/ReadingArea_rsl2-rcl69-esl100-rsm2-rcm44-esm29-rsr2-rcr2-esr29.exr,ReadingArea_rsl2-rcl69-esl100-rsm2-rcm44-esm29-rsr2-rcr2-esr29.npz,,,,,0,86,86,203,,left,green,1.12,536.4717450141907,536.8073351383209,2,,3,4,brightness,readingArea,realistic,75,2023-03-17_15h19.17.333,tripletExp_regina_11082022,2022.2.4,119.67313398767403,
10,12,11,2,0.694444444444444,1.0,2,0.027777777777778,3.10526315789474,2,1.0,1.0,ReadingArea_rsl2-rcl69-esl100-rsm2-rcm2-esm310-rsr2-rcr100-esr100,exr/ReadingArea_rsl2-rcl69-esl100-rsm2-rcm2-esm310-rsr2-rcr100-esr100.exr,ReadingArea_rsl2-rcl69-esl100-rsm2-rcm2-esm310-rsr2-rcr100-esr100.npz,,,,,0,87,87,317,,left,green,3.92,542.0390949249268,542.3755440711975,2,,3,4,brightness,readingArea,realistic,75,2023-03-17_15h19.17.333,tripletExp_regina_11082022,2022.2.4,119.67313398767403,
14,2,7,2,0.25,3.10526315789474,2,0.25,0.298245614035088,2,0.111111111111111,1.0,ReadingArea_rsl2-rcl25-esl310-rsm2-rcm25-esm29-rsr2-rcr11-esr100,exr/ReadingArea_rsl2-rcl25-esl310-rsm2-rcm25-esm29-rsr2-rcr11-esr100.exr,ReadingArea_rsl2-rcl25-esl310-rsm2-rcm25-esm29-rsr2-rcr11-esr100.npz,,,,,0,88,88,569,,right,red,0.77,544.0944640636444,544.4332010746002,2,,3,4,brightness,readingArea,realistic,75,2023-03-17_15h19.17.333,tripletExp_regina_11082022,2022.2.4,119.67313398767403,
7,9,8,2,0.111111111111111,1.0,2,0.444444444444444,1.0,2,0.25,1.0,ReadingArea_rsl2-rcl11-esl100-rsm2-rcm44-esm100-rsr2-rcr25-esr100,exr/ReadingArea_rsl2-rcl11-esl100-rsm2-rcm44-esm100-rsr2-rcr25-esr100.exr,ReadingArea_rsl2-rcl11-esl100-rsm2-rcm44-esm100-rsr2-rcr25-esr100.npz,,,,,0,89,89,515,,right,red,1.54,546.1291990280151,546.4666459560394,2,,3,4,brightness,readingArea,realistic,75,2023-03-17_15h19.17.333,tripletExp_regina_11082022,2022.2.4,119.67313398767403,
1,14,6,2,0.111111111111111,0.298245614035088,2,0.25,3.10526315789474,2,0.027777777777778,1.0,ReadingArea_rsl2-rcl11-esl29-rsm2-rcm25-esm310-rsr2-rcr2-esr100,exr/ReadingArea_rsl2-rcl11-esl29-rsm2-rcm25-esm310-rsr2-rcr2-esr100.exr,ReadingArea_rsl2-rcl11-esl29-rsm2-rcm25-esm310-rsr2-rcr2-esr100.npz,,,,,0,90,90,475,,left,green,3.16,549.9705710411072,550.3092570304871,2,,3,4,brightness,readingArea,realistic,75,2023-03-17_15h19.17.333,tripletExp_regina_11082022,2022.2.4,119.67313398767403,
5,14,4,2,1.0,0.298245614035088,2,0.25,3.10526315789474,2,0.694444444444444,0.298245614035088,ReadingArea_rsl2-rcl100-esl29-rsm2-rcm25-esm310-rsr2-rcr69-esr29,exr/ReadingArea_rsl2-rcl100-esl29-rsm2-rcm25-esm310-rsr2-rcr69-esr29.exr,ReadingArea_rsl2-rcl100-esl29-rsm2-rcm25-esm310-rsr2-rcr69-esr29.npz,,,,,0,91,91,69,,left,green,3.28,553.7774720191956,554.1192350387573,2,,3,4,brightness,readingArea,realistic,75,2023-03-17_15h19.17.333,tripletExp_regina_11082022,2022.2.4,119.67313398767403,
2,14,9,2,0.25,0.298245614035088,2,0.25,3.10526315789474,2,0.444444444444444,1.0,ReadingArea_rsl2-rcl25-esl29-rsm2-rcm25-esm310-rsr2-rcr44-esr100,exr/ReadingArea_rsl2-rcl25-esl29-rsm2-rcm25-esm310-rsr2-rcr44-esr100.exr,ReadingArea_rsl2-rcl25-esl29-rsm2-rcm25-esm310-rsr2-rcr44-esr100.npz,,,,,0,92,92,51,,right,red,0.89,555.8336470127106,,2,,3,4,brightness,readingArea,realistic,75,2023-03-17_15h19.17.333,tripletExp_regina_11082022,2022.2.4,119.67313398767403,
14,4,8,2,0.25,3.10526315789474,2,0.694444444444444,0.298245614035088,2,0.25,1.0,ReadingArea_rsl2-rcl25-esl310-rsm2-rcm69-esm29-rsr2-rcr25-esr100,exr/ReadingArea_rsl2-rcl25-esl310-rsm2-rcm69-esm29-rsr2-rcr25-esr100.exr,ReadingArea_rsl2-rcl25-esl310-rsm2-rcm69-esm29-rsr2-rcr25-esr100.npz,,,,,0,93,93,253,,right,red,1.14,557.8996329307556,558.2351980209351,2,,3,4,brightness,readingArea,realistic,75,2023-03-17_15h19.17.333,tripletExp_regina_11082022,2022.2.4,119.67313398767403,
6,0,11,2,0.027777777777778,1.0,2,0.027777777777778,0.298245614035088,2,1.0,1.0,ReadingArea_rsl2-rcl2-esl100-rsm2-rcm2-esm29-rsr2-rcr100-esr100,exr/ReadingArea_rsl2-rcl2-esl100-rsm2-rcm2-esm29-rsr2-rcr100-esr100.exr,ReadingArea_rsl2-rcl2-esl100-rsm2-rcm2-esm29-rsr2-rcr100-esr100.npz,,,,,0,94,94,245,,left,green,1.07,559.9499599933624,560.287565946579,2,,3,4,brightness,readingArea,realistic,75,2023-03-17_15h19.17.333,tripletExp_regina_11082022,2022.2.4,119.67313398767403,
1,9,11,2,0.111111111111111,0.298245614035088,2,0.444444444444444,1.0,2,1.0,1.0,ReadingArea_rsl2-rcl11-esl29-rsm2-rcm44-esm100-rsr2-rcr100-esr100,exr/ReadingArea_rsl2-rcl11-esl29-rsm2-rcm44-esm100-rsr2-rcr100-esr100.exr,ReadingArea_rsl2-rcl11-esl29-rsm2-rcm44-esm100-rsr2-rcr100-esr100.npz,,,,,0,95,95,215,,right,red,0.97,561.9942939281464,562.3376791477203,2,,3,4,brightness,readingArea,realistic,75,2023-03-17_15h19.17.333,tripletExp_regina_11082022,2022.2.4,119.67313398767403,
14,10,9,2,0.25,3.10526315789474,2,0.694444444444444,1.0,2,0.444444444444444,1.0,ReadingArea_rsl2-rcl25-esl310-rsm2-rcm69-esm100-rsr2-rcr44-esr100,exr/ReadingArea_rsl2-rcl25-esl310-rsm2-rcm69-esm100-rsr2-rcr44-esr100.exr,ReadingArea_rsl2-rcl25-esl310-rsm2-rcm69-esm100-rsr2-rcr44-esr100.npz,,,,,0,96,96,402,,left,green,0.94,564.0576751232147,564.3942630290985,2,,3,4,brightness,readingArea,realistic,75,2023-03-17_15h19.17.333,tripletExp_regina_11082022,2022.2.4,119.67313398767403,
12,9,2,2,0.027777777777778,3.10526315789474,2,0.444444444444444,1.0,2,0.25,0.298245614035088,ReadingArea_rsl2-rcl2-esl310-rsm2-rcm44-esm100-rsr2-rcr25-esr29,exr/ReadingArea_rsl2-rcl2-esl310-rsm2-rcm44-esm100-rsr2-rcr25-esr29.exr,ReadingArea_rsl2-rcl2-esl310-rsm2-rcm44-esm100-rsr2-rcr25-esr29.npz,,,,,0,97,97,226,,left,green,3.13,567.8605680465698,,2,,3,4,brightness,readingArea,realistic,75,2023-03-17_15h19.17.333,tripletExp_regina_11082022,2022.2.4,119.67313398767403,
10,11,9,2,0.694444444444444,1.0,2,1.0,1.0,2,0.444444444444444,1.0,ReadingArea_rsl2-rcl69-esl100-rsm2-rcm100-esm100-rsr2-rcr44-esr100,exr/ReadingArea_rsl2-rcl69-esl100-rsm2-rcm100-esm100-rsr2-rcr44-esr100.exr,ReadingArea_rsl2-rcl69-esl100-rsm2-rcm100-esm100-rsr2-rcr44-esr100.npz,,,,,0,98,98,492,,left,green,0.99,569.9024159908295,570.2384951114655,2,,3,4,brightness,readingArea,realistic,75,2023-03-17_15h19.17.333,tripletExp_regina_11082022,2022.2.4,119.67313398767403,
9,7,10,2,0.444444444444444,1.0,2,0.111111111111111,1.0,2,0.694444444444444,1.0,ReadingArea_rsl2-rcl44-esl100-rsm2-rcm11-esm100-rsr2-rcr69-esr100,exr/ReadingArea_rsl2-rcl44-esl100-rsm2-rcm11-esm100-rsr2-rcr69-esr100.exr,ReadingArea_rsl2-rcl44-esl100-rsm2-rcm11-esm100-rsr2-rcr69-esr100.npz,,,,,0,99,99,508,,left,green,1.4,571.9435291290283,572.278685092926,2,,3,4,brightness,readingArea,realistic,75,2023-03-17_15h19.17.333,tripletExp_regina_11082022,2022.2.4,119.67313398767403,
11,5,2,2,1.0,1.0,2,1.0,0.298245614035088,2,0.25,0.298245614035088,ReadingArea_rsl2-rcl100-esl100-rsm2-rcm100-esm29-rsr2-rcr25-esr29,exr/ReadingArea_rsl2-rcl100-esl100-rsm2-rcm100-esm29-rsr2-rcr25-esr29.exr,ReadingArea_rsl2-rcl100-esl100-rsm2-rcm100-esm29-rsr2-rcr25-esr29.npz,,,,,0,100,100,596,,left,green,2.66,575.7532889842987,,2,,3,4,brightness,readingArea,realistic,75,2023-03-17_15h19.17.333,tripletExp_regina_11082022,2022.2.4,119.67313398767403,
7,14,5,2,0.111111111111111,1.0,2,0.25,3.10526315789474,2,1.0,0.298245614035088,ReadingArea_rsl2-rcl11-esl100-rsm2-rcm25-esm310-rsr2-rcr100-esr29,exr/ReadingArea_rsl2-rcl11-esl100-rsm2-rcm25-esm310-rsr2-rcr100-esr29.exr,ReadingArea_rsl2-rcl11-esl100-rsm2-rcm25-esm310-rsr2-rcr100-esr29.npz,,,,,0,101,101,372,,right,red,0.76,577.8179240226746,578.1567261219025,2,,3,4,brightness,readingArea,realistic,75,2023-03-17_15h19.17.333,tripletExp_regina_11082022,2022.2.4,119.67313398767403,
7,4,1,2,0.111111111111111,1.0,2,0.694444444444444,0.298245614035088,2,0.111111111111111,0.298245614035088,ReadingArea_rsl2-rcl11-esl100-rsm2-rcm69-esm29-rsr2-rcr11-esr29,exr/ReadingArea_rsl2-rcl11-esl100-rsm2-rcm69-esm29-rsr2-rcr11-esr29.exr,ReadingArea_rsl2-rcl11-esl100-rsm2-rcm69-esm29-rsr2-rcr11-esr29.npz,,,,,0,102,102,369,,left,green,1.13,579.8705310821533,580.2156369686127,2,,3,4,brightness,readingArea,realistic,75,2023-03-17_15h19.17.333,tripletExp_regina_11082022,2022.2.4,119.67313398767403,
7,14,3,2,0.111111111111111,1.0,2,0.25,3.10526315789474,2,0.444444444444444,0.298245614035088,ReadingArea_rsl2-rcl11-esl100-rsm2-rcm25-esm310-rsr2-rcr44-esr29,exr/ReadingArea_rsl2-rcl11-esl100-rsm2-rcm25-esm310-rsr2-rcr44-esr29.exr,ReadingArea_rsl2-rcl11-esl100-rsm2-rcm25-esm310-rsr2-rcr44-esr29.npz,,,,,0,103,103,103,,right,red,1.03,581.9295370578766,,2,,3,4,brightness,readingArea,realistic,75,2023-03-17_15h19.17.333,tripletExp_regina_11082022,2022.2.4,119.67313398767403,
13,2,9,2,0.111111111111111,3.10526315789474,2,0.25,0.298245614035088,2,0.444444444444444,1.0,ReadingArea_rsl2-rcl11-esl310-rsm2-rcm25-esm29-rsr2-rcr44-esr100,exr/ReadingArea_rsl2-rcl11-esl310-rsm2-rcm25-esm29-rsr2-rcr44-esr100.exr,ReadingArea_rsl2-rcl11-esl310-rsm2-rcm25-esm29-rsr2-rcr44-esr100.npz,,,,,0,104,104,457,,right,red,4.53,587.5010030269623,587.8432121276855,2,,3,4,brightness,readingArea,realistic,75,2023-03-17_15h19.17.333,tripletExp_regina_11082022,2022.2.4,119.67313398767403,
14,6,5,2,0.25,3.10526315789474,2,0.027777777777778,1.0,2,1.0,0.298245614035088,ReadingArea_rsl2-rcl25-esl310-rsm2-rcm2-esm100-rsr2-rcr100-esr29,exr/ReadingArea_rsl2-rcl25-esl310-rsm2-rcm2-esm100-rsr2-rcr100-esr29.exr,ReadingArea_rsl2-rcl25-esl310-rsm2-rcm2-esm100-rsr2-rcr100-esr29.npz,,,,,0,105,105,297,,right,red,2.04,591.319766998291,591.6618270874023,2,,3,4,brightness,readingArea,realistic,75,2023-03-17_15h19.17.333,tripletExp_regina_11082022,2022.2.4,119.67313398767403,
2,8,7,2,0.25,0.298245614035088,2,0.25,1.0,2,0.111111111111111,1.0,ReadingArea_rsl2-rcl25-esl29-rsm2-rcm25-esm100-rsr2-rcr11-esr100,exr/ReadingArea_rsl2-rcl25-esl29-rsm2-rcm25-esm100-rsr2-rcr11-esr100.exr,ReadingArea_rsl2-rcl25-esl29-rsm2-rcm25-esm100-rsr2-rcr11-esr100.npz,,,,,0,106,106,393,,right,red,2.37,595.104171037674,595.443156003952,2,,3,4,brightness,readingArea,realistic,75,2023-03-17_15h19.17.333,tripletExp_regina_11082022,2022.2.4,119.67313398767403,
10,8,11,2,0.694444444444444,1.0,2,0.25,1.0,2,1.0,1.0,ReadingArea_rsl2-rcl69-esl100-rsm2-rcm25-esm100-rsr2-rcr100-esr100,exr/ReadingArea_rsl2-rcl69-esl100-rsm2-rcm25-esm100-rsr2-rcr100-esr100.exr,ReadingArea_rsl2-rcl69-esl100-rsm2-rcm25-esm100-rsr2-rcr100-esr100.npz,,,,,0,107,107,578,,left,green,1.6,597.1632549762726,597.5012390613556,2,,3,4,brightness,readingArea,realistic,75,2023-03-17_15h19.17.333,tripletExp_regina_11082022,2022.2.4,119.67313398767403,
13,0,8,2,0.111111111111111,3.10526315789474,2,0.027777777777778,0.298245614035088,2,0.25,1.0,ReadingArea_rsl2-rcl11-esl310-rsm2-rcm2-esm29-rsr2-rcr25-esr100,exr/ReadingArea_rsl2-rcl11-esl310-rsm2-rcm2-esm29-rsr2-rcr25-esr100.exr,ReadingArea_rsl2-rcl11-esl310-rsm2-rcm2-esm29-rsr2-rcr25-esr100.npz,,,,,0,108,108,249,,right,red,2.94,600.9755201339722,601.3220660686493,2,,3,4,brightness,readingArea,realistic,75,2023-03-17_15h19.17.333,tripletExp_regina_11082022,2022.2.4,119.67313398767403,
12,3,11,2,0.027777777777778,3.10526315789474,2,0.444444444444444,0.298245614035088,2,1.0,1.0,ReadingArea_rsl2-rcl2-esl310-rsm2-rcm44-esm29-rsr2-rcr100-esr100,exr/ReadingArea_rsl2-rcl2-esl310-rsm2-rcm44-esm29-rsr2-rcr100-esr100.exr,ReadingArea_rsl2-rcl2-esl310-rsm2-rcm44-esm29-rsr2-rcr100-esr100.npz,,,,,0,109,109,83,,left,green,1.21,603.0459489822388,603.3863110542297,2,,3,4,brightness,readingArea,realistic,75,2023-03-17_15h19.17.333,tripletExp_regina_11082022,2022.2.4,119.67313398767403,
14,3,6,2,0.25,3.10526315789474,2,0.444444444444444,0.298245614035088,2,0.027777777777778,1.0,ReadingArea_rsl2-rcl25-esl310-rsm2-rcm44-esm29-rsr2-rcr2-esr100,exr/ReadingArea_rsl2-rcl25-esl310-rsm2-rcm44-esm29-rsr2-rcr2-esr100.exr,ReadingArea_rsl2-rcl25-esl310-rsm2-rcm44-esm29-rsr2-rcr2-esr100.npz,,,,,0,110,110,244,,left,green,3.98,608.6152770519257,608.9574439525604,2,,3,4,brightness,readingArea,realistic,75,2023-03-17_15h19.17.333,tripletExp_regina_11082022,2022.2.4,119.67313398767403,
14,2,6,2,0.25,3.10526315789474,2,0.25,0.298245614035088,2,0.027777777777778,1.0,ReadingArea_rsl2-rcl25-esl310-rsm2-rcm25-esm29-rsr2-rcr2-esr100,exr/ReadingArea_rsl2-rcl25-esl310-rsm2-rcm25-esm29-rsr2-rcr2-esr100.exr,ReadingArea_rsl2-rcl25-esl310-rsm2-rcm25-esm29-rsr2-rcr2-esr100.npz,,,,,0,111,111,350,,left,green,1.35,610.6593890190125,,2,,3,4,brightness,readingArea,realistic,75,2023-03-17_15h19.17.333,tripletExp_regina_11082022,2022.2.4,119.67313398767403,
6,1,10,2,0.027777777777778,1.0,2,0.111111111111111,0.298245614035088,2,0.694444444444444,1.0,ReadingArea_rsl2-rcl2-esl100-rsm2-rcm11-esm29-rsr2-rcr69-esr100,exr/ReadingArea_rsl2-rcl2-esl100-rsm2-rcm11-esm29-rsr2-rcr69-esr100.exr,ReadingArea_rsl2-rcl2-esl100-rsm2-rcm11-esm29-rsr2-rcr69-esr100.npz,,,,,0,112,112,561,,left,green,1.01,612.7067649364471,613.0466260910034,2,,3,4,brightness,readingArea,realistic,75,2023-03-17_15h19.17.333,tripletExp_regina_11082022,2022.2.4,119.67313398767403,
7,10,4,2,0.111111111111111,1.0,2,0.694444444444444,1.0,2,0.694444444444444,0.298245614035088,ReadingArea_rsl2-rcl11-esl100-rsm2-rcm69-esm100-rsr2-rcr69-esr29,exr/ReadingArea_rsl2-rcl11-esl100-rsm2-rcm69-esm100-rsr2-rcr69-esr29.exr,ReadingArea_rsl2-rcl11-esl100-rsm2-rcm69-esm100-rsr2-rcr69-esr29.npz,,,,,0,113,113,46,,right,red,1.05,614.7341170310974,615.0728800296783,2,,3,4,brightness,readingArea,realistic,75,2023-03-17_15h19.17.333,tripletExp_regina_11082022,2022.2.4,119.67313398767403,
12,9,14,2,0.027777777777778,3.10526315789474,2,0.444444444444444,1.0,2,0.25,3.10526315789474,ReadingArea_rsl2-rcl2-esl310-rsm2-rcm44-esm100-rsr2-rcr25-esr310,exr/ReadingArea_rsl2-rcl2-esl310-rsm2-rcm44-esm100-rsr2-rcr25-esr310.exr,ReadingArea_rsl2-rcl2-esl310-rsm2-rcm44-esm100-rsr2-rcr25-esr310.npz,,,,,0,114,114,123,,right,red,0.82,616.7622950077057,617.1041250228882,2,,3,4,brightness,readingArea,realistic,75,2023-03-17_15h19.17.333,tripletExp_regina_11082022,2022.2.4,119.67313398767403,
11,7,14,2,1.0,1.0,2,0.111111111111111,1.0,2,0.25,3.10526315789474,ReadingArea_rsl2-rcl100-esl100-rsm2-rcm11-esm100-rsr2-rcr25-esr310,exr/ReadingArea_rsl2-rcl100-esl100-rsm2-rcm11-esm100-rsr2-rcr25-esr310.exr,ReadingArea_rsl2-rcl100-esl100-rsm2-rcm11-esm100-rsr2-rcr25-esr310.npz,,,,,0,115,115,119,,right,red,2.9,620.5709640979767,620.9167859554291,2,,3,4,brightness,readingArea,realistic,75,2023-03-17_15h19.17.333,tripletExp_regina_11082022,2022.2.4,119.67313398767403,
10,7,3,2,0.694444444444444,1.0,2,0.111111111111111,1.0,2,0.444444444444444,0.298245614035088,ReadingArea_rsl2-rcl69-esl100-rsm2-rcm11-esm100-rsr2-rcr44-esr29,exr/ReadingArea_rsl2-rcl69-esl100-rsm2-rcm11-esm100-rsr2-rcr44-esr29.exr,ReadingArea_rsl2-rcl69-esl100-rsm2-rcm11-esm100-rsr2-rcr44-esr29.npz,,,,,0,116,116,582,,right,red,0.94,622.6264979839325,622.9681279659271,2,,3,4,brightness,readingArea,realistic,75,2023-03-17_15h19.17.333,tripletExp_regina_11082022,2022.2.4,119.67313398767403,
12,3,5,2,0.027777777777778,3.10526315789474,2,0.444444444444444,0.298245614035088,2,1.0,0.298245614035088,ReadingArea_rsl2-rcl2-esl310-rsm2-rcm44-esm29-rsr2-rcr100-esr29,exr/ReadingArea_rsl2-rcl2-esl310-rsm2-rcm44-esm29-rsr2-rcr100-esr29.exr,ReadingArea_rsl2-rcl2-esl310-rsm2-rcm44-esm29-rsr2-rcr100-esr29.npz,,,,,0,117,117,188,,left,green,0.75,624.6695849895477,,2,,3,4,brightness,readingArea,realistic,75,2023-03-17_15h19.17.333,tripletExp_regina_11082022,2022.2.4,119.67313398767403,
4,13,1,2,0.694444444444444,0.298245614035088,2,0.111111111111111,3.10526315789474,2,0.111111111111111,0.298245614035088,ReadingArea_rsl2-rcl69-esl29-rsm2-rcm11-esm310-rsr2-rcr11-esr29,exr/ReadingArea_rsl2-rcl69-esl29-rsm2-rcm11-esm310-rsr2-rcr11-esr29.exr,ReadingArea_rsl2-rcl69-esl29-rsm2-rcm11-esm310-rsr2-rcr11-esr29.npz,,,,,0,118,118,192,,left,green,0.89,626.7234420776367,627.066887140274,2,,3,4,brightness,readingArea,realistic,75,2023-03-17_15h19.17.333,tripletExp_regina_11082022,2022.2.4,119.67313398767403,
12,11,6,2,0.027777777777778,3.10526315789474,2,1.0,1.0,2,0.027777777777778,1.0,ReadingArea_rsl2-rcl2-esl310-rsm2-rcm100-esm100-rsr2-rcr2-esr100,exr/ReadingArea_rsl2-rcl2-esl310-rsm2-rcm100-esm100-rsr2-rcr2-esr100.exr,ReadingArea_rsl2-rcl2-esl310-rsm2-rcm100-esm100-rsr2-rcr2-esr100.npz,,,,,0,119,119,163,,left,green,2.91,630.5470399856567,630.9024729728699,2,,3,4,brightness,readingArea,realistic,75,2023-03-17_15h19.17.333,tripletExp_regina_11082022,2022.2.4,119.67313398767403,
3,9,10,2,0.444444444444444,0.298245614035088,2,0.444444444444444,1.0,2,0.694444444444444,1.0,ReadingArea_rsl2-rcl44-esl29-rsm2-rcm44-esm100-rsr2-rcr69-esr100,exr/ReadingArea_rsl2-rcl44-esl29-rsm2-rcm44-esm100-rsr2-rcr69-esr100.exr,ReadingArea_rsl2-rcl44-esl29-rsm2-rcm44-esm100-rsr2-rcr69-esr100.npz,,,,,0,120,120,581,,right,red,0.74,632.6264500617981,632.9692590236664,2,,3,4,brightness,readingArea,realistic,75,2023-03-17_15h19.17.333,tripletExp_regina_11082022,2022.2.4,119.67313398767403,
12,14,8,2,0.027777777777778,3.10526315789474,2,0.25,3.10526315789474,2,0.25,1.0,ReadingArea_rsl2-rcl2-esl310-rsm2-rcm25-esm310-rsr2-rcr25-esr100,exr/ReadingArea_rsl2-rcl2-esl310-rsm2-rcm25-esm310-rsr2-rcr25-esr100.exr,ReadingArea_rsl2-rcl2-esl310-rsm2-rcm25-esm310-rsr2-rcr25-esr100.npz,,,,,0,121,121,466,,right,red,1.09,634.6873230934143,635.0263950824738,2,,3,4,brightness,readingArea,realistic,75,2023-03-17_15h19.17.333,tripletExp_regina_11082022,2022.2.4,119.67313398767403,
14,13,3,2,0.25,3.10526315789474,2,0.111111111111111,3.10526315789474,2,0.444444444444444,0.298245614035088,ReadingArea_rsl2-rcl25-esl310-rsm2-rcm11-esm310-rsr2-rcr44-esr29,exr/ReadingArea_rsl2-rcl25-esl310-rsm2-rcm11-esm310-rsr2-rcr44-esr29.exr,ReadingArea_rsl2-rcl25-esl310-rsm2-rcm11-esm310-rsr2-rcr44-esr29.npz,,,,,0,122,122,256,,left,green,2.35,638.5101690292358,638.8554611206055,2,,3,4,brightness,readingArea,realistic,75,2023-03-17_15h19.17.333,tripletExp_regina_11082022,2022.2.4,119.67313398767403,
10,7,8,2,0.694444444444444,1.0,2,0.111111111111111,1.0,2,0.25,1.0,ReadingArea_rsl2-rcl69-esl100-rsm2-rcm11-esm100-rsr2-rcr25-esr100,exr/ReadingArea_rsl2-rcl69-esl100-rsm2-rcm11-esm100-rsr2-rcr25-esr100.exr,ReadingArea_rsl2-rcl69-esl100-rsm2-rcm11-esm100-rsr2-rcr25-esr100.npz,,,,,0,123,123,57,,right,red,1.22,640.559788942337,640.9007480144501,2,,3,4,brightness,readingArea,realistic,75,2023-03-17_15h19.17.333,tripletExp_regina_11082022,2022.2.4,119.67313398767403,
11,5,4,2,1.0,1.0,2,1.0,0.298245614035088,2,0.694444444444444,0.298245614035088,ReadingArea_rsl2-rcl100-esl100-rsm2-rcm100-esm29-rsr2-rcr69-esr29,exr/ReadingArea_rsl2-rcl100-esl100-rsm2-rcm100-esm29-rsr2-rcr69-esr29.exr,ReadingArea_rsl2-rcl100-esl100-rsm2-rcm100-esm29-rsr2-rcr69-esr29.npz,,,,,0,124,124,564,,left,green,3.19,644.3518099784851,644.7139301300049,2,,3,4,brightness,readingArea,realistic,75,2023-03-17_15h19.17.333,tripletExp_regina_11082022,2022.2.4,119.67313398767403,
8,9,1,2,0.25,1.0,2,0.444444444444444,1.0,2,0.111111111111111,0.298245614035088,ReadingArea_rsl2-rcl25-esl100-rsm2-rcm44-esm100-rsr2-rcr11-esr29,exr/ReadingArea_rsl2-rcl25-esl100-rsm2-rcm44-esm100-rsr2-rcr11-esr29.exr,ReadingArea_rsl2-rcl25-esl100-rsm2-rcm44-esm100-rsr2-rcr11-esr29.npz,,,,,0,125,125,266,,left,green,0.86,646.4140210151672,646.750874042511,2,,3,4,brightness,readingArea,realistic,75,2023-03-17_15h19.17.333,tripletExp_regina_11082022,2022.2.4,119.67313398767403,
6,4,13,2,0.027777777777778,1.0,2,0.694444444444444,0.298245614035088,2,0.111111111111111,3.10526315789474,ReadingArea_rsl2-rcl2-esl100-rsm2-rcm69-esm29-rsr2-rcr11-esr310,exr/ReadingArea_rsl2-rcl2-esl100-rsm2-rcm69-esm29-rsr2-rcr11-esr310.exr,ReadingArea_rsl2-rcl2-esl100-rsm2-rcm69-esm29-rsr2-rcr11-esr310.npz,,,,,0,126,126,202,,right,red,1.17,648.4628591537476,648.8020710945129,2,,3,4,brightness,readingArea,realistic,75,2023-03-17_15h19.17.333,tripletExp_regina_11082022,2022.2.4,119.67313398767403,
9,8,7,2,0.444444444444444,1.0,2,0.25,1.0,2,0.111111111111111,1.0,ReadingArea_rsl2-rcl44-esl100-rsm2-rcm25-esm100-rsr2-rcr11-esr100,exr/ReadingArea_rsl2-rcl44-esl100-rsm2-rcm25-esm100-rsr2-rcr11-esr100.exr,ReadingArea_rsl2-rcl44-esl100-rsm2-rcm25-esm100-rsr2-rcr11-esr100.npz,,,,,0,127,127,368,,left,green,1.4,650.5038990974426,650.8464529514313,2,,3,4,brightness,readingArea,realistic,75,2023-03-17_15h19.17.333,tripletExp_regina_11082022,2022.2.4,119.67313398767403,
9,13,5,2,0.444444444444444,1.0,2,0.111111111111111,3.10526315789474,2,1.0,0.298245614035088,ReadingArea_rsl2-rcl44-esl100-rsm2-rcm11-esm310-rsr2-rcr100-esr29,exr/ReadingArea_rsl2-rcl44-esl100-rsm2-rcm11-esm310-rsr2-rcr100-esr29.exr,ReadingArea_rsl2-rcl44-esl100-rsm2-rcm11-esm310-rsr2-rcr100-esr29.npz,,,,,0,128,128,349,,right,red,1.36,652.5361249446869,652.8793931007385,2,,3,4,brightness,readingArea,realistic,75,2023-03-17_15h19.17.333,tripletExp_regina_11082022,2022.2.4,119.67313398767403,
8,13,3,2,0.25,1.0,2,0.111111111111111,3.10526315789474,2,0.444444444444444,0.298245614035088,ReadingArea_rsl2-rcl25-esl100-rsm2-rcm11-esm310-rsr2-rcr44-esr29,exr/ReadingArea_rsl2-rcl25-esl100-rsm2-rcm11-esm310-rsr2-rcr44-esr29.exr,ReadingArea_rsl2-rcl25-esl100-rsm2-rcm11-esm310-rsr2-rcr44-esr29.npz,,,,,0,129,129,553,,left,green,1.32,654.5817079544067,654.9288611412048,2,,3,4,brightness,readingArea,realistic,75,2023-03-17_15h19.17.333,tripletExp_regina_11082022,2022.2.4,119.67313398767403,
1,4,7,2,0.111111111111111,0.298245614035088,2,0.694444444444444,0.298245614035088,2,0.111111111111111,1.0,ReadingArea_rsl2-rcl11-esl29-rsm2-rcm69-esm29-rsr2-rcr11-esr100,exr/ReadingArea_rsl2-rcl11-esl29-rsm2-rcm69-esm29-rsr2-rcr11-esr100.exr,ReadingArea_rsl2-rcl11-esl29-rsm2-rcm69-esm29-rsr2-rcr11-esr100.npz,,,,,0,130,130,522,,right,red,0.89,656.6416311264038,,2,,3,4,brightness,readingArea,realistic,75,2023-03-17_15h19.17.333,tripletExp_regina_11082022,2022.2.4,119.67313398767403,
5,12,7,2,1.0,0.298245614035088,2,0.027777777777778,3.10526315789474,2,0.111111111111111,1.0,ReadingArea_rsl2-rcl100-esl29-rsm2-rcm2-esm310-rsr2-rcr11-esr100,exr/ReadingArea_rsl2-rcl100-esl29-rsm2-rcm2-esm310-rsr2-rcr11-esr100.exr,ReadingArea_rsl2-rcl100-esl29-rsm2-rcm2-esm310-rsr2-rcr11-esr100.npz,,,,,0,131,131,447,,right,red,1.16,658.7098770141602,659.0552070140839,2,,3,4,brightness,readingArea,realistic,75,2023-03-17_15h19.17.333,tripletExp_regina_11082022,2022.2.4,119.67313398767403,
13,1,3,2,0.111111111111111,3.10526315789474,2,0.111111111111111,0.298245614035088,2,0.444444444444444,0.298245614035088,ReadingArea_rsl2-rcl11-esl310-rsm2-rcm11-esm29-rsr2-rcr44-esr29,exr/ReadingArea_rsl2-rcl11-esl310-rsm2-rcm11-esm29-rsr2-rcr44-esr29.exr,ReadingArea_rsl2-rcl11-esl310-rsm2-rcm11-esm29-rsr2-rcr44-esr29.npz,,,,,0,132,132,588,,right,red,1.15,660.7455589771271,661.0935821533203,2,,3,4,brightness,readingArea,realistic,75,2023-03-17_15h19.17.333,tripletExp_regina_11082022,2022.2.4,119.67313398767403,
11,7,12,2,1.0,1.0,2,0.111111111111111,1.0,2,0.027777777777778,3.10526315789474,ReadingArea_rsl2-rcl100-esl100-rsm2-rcm11-esm100-rsr2-rcr2-esr310,exr/ReadingArea_rsl2-rcl100-esl100-rsm2-rcm11-esm100-rsr2-rcr2-esr310.exr,ReadingArea_rsl2-rcl100-esl100-rsm2-rcm11-esm100-rsr2-rcr2-esr310.npz,,,,,0,133,133,352,,right,red,1.11,662.7960331439972,663.1403610706329,2,,3,4,brightness,readingArea,realistic,75,2023-03-17_15h19.17.333,tripletExp_regina_11082022,2022.2.4,119.67313398767403,
10,11,13,2,0.694444444444444,1.0,2,1.0,1.0,2,0.111111111111111,3.10526315789474,ReadingArea_rsl2-rcl69-esl100-rsm2-rcm100-esm100-rsr2-rcr11-esr310,exr/ReadingArea_rsl2-rcl69-esl100-rsm2-rcm100-esm100-rsr2-rcr11-esr310.exr,ReadingArea_rsl2-rcl69-esl100-rsm2-rcm100-esm100-rsr2-rcr11-esr310.npz,,,,,0,134,134,79,,left,green,0.98,664.8473610877991,665.193156003952,2,,3,4,brightness,readingArea,realistic,75,2023-03-17_15h19.17.333,tripletExp_regina_11082022,2022.2.4,119.67313398767403,
6,2,5,2,0.027777777777778,1.0,2,0.25,0.298245614035088,2,1.0,0.298245614035088,ReadingArea_rsl2-rcl2-esl100-rsm2-rcm25-esm29-rsr2-rcr100-esr29,exr/ReadingArea_rsl2-rcl2-esl100-rsm2-rcm25-esm29-rsr2-rcr100-esr29.exr,ReadingArea_rsl2-rcl2-esl100-rsm2-rcm25-esm29-rsr2-rcr100-esr29.npz,,,,,0,135,135,504,,right,red,3.4,668.6657781600952,669.0122950077057,2,,3,4,brightness,readingArea,realistic,75,2023-03-17_15h19.17.333,tripletExp_regina_11082022,2022.2.4,119.67313398767403,
13,10,11,2,0.111111111111111,3.10526315789474,2,0.694444444444444,1.0,2,1.0,1.0,ReadingArea_rsl2-rcl11-esl310-rsm2-rcm69-esm100-rsr2-rcr100-esr100,exr/ReadingArea_rsl2-rcl11-esl310-rsm2-rcm69-esm100-rsr2-rcr100-esr100.exr,ReadingArea_rsl2-rcl11-esl310-rsm2-rcm69-esm100-rsr2-rcr100-esr100.npz,,,,,0,136,136,320,,right,red,0.95,670.706787109375,671.0527300834656,2,,3,4,brightness,readingArea,realistic,75,2023-03-17_15h19.17.333,tripletExp_regina_11082022,2022.2.4,119.67313398767403,
0,4,9,2,0.027777777777778,0.298245614035088,2,0.694444444444444,0.298245614035088,2,0.444444444444444,1.0,ReadingArea_rsl2-rcl2-esl29-rsm2-rcm69-esm29-rsr2-rcr44-esr100,exr/ReadingArea_rsl2-rcl2-esl29-rsm2-rcm69-esm29-rsr2-rcr44-esr100.exr,ReadingArea_rsl2-rcl2-esl29-rsm2-rcm69-esm29-rsr2-rcr44-esr100.npz,,,,,0,137,137,21,,right,red,1.34,672.7620069980621,673.1094491481781,2,,3,4,brightness,readingArea,realistic,75,2023-03-17_15h19.17.333,tripletExp_regina_11082022,2022.2.4,119.67313398767403,
0,9,10,2,0.027777777777778,0.298245614035088,2,0.444444444444444,1.0,2,0.694444444444444,1.0,ReadingArea_rsl2-rcl2-esl29-rsm2-rcm44-esm100-rsr2-rcr69-esr100,exr/ReadingArea_rsl2-rcl2-esl29-rsm2-rcm44-esm100-rsr2-rcr69-esr100.exr,ReadingArea_rsl2-rcl2-esl29-rsm2-rcm44-esm100-rsr2-rcr69-esr100.npz,,,,,0,138,138,434,,right,red,0.99,674.8050329685211,675.1514921188354,2,,3,4,brightness,readingArea,realistic,75,2023-03-17_15h19.17.333,tripletExp_regina_11082022,2022.2.4,119.67313398767403,
14,7,0,2,0.25,3.10526315789474,2,0.111111111111111,1.0,2,0.027777777777778,0.298245614035088,ReadingArea_rsl2-rcl25-esl310-rsm2-rcm11-esm100-rsr2-rcr2-esr29,exr/ReadingArea_rsl2-rcl25-esl310-rsm2-rcm11-esm100-rsr2-rcr2-esr29.exr,ReadingArea_rsl2-rcl25-esl310-rsm2-rcm11-esm100-rsr2-rcr2-esr29.npz,,,,,0,139,139,412,,left,green,4.61,680.3595070838928,680.7192330360413,2,,3,4,brightness,readingArea,realistic,75,2023-03-17_15h19.17.333,tripletExp_regina_11082022,2022.2.4,119.67313398767403,
6,13,8,2,0.027777777777778,1.0,2,0.111111111111111,3.10526315789474,2,0.25,1.0,ReadingArea_rsl2-rcl2-esl100-rsm2-rcm11-esm310-rsr2-rcr25-esr100,exr/ReadingArea_rsl2-rcl2-esl100-rsm2-rcm11-esm310-rsr2-rcr25-esr100.exr,ReadingArea_rsl2-rcl2-esl100-rsm2-rcm11-esm310-rsr2-rcr25-esr100.npz,,,,,0,140,140,535,,right,red,0.91,682.4412441253662,682.7848789691925,2,,3,4,brightness,readingArea,realistic,75,2023-03-17_15h19.17.333,tripletExp_regina_11082022,2022.2.4,119.67313398767403,
7,13,12,2,0.111111111111111,1.0,2,0.111111111111111,3.10526315789474,2,0.027777777777778,3.10526315789474,ReadingArea_rsl2-rcl11-esl100-rsm2-rcm11-esm310-rsr2-rcr2-esr310,exr/ReadingArea_rsl2-rcl11-esl100-rsm2-rcm11-esm310-rsr2-rcr2-esr310.exr,ReadingArea_rsl2-rcl11-esl100-rsm2-rcm11-esm310-rsr2-rcr2-esr310.npz,,,,,0,141,141,438,,left,green,2.83,686.2503199577332,686.5978620052338,2,,3,4,brightness,readingArea,realistic,75,2023-03-17_15h19.17.333,tripletExp_regina_11082022,2022.2.4,119.67313398767403,
1,7,2,2,0.111111111111111,0.298245614035088,2,0.111111111111111,1.0,2,0.25,0.298245614035088,ReadingArea_rsl2-rcl11-esl29-rsm2-rcm11-esm100-rsr2-rcr25-esr29,exr/ReadingArea_rsl2-rcl11-esl29-rsm2-rcm11-esm100-rsr2-rcr25-esr29.exr,ReadingArea_rsl2-rcl11-esl29-rsm2-rcm11-esm100-rsr2-rcr25-esr29.npz,,,,,0,142,142,162,,right,red,1.12,688.3074300289154,688.6550550460815,2,,3,4,brightness,readingArea,realistic,75,2023-03-17_15h19.17.333,tripletExp_regina_11082022,2022.2.4,119.67313398767403,
14,12,0,2,0.25,3.10526315789474,2,0.027777777777778,3.10526315789474,2,0.027777777777778,0.298245614035088,ReadingArea_rsl2-rcl25-esl310-rsm2-rcm2-esm310-rsr2-rcr2-esr29,exr/ReadingArea_rsl2-rcl25-esl310-rsm2-rcm2-esm310-rsr2-rcr2-esr29.exr,ReadingArea_rsl2-rcl25-esl310-rsm2-rcm2-esm310-rsr2-rcr2-esr29.npz,,,,,0,143,143,409,,left,green,1.53,690.3411409854889,690.6905109882355,2,,3,4,brightness,readingArea,realistic,75,2023-03-17_15h19.17.333,tripletExp_regina_11082022,2022.2.4,119.67313398767403,
13,6,1,2,0.111111111111111,3.10526315789474,2,0.027777777777778,1.0,2,0.111111111111111,0.298245614035088,ReadingArea_rsl2-rcl11-esl310-rsm2-rcm2-esm100-rsr2-rcr11-esr29,exr/ReadingArea_rsl2-rcl11-esl310-rsm2-rcm2-esm100-rsr2-rcr11-esr29.exr,ReadingArea_rsl2-rcl11-esl310-rsm2-rcm2-esm100-rsr2-rcr11-esr29.npz,,,,,0,144,144,486,,right,red,1.25,692.3962690830231,692.738606929779,2,,3,4,brightness,readingArea,realistic,75,2023-03-17_15h19.17.333,tripletExp_regina_11082022,2022.2.4,119.67313398767403,
5,0,11,2,1.0,0.298245614035088,2,0.027777777777778,0.298245614035088,2,1.0,1.0,ReadingArea_rsl2-rcl100-esl29-rsm2-rcm2-esm29-rsr2-rcr100-esr100,exr/ReadingArea_rsl2-rcl100-esl29-rsm2-rcm2-esm29-rsr2-rcr100-esr100.exr,ReadingArea_rsl2-rcl100-esl29-rsm2-rcm2-esm29-rsr2-rcr100-esr100.npz,,,,,0,145,145,547,,left,green,1.08,694.4385249614716,694.7787301540375,2,,3,4,brightness,readingArea,realistic,75,2023-03-17_15h19.17.333,tripletExp_regina_11082022,2022.2.4,119.67313398767403,
9,11,3,2,0.444444444444444,1.0,2,1.0,1.0,2,0.444444444444444,0.298245614035088,ReadingArea_rsl2-rcl44-esl100-rsm2-rcm100-esm100-rsr2-rcr44-esr29,exr/ReadingArea_rsl2-rcl44-esl100-rsm2-rcm100-esm100-rsr2-rcr44-esr29.exr,ReadingArea_rsl2-rcl44-esl100-rsm2-rcm100-esm100-rsr2-rcr44-esr29.npz,,,,,0,146,146,348,,left,green,2.68,698.2196199893951,698.5612990856171,2,,3,4,brightness,readingArea,realistic,75,2023-03-17_15h19.17.333,tripletExp_regina_11082022,2022.2.4,119.67313398767403,
4,6,3,2,0.694444444444444,0.298245614035088,2,0.027777777777778,1.0,2,0.444444444444444,0.298245614035088,ReadingArea_rsl2-rcl69-esl29-rsm2-rcm2-esm100-rsr2-rcr44-esr29,exr/ReadingArea_rsl2-rcl69-esl29-rsm2-rcm2-esm100-rsr2-rcr44-esr29.exr,ReadingArea_rsl2-rcl69-esl29-rsm2-rcm2-esm100-rsr2-rcr44-esr29.npz,,,,,0,147,147,344,,right,red,1.35,700.2518451213837,700.5967080593109,2,,3,4,brightness,readingArea,realistic,75,2023-03-17_15h19.17.333,tripletExp_regina_11082022,2022.2.4,119.67313398767403,
7,0,2,2,0.111111111111111,1.0,2,0.027777777777778,0.298245614035088,2,0.25,0.298245614035088,ReadingArea_rsl2-rcl11-esl100-rsm2-rcm2-esm29-rsr2-rcr25-esr29,exr/ReadingArea_rsl2-rcl11-esl100-rsm2-rcm2-esm29-rsr2-rcr25-esr29.exr,ReadingArea_rsl2-rcl11-esl100-rsm2-rcm2-esm29-rsr2-rcr25-esr29.npz,,,,,0,148,148,347,,right,red,1.31,702.3140270709991,702.6559031009674,2,,3,4,brightness,readingArea,realistic,75,2023-03-17_15h19.17.333,tripletExp_regina_11082022,2022.2.4,119.67313398767403,
6,2,12,2,0.027777777777778,1.0,2,0.25,0.298245614035088,2,0.027777777777778,3.10526315789474,ReadingArea_rsl2-rcl2-esl100-rsm2-rcm25-esm29-rsr2-rcr2-esr310,exr/ReadingArea_rsl2-rcl2-esl100-rsm2-rcm25-esm29-rsr2-rcr2-esr310.exr,ReadingArea_rsl2-rcl2-esl100-rsm2-rcm25-esm29-rsr2-rcr2-esr310.npz,,,,,0,149,149,480,,right,red,2.31,706.1457099914551,706.3479089736938,2,,3,4,brightness,readingArea,realistic,75,2023-03-17_15h19.17.333,tripletExp_regina_11082022,2022.2.4,119.67313398767403,
14,9,0,2,0.25,3.10526315789474,2,0.444444444444444,1.0,2,0.027777777777778,0.298245614035088,ReadingArea_rsl2-rcl25-esl310-rsm2-rcm44-esm100-rsr2-rcr2-esr29,exr/ReadingArea_rsl2-rcl25-esl310-rsm2-rcm44-esm100-rsr2-rcr2-esr29.exr,ReadingArea_rsl2-rcl25-esl310-rsm2-rcm44-esm100-rsr2-rcr2-esr29.npz,,,,,0,150,150,313,,left,green,1.15,735.9143509864807,736.2669730186462,3,,3,4,brightness,readingArea,realistic,75,2023-03-17_15h19.17.333,tripletExp_regina_11082022,2022.2.4,119.67313398767403,
5,4,10,2,1.0,0.298245614035088,2,0.694444444444444,0.298245614035088,2,0.694444444444444,1.0,ReadingArea_rsl2-rcl100-esl29-rsm2-rcm69-esm29-rsr2-rcr69-esr100,exr/ReadingArea_rsl2-rcl100-esl29-rsm2-rcm69-esm29-rsr2-rcr69-esr100.exr,ReadingArea_rsl2-rcl100-esl29-rsm2-rcm69-esm29-rsr2-rcr69-esr100.npz,,,,,0,151,151,536,,left,green,1.38,737.9560461044312,738.3033831119537,3,,3,4,brightness,readingArea,realistic,75,2023-03-17_15h19.17.333,tripletExp_regina_11082022,2022.2.4,119.67313398767403,
14,7,13,2,0.25,3.10526315789474,2,0.111111111111111,1.0,2,0.111111111111111,3.10526315789474,ReadingArea_rsl2-rcl25-esl310-rsm2-rcm11-esm100-rsr2-rcr11-esr310,exr/ReadingArea_rsl2-rcl25-esl310-rsm2-rcm11-esm100-rsr2-rcr11-esr310.exr,ReadingArea_rsl2-rcl25-esl310-rsm2-rcm11-esm100-rsr2-rcr11-esr310.npz,,,,,0,152,152,358,,right,red,1.06,740.0071730613708,740.3533160686493,3,,3,4,brightness,readingArea,realistic,75,2023-03-17_15h19.17.333,tripletExp_regina_11082022,2022.2.4,119.67313398767403,
9,4,14,2,0.444444444444444,1.0,2,0.694444444444444,0.298245614035088,2,0.25,3.10526315789474,ReadingArea_rsl2-rcl44-esl100-rsm2-rcm69-esm29-rsr2-rcr25-esr310,exr/ReadingArea_rsl2-rcl44-esl100-rsm2-rcm69-esm29-rsr2-rcr25-esr310.exr,ReadingArea_rsl2-rcl44-esl100-rsm2-rcm69-esm29-rsr2-rcr25-esr310.npz,,,,,0,153,153,104,,left,green,0.71,742.044144153595,742.388589143753,3,,3,4,brightness,readingArea,realistic,75,2023-03-17_15h19.17.333,tripletExp_regina_11082022,2022.2.4,119.67313398767403,
5,3,4,2,1.0,0.298245614035088,2,0.444444444444444,0.298245614035088,2,0.694444444444444,0.298245614035088,ReadingArea_rsl2-rcl100-esl29-rsm2-rcm44-esm29-rsr2-rcr69-esr29,exr/ReadingArea_rsl2-rcl100-esl29-rsm2-rcm44-esm29-rsr2-rcr69-esr29.exr,ReadingArea_rsl2-rcl100-esl29-rsm2-rcm44-esm29-rsr2-rcr69-esr29.npz,,,,,0,154,154,201,,right,red,1.24,744.0824871063232,744.4299020767212,3,,3,4,brightness,readingArea,realistic,75,2023-03-17_15h19.17.333,tripletExp_regina_11082022,2022.2.4,119.67313398767403,
13,0,14,2,0.111111111111111,3.10526315789474,2,0.027777777777778,0.298245614035088,2,0.25,3.10526315789474,ReadingArea_rsl2-rcl11-esl310-rsm2-rcm2-esm29-rsr2-rcr25-esr310,exr/ReadingArea_rsl2-rcl11-esl310-rsm2-rcm2-esm29-rsr2-rcr25-esr310.exr,ReadingArea_rsl2-rcl11-esl310-rsm2-rcm2-esm29-rsr2-rcr25-esr310.npz,,,,,0,155,155,278,,left,green,0.93,746.1220800876617,,3,,3,4,brightness,readingArea,realistic,75,2023-03-17_15h19.17.333,tripletExp_regina_11082022,2022.2.4,119.67313398767403,
14,5,10,2,0.25,3.10526315789474,2,1.0,0.298245614035088,2,0.694444444444444,1.0,ReadingArea_rsl2-rcl25-esl310-rsm2-rcm100-esm29-rsr2-rcr69-esr100,exr/ReadingArea_rsl2-rcl25-esl310-rsm2-rcm100-esm29-rsr2-rcr69-esr100.exr,ReadingArea_rsl2-rcl25-esl310-rsm2-rcm100-esm29-rsr2-rcr69-esr100.npz,,,,,0,156,156,170,,right,red,1.53,748.175194978714,748.5249109268188,3,,3,4,brightness,readingArea,realistic,75,2023-03-17_15h19.17.333,tripletExp_regina_11082022,2022.2.4,119.67313398767403,
7,13,5,2,0.111111111111111,1.0,2,0.111111111111111,3.10526315789474,2,1.0,0.298245614035088,ReadingArea_rsl2-rcl11-esl100-rsm2-rcm11-esm310-rsr2-rcr100-esr29,exr/ReadingArea_rsl2-rcl11-esl100-rsm2-rcm11-esm310-rsr2-rcr100-esr29.exr,ReadingArea_rsl2-rcl11-esl100-rsm2-rcm11-esm310-rsr2-rcr100-esr29.npz,,,,,0,157,157,332,,right,red,0.87,750.2329180240631,750.5817351341248,3,,3,4,brightness,readingArea,realistic,75,2023-03-17_15h19.17.333,tripletExp_regina_11082022,2022.2.4,119.67313398767403,
2,8,3,2,0.25,0.298245614035088,2,0.25,1.0,2,0.444444444444444,0.298245614035088,ReadingArea_rsl2-rcl25-esl29-rsm2-rcm25-esm100-rsr2-rcr44-esr29,exr/ReadingArea_rsl2-rcl25-esl29-rsm2-rcm25-esm100-rsr2-rcr44-esr29.exr,ReadingArea_rsl2-rcl25-esl29-rsm2-rcm25-esm100-rsr2-rcr44-esr29.npz,,,,,0,158,158,568,,right,red,0.88,752.2725410461426,752.617203950882,3,,3,4,brightness,readingArea,realistic,75,2023-03-17_15h19.17.333,tripletExp_regina_11082022,2022.2.4,119.67313398767403,
0,8,7,2,0.027777777777778,0.298245614035088,2,0.25,1.0,2,0.111111111111111,1.0,ReadingArea_rsl2-rcl2-esl29-rsm2-rcm25-esm100-rsr2-rcr11-esr100,exr/ReadingArea_rsl2-rcl2-esl29-rsm2-rcm25-esm100-rsr2-rcr11-esr100.exr,ReadingArea_rsl2-rcl2-esl29-rsm2-rcm25-esm100-rsr2-rcr11-esr100.npz,,,,,0,159,159,9,,right,red,0.66,754.3261640071869,754.6731979846954,3,,3,4,brightness,readingArea,realistic,75,2023-03-17_15h19.17.333,tripletExp_regina_11082022,2022.2.4,119.67313398767403,
3,5,7,2,0.444444444444444,0.298245614035088,2,1.0,0.298245614035088,2,0.111111111111111,1.0,ReadingArea_rsl2-rcl44-esl29-rsm2-rcm100-esm29-rsr2-rcr11-esr100,exr/ReadingArea_rsl2-rcl44-esl29-rsm2-rcm100-esm29-rsr2-rcr11-esr100.exr,ReadingArea_rsl2-rcl44-esl29-rsm2-rcm100-esm29-rsr2-rcr11-esr100.npz,,,,,0,160,160,474,,right,red,1.08,756.3952069282532,756.7380220890045,3,,3,4,brightness,readingArea,realistic,75,2023-03-17_15h19.17.333,tripletExp_regina_11082022,2022.2.4,119.67313398767403,
8,12,7,2,0.25,1.0,2,0.027777777777778,3.10526315789474,2,0.111111111111111,1.0,ReadingArea_rsl2-rcl25-esl100-rsm2-rcm2-esm310-rsr2-rcr11-esr100,exr/ReadingArea_rsl2-rcl25-esl100-rsm2-rcm2-esm310-rsr2-rcr11-esr100.exr,ReadingArea_rsl2-rcl25-esl100-rsm2-rcm2-esm310-rsr2-rcr11-esr100.npz,,,,,0,161,161,467,,right,red,0.71,758.4512300491333,758.7981820106506,3,,3,4,brightness,readingArea,realistic,75,2023-03-17_15h19.17.333,tripletExp_regina_11082022,2022.2.4,119.67313398767403,
14,6,7,2,0.25,3.10526315789474,2,0.027777777777778,1.0,2,0.111111111111111,1.0,ReadingArea_rsl2-rcl25-esl310-rsm2-rcm2-esm100-rsr2-rcr11-esr100,exr/ReadingArea_rsl2-rcl25-esl310-rsm2-rcm2-esm100-rsr2-rcr11-esr100.exr,ReadingArea_rsl2-rcl25-esl310-rsm2-rcm2-esm100-rsr2-rcr11-esr100.npz,,,,,0,162,162,306,,right,red,0.66,760.4929020404816,760.8422009944916,3,,3,4,brightness,readingArea,realistic,75,2023-03-17_15h19.17.333,tripletExp_regina_11082022,2022.2.4,119.67313398767403,
3,4,11,2,0.444444444444444,0.298245614035088,2,0.694444444444444,0.298245614035088,2,1.0,1.0,ReadingArea_rsl2-rcl44-esl29-rsm2-rcm69-esm29-rsr2-rcr100-esr100,exr/ReadingArea_rsl2-rcl44-esl29-rsm2-rcm69-esm29-rsr2-rcr100-esr100.exr,ReadingArea_rsl2-rcl44-esl29-rsm2-rcm69-esm29-rsr2-rcr100-esr100.npz,,,,,0,163,163,207,,left,green,0.77,762.5462729930878,762.8908591270447,3,,3,4,brightness,readingArea,realistic,75,2023-03-17_15h19.17.333,tripletExp_regina_11082022,2022.2.4,119.67313398767403,
4,3,9,2,0.694444444444444,0.298245614035088,2,0.444444444444444,0.298245614035088,2,0.444444444444444,1.0,ReadingArea_rsl2-rcl69-esl29-rsm2-rcm44-esm29-rsr2-rcr44-esr100,exr/ReadingArea_rsl2-rcl69-esl29-rsm2-rcm44-esm29-rsr2-rcr44-esr100.exr,ReadingArea_rsl2-rcl69-esl29-rsm2-rcm44-esm29-rsr2-rcr44-esr100.npz,,,,,0,164,164,451,,left,green,0.67,764.6019809246063,764.9526870250702,3,,3,4,brightness,readingArea,realistic,75,2023-03-17_15h19.17.333,tripletExp_regina_11082022,2022.2.4,119.67313398767403,
14,7,1,2,0.25,3.10526315789474,2,0.111111111111111,1.0,2,0.111111111111111,0.298245614035088,ReadingArea_rsl2-rcl25-esl310-rsm2-rcm11-esm100-rsr2-rcr11-esr29,exr/ReadingArea_rsl2-rcl25-esl310-rsm2-rcm11-esm100-rsr2-rcr11-esr29.exr,ReadingArea_rsl2-rcl25-esl310-rsm2-rcm11-esm100-rsr2-rcr11-esr29.npz,,,,,0,165,165,298,,right,red,0.64,766.6477661132812,766.995491027832,3,,3,4,brightness,readingArea,realistic,75,2023-03-17_15h19.17.333,tripletExp_regina_11082022,2022.2.4,119.67313398767403,
8,3,9,2,0.25,1.0,2,0.444444444444444,0.298245614035088,2,0.444444444444444,1.0,ReadingArea_rsl2-rcl25-esl100-rsm2-rcm44-esm29-rsr2-rcr44-esr100,exr/ReadingArea_rsl2-rcl25-esl100-rsm2-rcm44-esm29-rsr2-rcr44-esr100.exr,ReadingArea_rsl2-rcl25-esl100-rsm2-rcm44-esm29-rsr2-rcr44-esr100.npz,,,,,0,166,166,15,,left,green,0.65,768.6973240375519,769.042827129364,3,,3,4,brightness,readingArea,realistic,75,2023-03-17_15h19.17.333,tripletExp_regina_11082022,2022.2.4,119.67313398767403,
12,14,4,2,0.027777777777778,3.10526315789474,2,0.25,3.10526315789474,2,0.694444444444444,0.298245614035088,ReadingArea_rsl2-rcl2-esl310-rsm2-rcm25-esm310-rsr2-rcr69-esr29,exr/ReadingArea_rsl2-rcl2-esl310-rsm2-rcm25-esm310-rsr2-rcr69-esr29.exr,ReadingArea_rsl2-rcl2-esl310-rsm2-rcm25-esm310-rsr2-rcr69-esr29.npz,,,,,0,167,167,315,,right,red,1.23,770.7499549388885,771.0966129302979,3,,3,4,brightness,readingArea,realistic,75,2023-03-17_15h19.17.333,tripletExp_regina_11082022,2022.2.4,119.67313398767403,
3,13,6,2,0.444444444444444,0.298245614035088,2,0.111111111111111,3.10526315789474,2,0.027777777777778,1.0,ReadingArea_rsl2-rcl44-esl29-rsm2-rcm11-esm310-rsr2-rcr2-esr100,exr/ReadingArea_rsl2-rcl44-esl29-rsm2-rcm11-esm310-rsr2-rcr2-esr100.exr,ReadingArea_rsl2-rcl44-esl29-rsm2-rcm11-esm310-rsr2-rcr2-esr100.npz,,,,,0,168,168,199,,left,green,0.86,772.8092639446259,773.1703131198883,3,,3,4,brightness,readingArea,realistic,75,2023-03-17_15h19.17.333,tripletExp_regina_11082022,2022.2.4,119.67313398767403,
7,8,3,2,0.111111111111111,1.0,2,0.25,1.0,2,0.444444444444444,0.298245614035088,ReadingArea_rsl2-rcl11-esl100-rsm2-rcm25-esm100-rsr2-rcr44-esr29,exr/ReadingArea_rsl2-rcl11-esl100-rsm2-rcm25-esm100-rsr2-rcr44-esr29.exr,ReadingArea_rsl2-rcl11-esl100-rsm2-rcm25-esm100-rsr2-rcr44-esr29.npz,,,,,0,169,169,459,,left,green,1.37,774.8763520717621,,3,,3,4,brightness,readingArea,realistic,75,2023-03-17_15h19.17.333,tripletExp_regina_11082022,2022.2.4,119.67313398767403,
2,10,6,2,0.25,0.298245614035088,2,0.694444444444444,1.0,2,0.027777777777778,1.0,ReadingArea_rsl2-rcl25-esl29-rsm2-rcm69-esm100-rsr2-rcr2-esr100,exr/ReadingArea_rsl2-rcl25-esl29-rsm2-rcm69-esm100-rsr2-rcr2-esr100.exr,ReadingArea_rsl2-rcl25-esl29-rsm2-rcm69-esm100-rsr2-rcr2-esr100.npz,,,,,0,170,170,4,,left,green,0.92,776.9435520172119,,3,,3,4,brightness,readingArea,realistic,75,2023-03-17_15h19.17.333,tripletExp_regina_11082022,2022.2.4,119.67313398767403,
4,3,11,2,0.694444444444444,0.298245614035088,2,0.444444444444444,0.298245614035088,2,1.0,1.0,ReadingArea_rsl2-rcl69-esl29-rsm2-rcm44-esm29-rsr2-rcr100-esr100,exr/ReadingArea_rsl2-rcl69-esl29-rsm2-rcm44-esm29-rsr2-rcr100-esr100.exr,ReadingArea_rsl2-rcl69-esl29-rsm2-rcm44-esm29-rsr2-rcr100-esr100.npz,,,,,0,171,171,439,,left,green,0.97,778.989758014679,779.3358280658722,3,,3,4,brightness,readingArea,realistic,75,2023-03-17_15h19.17.333,tripletExp_regina_11082022,2022.2.4,119.67313398767403,
1,3,12,2,0.111111111111111,0.298245614035088,2,0.444444444444444,0.298245614035088,2,0.027777777777778,3.10526315789474,ReadingArea_rsl2-rcl11-esl29-rsm2-rcm44-esm29-rsr2-rcr2-esr310,exr/ReadingArea_rsl2-rcl11-esl29-rsm2-rcm44-esm29-rsr2-rcr2-esr310.exr,ReadingArea_rsl2-rcl11-esl29-rsm2-rcm44-esm29-rsr2-rcr2-esr310.npz,,,,,0,172,172,323,,right,red,0.99,781.0265030860901,781.368684053421,3,,3,4,brightness,readingArea,realistic,75,2023-03-17_15h19.17.333,tripletExp_regina_11082022,2022.2.4,119.67313398767403,
4,10,9,2,0.694444444444444,0.298245614035088,2,0.694444444444444,1.0,2,0.444444444444444,1.0,ReadingArea_rsl2-rcl69-esl29-rsm2-rcm69-esm100-rsr2-rcr44-esr100,exr/ReadingArea_rsl2-rcl69-esl29-rsm2-rcm69-esm100-rsr2-rcr44-esr100.exr,ReadingArea_rsl2-rcl69-esl29-rsm2-rcm69-esm100-rsr2-rcr44-esr100.npz,,,,,0,173,173,516,,right,red,1.49,783.0814371109009,783.4273459911346,3,,3,4,brightness,readingArea,realistic,75,2023-03-17_15h19.17.333,tripletExp_regina_11082022,2022.2.4,119.67313398767403,
10,2,0,2,0.694444444444444,1.0,2,0.25,0.298245614035088,2,0.027777777777778,0.298245614035088,ReadingArea_rsl2-rcl69-esl100-rsm2-rcm25-esm29-rsr2-rcr2-esr29,exr/ReadingArea_rsl2-rcl69-esl100-rsm2-rcm25-esm29-rsr2-rcr2-esr29.exr,ReadingArea_rsl2-rcl69-esl100-rsm2-rcm25-esm29-rsr2-rcr2-esr29.npz,,,,,0,174,174,427,,left,green,1.16,785.1280131340027,,3,,3,4,brightness,readingArea,realistic,75,2023-03-17_15h19.17.333,tripletExp_regina_11082022,2022.2.4,119.67313398767403,
7,5,1,2,0.111111111111111,1.0,2,1.0,0.298245614035088,2,0.111111111111111,0.298245614035088,ReadingArea_rsl2-rcl11-esl100-rsm2-rcm100-esm29-rsr2-rcr11-esr29,exr/ReadingArea_rsl2-rcl11-esl100-rsm2-rcm100-esm29-rsr2-rcr11-esr29.exr,ReadingArea_rsl2-rcl11-esl100-rsm2-rcm100-esm29-rsr2-rcr11-esr29.npz,,,,,0,175,175,513,,left,green,1.13,787.2348549365997,787.5770471096039,3,,3,4,brightness,readingArea,realistic,75,2023-03-17_15h19.17.333,tripletExp_regina_11082022,2022.2.4,119.67313398767403,
0,4,7,2,0.027777777777778,0.298245614035088,2,0.694444444444444,0.298245614035088,2,0.111111111111111,1.0,ReadingArea_rsl2-rcl2-esl29-rsm2-rcm69-esm29-rsr2-rcr11-esr100,exr/ReadingArea_rsl2-rcl2-esl29-rsm2-rcm69-esm29-rsr2-rcr11-esr100.exr,ReadingArea_rsl2-rcl2-esl29-rsm2-rcm69-esm29-rsr2-rcr11-esr100.npz,,,,,0,176,176,200,,right,red,0.99,789.2963130474091,789.7388341426849,3,,3,4,brightness,readingArea,realistic,75,2023-03-17_15h19.17.333,tripletExp_regina_11082022,2022.2.4,119.67313398767403,
7,6,11,2,0.111111111111111,1.0,2,0.027777777777778,1.0,2,1.0,1.0,ReadingArea_rsl2-rcl11-esl100-rsm2-rcm2-esm100-rsr2-rcr100-esr100,exr/ReadingArea_rsl2-rcl11-esl100-rsm2-rcm2-esm100-rsr2-rcr100-esr100.exr,ReadingArea_rsl2-rcl11-esl100-rsm2-rcm2-esm100-rsr2-rcr100-esr100.npz,,,,,0,177,177,84,,left,green,1.0,791.4518351554871,791.7961740493774,3,,3,4,brightness,readingArea,realistic,75,2023-03-17_15h19.17.333,tripletExp_regina_11082022,2022.2.4,119.67313398767403,
5,10,12,2,1.0,0.298245614035088,2,0.694444444444444,1.0,2,0.027777777777778,3.10526315789474,ReadingArea_rsl2-rcl100-esl29-rsm2-rcm69-esm100-rsr2-rcr2-esr310,exr/ReadingArea_rsl2-rcl100-esl29-rsm2-rcm69-esm100-rsr2-rcr2-esr310.exr,ReadingArea_rsl2-rcl100-esl29-rsm2-rcm69-esm100-rsr2-rcr2-esr310.npz,,,,,0,178,178,587,,left,green,2.64,795.2896339893341,795.639564037323,3,,3,4,brightness,readingArea,realistic,75,2023-03-17_15h19.17.333,tripletExp_regina_11082022,2022.2.4,119.67313398767403,
2,1,6,2,0.25,0.298245614035088,2,0.111111111111111,0.298245614035088,2,0.027777777777778,1.0,ReadingArea_rsl2-rcl25-esl29-rsm2-rcm11-esm29-rsr2-rcr2-esr100,exr/ReadingArea_rsl2-rcl25-esl29-rsm2-rcm11-esm29-rsr2-rcr2-esr100.exr,ReadingArea_rsl2-rcl25-esl29-rsm2-rcm11-esm29-rsr2-rcr2-esr100.npz,,,,,0,179,179,171,,right,red,1.35,797.3461289405823,797.7264859676361,3,,3,4,brightness,readingArea,realistic,75,2023-03-17_15h19.17.333,tripletExp_regina_11082022,2022.2.4,119.67313398767403,
6,12,0,2,0.027777777777778,1.0,2,0.027777777777778,3.10526315789474,2,0.027777777777778,0.298245614035088,ReadingArea_rsl2-rcl2-esl100-rsm2-rcm2-esm310-rsr2-rcr2-esr29,exr/ReadingArea_rsl2-rcl2-esl100-rsm2-rcm2-esm310-rsr2-rcr2-esr29.exr,ReadingArea_rsl2-rcl2-esl100-rsm2-rcm2-esm310-rsr2-rcr2-esr29.npz,,,,,0,180,180,23,,left,green,2.39,801.1995761394501,801.5486240386963,3,,3,4,brightness,readingArea,realistic,75,2023-03-17_15h19.17.333,tripletExp_regina_11082022,2022.2.4,119.67313398767403,
9,4,6,2,0.444444444444444,1.0,2,0.694444444444444,0.298245614035088,2,0.027777777777778,1.0,ReadingArea_rsl2-rcl44-esl100-rsm2-rcm69-esm29-rsr2-rcr2-esr100,exr/ReadingArea_rsl2-rcl44-esl100-rsm2-rcm69-esm29-rsr2-rcr2-esr100.exr,ReadingArea_rsl2-rcl44-esl100-rsm2-rcm69-esm29-rsr2-rcr2-esr100.npz,,,,,0,181,181,453,,left,green,1.27,803.2680430412292,803.6349010467529,3,,3,4,brightness,readingArea,realistic,75,2023-03-17_15h19.17.333,tripletExp_regina_11082022,2022.2.4,119.67313398767403,
6,10,11,2,0.027777777777778,1.0,2,0.694444444444444,1.0,2,1.0,1.0,ReadingArea_rsl2-rcl2-esl100-rsm2-rcm69-esm100-rsr2-rcr100-esr100,exr/ReadingArea_rsl2-rcl2-esl100-rsm2-rcm69-esm100-rsr2-rcr100-esr100.exr,ReadingArea_rsl2-rcl2-esl100-rsm2-rcm69-esm100-rsr2-rcr100-esr100.npz,,,,,0,182,182,116,,right,red,0.88,805.3238890171051,805.6789610385895,3,,3,4,brightness,readingArea,realistic,75,2023-03-17_15h19.17.333,tripletExp_regina_11082022,2022.2.4,119.67313398767403,
1,12,10,2,0.111111111111111,0.298245614035088,2,0.027777777777778,3.10526315789474,2,0.694444444444444,1.0,ReadingArea_rsl2-rcl11-esl29-rsm2-rcm2-esm310-rsr2-rcr69-esr100,exr/ReadingArea_rsl2-rcl11-esl29-rsm2-rcm2-esm310-rsr2-rcr69-esr100.exr,ReadingArea_rsl2-rcl11-esl29-rsm2-rcm2-esm310-rsr2-rcr69-esr100.npz,,,,,0,183,183,567,,left,green,0.85,807.3666310310364,807.7401509284973,3,,3,4,brightness,readingArea,realistic,75,2023-03-17_15h19.17.333,tripletExp_regina_11082022,2022.2.4,119.67313398767403,
2,0,13,2,0.25,0.298245614035088,2,0.027777777777778,0.298245614035088,2,0.111111111111111,3.10526315789474,ReadingArea_rsl2-rcl25-esl29-rsm2-rcm2-esm29-rsr2-rcr11-esr310,exr/ReadingArea_rsl2-rcl25-esl29-rsm2-rcm2-esm29-rsr2-rcr11-esr310.exr,ReadingArea_rsl2-rcl25-esl29-rsm2-rcm2-esm29-rsr2-rcr11-esr310.npz,,,,,0,184,184,50,,left,green,0.92,809.4533619880676,809.7992701530457,3,,3,4,brightness,readingArea,realistic,75,2023-03-17_15h19.17.333,tripletExp_regina_11082022,2022.2.4,119.67313398767403,
9,13,6,2,0.444444444444444,1.0,2,0.111111111111111,3.10526315789474,2,0.027777777777778,1.0,ReadingArea_rsl2-rcl44-esl100-rsm2-rcm11-esm310-rsr2-rcr2-esr100,exr/ReadingArea_rsl2-rcl44-esl100-rsm2-rcm11-esm310-rsr2-rcr2-esr100.exr,ReadingArea_rsl2-rcl44-esl100-rsm2-rcm11-esm310-rsr2-rcr2-esr100.npz,,,,,0,185,185,13,,left,green,1.18,811.5034070014954,811.851567029953,3,,3,4,brightness,readingArea,realistic,75,2023-03-17_15h19.17.333,tripletExp_regina_11082022,2022.2.4,119.67313398767403,
5,9,12,2,1.0,0.298245614035088,2,0.444444444444444,1.0,2,0.027777777777778,3.10526315789474,ReadingArea_rsl2-rcl100-esl29-rsm2-rcm44-esm100-rsr2-rcr2-esr310,exr/ReadingArea_rsl2-rcl100-esl29-rsm2-rcm44-esm100-rsr2-rcr2-esr310.exr,ReadingArea_rsl2-rcl100-esl29-rsm2-rcm44-esm100-rsr2-rcr2-esr310.npz,,,,,0,186,186,539,,left,green,0.84,813.5444240570068,813.893895149231,3,,3,4,brightness,readingArea,realistic,75,2023-03-17_15h19.17.333,tripletExp_regina_11082022,2022.2.4,119.67313398767403,
1,13,7,2,0.111111111111111,0.298245614035088,2,0.111111111111111,3.10526315789474,2,0.111111111111111,1.0,ReadingArea_rsl2-rcl11-esl29-rsm2-rcm11-esm310-rsr2-rcr11-esr100,exr/ReadingArea_rsl2-rcl11-esl29-rsm2-rcm11-esm310-rsr2-rcr11-esr100.exr,ReadingArea_rsl2-rcl11-esl29-rsm2-rcm11-esm310-rsr2-rcr11-esr100.npz,,,,,0,187,187,158,,right,red,2.84,817.3819680213928,817.7312641143799,3,,3,4,brightness,readingArea,realistic,75,2023-03-17_15h19.17.333,tripletExp_regina_11082022,2022.2.4,119.67313398767403,
12,8,10,2,0.027777777777778,3.10526315789474,2,0.25,1.0,2,0.694444444444444,1.0,ReadingArea_rsl2-rcl2-esl310-rsm2-rcm25-esm100-rsr2-rcr69-esr100,exr/ReadingArea_rsl2-rcl2-esl310-rsm2-rcm25-esm100-rsr2-rcr69-esr100.exr,ReadingArea_rsl2-rcl2-esl310-rsm2-rcm25-esm100-rsr2-rcr69-esr100.npz,,,,,0,188,188,216,,right,red,1.26,819.4397101402283,819.7864351272583,3,,3,4,brightness,readingArea,realistic,75,2023-03-17_15h19.17.333,tripletExp_regina_11082022,2022.2.4,119.67313398767403,
1,5,14,2,0.111111111111111,0.298245614035088,2,1.0,0.298245614035088,2,0.25,3.10526315789474,ReadingArea_rsl2-rcl11-esl29-rsm2-rcm100-esm29-rsr2-rcr25-esr310,exr/ReadingArea_rsl2-rcl11-esl29-rsm2-rcm100-esm29-rsr2-rcr25-esr310.exr,ReadingArea_rsl2-rcl11-esl29-rsm2-rcm100-esm29-rsr2-rcr25-esr310.npz,,,,,0,189,189,191,,right,red,0.82,821.4891550540924,821.8389251232147,3,,3,4,brightness,readingArea,realistic,75,2023-03-17_15h19.17.333,tripletExp_regina_11082022,2022.2.4,119.67313398767403,
13,11,10,2,0.111111111111111,3.10526315789474,2,1.0,1.0,2,0.694444444444444,1.0,ReadingArea_rsl2-rcl11-esl310-rsm2-rcm100-esm100-rsr2-rcr69-esr100,exr/ReadingArea_rsl2-rcl11-esl310-rsm2-rcm100-esm100-rsr2-rcr69-esr100.exr,ReadingArea_rsl2-rcl11-esl310-rsm2-rcm100-esm100-rsr2-rcr69-esr100.npz,,,,,0,190,190,577,,right,red,0.7,823.5506100654602,823.8965599536896,3,,3,4,brightness,readingArea,realistic,75,2023-03-17_15h19.17.333,tripletExp_regina_11082022,2022.2.4,119.67313398767403,
0,10,14,2,0.027777777777778,0.298245614035088,2,0.694444444444444,1.0,2,0.25,3.10526315789474,ReadingArea_rsl2-rcl2-esl29-rsm2-rcm69-esm100-rsr2-rcr25-esr310,exr/ReadingArea_rsl2-rcl2-esl29-rsm2-rcm69-esm100-rsr2-rcr25-esr310.exr,ReadingArea_rsl2-rcl2-esl29-rsm2-rcm69-esm100-rsr2-rcr25-esr310.npz,,,,,0,191,191,31,,right,red,0.62,825.6028800010681,825.9539210796356,3,,3,4,brightness,readingArea,realistic,75,2023-03-17_15h19.17.333,tripletExp_regina_11082022,2022.2.4,119.67313398767403,
4,10,11,2,0.694444444444444,0.298245614035088,2,0.694444444444444,1.0,2,1.0,1.0,ReadingArea_rsl2-rcl69-esl29-rsm2-rcm69-esm100-rsr2-rcr100-esr100,exr/ReadingArea_rsl2-rcl69-esl29-rsm2-rcm69-esm100-rsr2-rcr100-esr100.exr,ReadingArea_rsl2-rcl69-esl29-rsm2-rcm69-esm100-rsr2-rcr100-esr100.npz,,,,,0,192,192,180,,right,red,0.79,827.6562299728394,828.0047421455383,3,,3,4,brightness,readingArea,realistic,75,2023-03-17_15h19.17.333,tripletExp_regina_11082022,2022.2.4,119.67313398767403,
1,13,11,2,0.111111111111111,0.298245614035088,2,0.111111111111111,3.10526315789474,2,1.0,1.0,ReadingArea_rsl2-rcl11-esl29-rsm2-rcm11-esm310-rsr2-rcr100-esr100,exr/ReadingArea_rsl2-rcl11-esl29-rsm2-rcm11-esm310-rsr2-rcr100-esr100.exr,ReadingArea_rsl2-rcl11-esl29-rsm2-rcm11-esm310-rsr2-rcr100-esr100.npz,,,,,0,193,193,333,,right,red,2.95,831.4901700019836,831.8428881168365,3,,3,4,brightness,readingArea,realistic,75,2023-03-17_15h19.17.333,tripletExp_regina_11082022,2022.2.4,119.67313398767403,
1,14,0,2,0.111111111111111,0.298245614035088,2,0.25,3.10526315789474,2,0.027777777777778,0.298245614035088,ReadingArea_rsl2-rcl11-esl29-rsm2-rcm25-esm310-rsr2-rcr2-esr29,exr/ReadingArea_rsl2-rcl11-esl29-rsm2-rcm25-esm310-rsr2-rcr2-esr29.exr,ReadingArea_rsl2-rcl11-esl29-rsm2-rcm25-esm310-rsr2-rcr2-esr29.npz,,,,,0,194,194,394,,left,green,1.36,833.5415079593658,833.889701128006,3,,3,4,brightness,readingArea,realistic,75,2023-03-17_15h19.17.333,tripletExp_regina_11082022,2022.2.4,119.67313398767403,
10,14,1,2,0.694444444444444,1.0,2,0.25,3.10526315789474,2,0.111111111111111,0.298245614035088,ReadingArea_rsl2-rcl69-esl100-rsm2-rcm25-esm310-rsr2-rcr11-esr29,exr/ReadingArea_rsl2-rcl69-esl100-rsm2-rcm25-esm310-rsr2-rcr11-esr29.exr,ReadingArea_rsl2-rcl69-esl100-rsm2-rcm25-esm310-rsr2-rcr11-esr29.npz,,,,,0,195,195,544,,left,green,0.68,835.5973370075226,835.9497690200806,3,,3,4,brightness,readingArea,realistic,75,2023-03-17_15h19.17.333,tripletExp_regina_11082022,2022.2.4,119.67313398767403,
13,7,6,2,0.111111111111111,3.10526315789474,2,0.111111111111111,1.0,2,0.027777777777778,1.0,ReadingArea_rsl2-rcl11-esl310-rsm2-rcm11-esm100-rsr2-rcr2-esr100,exr/ReadingArea_rsl2-rcl11-esl310-rsm2-rcm11-esm100-rsr2-rcr2-esr100.exr,ReadingArea_rsl2-rcl11-esl310-rsm2-rcm11-esm100-rsr2-rcr2-esr100.npz,,,,,0,196,196,283,,left,green,2.83,839.439551115036,839.7917449474335,3,,3,4,brightness,readingArea,realistic,75,2023-03-17_15h19.17.333,tripletExp_regina_11082022,2022.2.4,119.67313398767403,
8,9,2,2,0.25,1.0,2,0.444444444444444,1.0,2,0.25,0.298245614035088,ReadingArea_rsl2-rcl25-esl100-rsm2-rcm44-esm100-rsr2-rcr25-esr29,exr/ReadingArea_rsl2-rcl25-esl100-rsm2-rcm44-esm100-rsr2-rcr25-esr29.exr,ReadingArea_rsl2-rcl25-esl100-rsm2-rcm44-esm100-rsr2-rcr25-esr29.npz,,,,,0,197,197,559,,left,green,1.28,841.5144131183624,841.885899066925,3,,3,4,brightness,readingArea,realistic,75,2023-03-17_15h19.17.333,tripletExp_regina_11082022,2022.2.4,119.67313398767403,
5,10,0,2,1.0,0.298245614035088,2,0.694444444444444,1.0,2,0.027777777777778,0.298245614035088,ReadingArea_rsl2-rcl100-esl29-rsm2-rcm69-esm100-rsr2-rcr2-esr29,exr/ReadingArea_rsl2-rcl100-esl29-rsm2-rcm69-esm100-rsr2-rcr2-esr29.exr,ReadingArea_rsl2-rcl100-esl29-rsm2-rcm69-esm100-rsr2-rcr2-esr29.npz,,,,,0,198,198,293,,left,green,0.7,843.6086750030518,843.9559650421143,3,,3,4,brightness,readingArea,realistic,75,2023-03-17_15h19.17.333,tripletExp_regina_11082022,2022.2.4,119.67313398767403,
11,12,1,2,1.0,1.0,2,0.027777777777778,3.10526315789474,2,0.111111111111111,0.298245614035088,ReadingArea_rsl2-rcl100-esl100-rsm2-rcm2-esm310-rsr2-rcr11-esr29,exr/ReadingArea_rsl2-rcl100-esl100-rsm2-rcm2-esm310-rsr2-rcr11-esr29.exr,ReadingArea_rsl2-rcl100-esl100-rsm2-rcm2-esm310-rsr2-rcr11-esr29.npz,,,,,0,199,199,140,,right,red,0.84,845.6759960651398,846.0225820541382,3,,3,4,brightness,readingArea,realistic,75,2023-03-17_15h19.17.333,tripletExp_regina_11082022,2022.2.4,119.67313398767403,
0,9,14,2,0.027777777777778,0.298245614035088,2,0.444444444444444,1.0,2,0.25,3.10526315789474,ReadingArea_rsl2-rcl2-esl29-rsm2-rcm44-esm100-rsr2-rcr25-esr310,exr/ReadingArea_rsl2-rcl2-esl29-rsm2-rcm44-esm100-rsr2-rcr25-esr310.exr,ReadingArea_rsl2-rcl2-esl29-rsm2-rcm44-esm100-rsr2-rcr25-esr310.npz,,,,,0,200,200,433,,right,red,0.67,847.7355041503906,848.0812339782715,3,,3,4,brightness,readingArea,realistic,75,2023-03-17_15h19.17.333,tripletExp_regina_11082022,2022.2.4,119.67313398767403,
2,4,14,2,0.25,0.298245614035088,2,0.694444444444444,0.298245614035088,2,0.25,3.10526315789474,ReadingArea_rsl2-rcl25-esl29-rsm2-rcm69-esm29-rsr2-rcr25-esr310,exr/ReadingArea_rsl2-rcl25-esl29-rsm2-rcm69-esm29-rsr2-rcr25-esr310.exr,ReadingArea_rsl2-rcl25-esl29-rsm2-rcm69-esm29-rsr2-rcr25-esr310.npz,,,,,0,201,201,356,,right,red,1.26,849.7947199344635,850.141480922699,3,,3,4,brightness,readingArea,realistic,75,2023-03-17_15h19.17.333,tripletExp_regina_11082022,2022.2.4,119.67313398767403,
10,7,2,2,0.694444444444444,1.0,2,0.111111111111111,1.0,2,0.25,0.298245614035088,ReadingArea_rsl2-rcl69-esl100-rsm2-rcm11-esm100-rsr2-rcr25-esr29,exr/ReadingArea_rsl2-rcl69-esl100-rsm2-rcm11-esm100-rsr2-rcr25-esr29.exr,ReadingArea_rsl2-rcl69-esl100-rsm2-rcm11-esm100-rsr2-rcr25-esr29.npz,,,,,0,202,202,523,,right,red,0.93,851.84912109375,852.2046959400177,3,,3,4,brightness,readingArea,realistic,75,2023-03-17_15h19.17.333,tripletExp_regina_11082022,2022.2.4,119.67313398767403,
12,9,13,2,0.027777777777778,3.10526315789474,2,0.444444444444444,1.0,2,0.111111111111111,3.10526315789474,ReadingArea_rsl2-rcl2-esl310-rsm2-rcm44-esm100-rsr2-rcr11-esr310,exr/ReadingArea_rsl2-rcl2-esl310-rsm2-rcm44-esm100-rsr2-rcr11-esr310.exr,ReadingArea_rsl2-rcl2-esl310-rsm2-rcm44-esm100-rsr2-rcr11-esr310.npz,,,,,0,203,203,529,,right,red,0.6,853.9160001277924,854.26970911026,3,,3,4,brightness,readingArea,realistic,75,2023-03-17_15h19.17.333,tripletExp_regina_11082022,2022.2.4,119.67313398767403,
