index_left,index_middle,index_right,reflectance_surround_left,reflectance_center_left,emission_spot_left,reflectance_surround_middle,reflectance_center_middle,emission_spot_middle,reflectance_surround_right,reflectance_center_right,emission_spot_right,ImageName,ImageExr,ImageNpy,trials_2.thisRepN,trials_2.thisTrialN,trials_2.thisN,trials_2.thisIndex,trials.thisRepN,trials.thisTrialN,trials.thisN,trials.thisIndex,sound_1.started,BB_Trial.resp,BB_Trial.color,BB_Trial.rt,text.started,text.stopped,sound_2.started,block,participant,session,L/B,scene,condition,nTrialsPerBlock,date,expName,psychopyVersion,frameRate,Unnamed: 41
2,6,10,2,0.25,0.298245614035088,2,0.027777777777778,1.0,2,0.694444444444444,1.0,ReadingArea_rsl2-rcl25-esl29-rsm2-rcm2-esm100-rsr2-rcr69-esr100,exr/ReadingArea_rsl2-rcl25-esl29-rsm2-rcm2-esm100-rsr2-rcr69-esr100.exr,ReadingArea_rsl2-rcl25-esl29-rsm2-rcm2-esm100-rsr2-rcr69-esr100.npz,,,,,0,0,0,42,175.50385837554933,left,green,1.21,183.71074604988087,184.1957330703736,163.15416054725648,1,8,6,lightness,readingArea,realistic,75,2023-03-29_15h04.35.335,tripletExp_regina_11082022,2022.2.4,119.39617356451735,
6,14,10,2,0.027777777777778,1.0,2,0.25,3.10526315789474,2,0.694444444444444,1.0,ReadingArea_rsl2-rcl2-esl100-rsm2-rcm25-esm310-rsr2-rcr69-esr100,exr/ReadingArea_rsl2-rcl2-esl100-rsm2-rcm25-esm310-rsr2-rcr69-esr100.exr,ReadingArea_rsl2-rcl2-esl100-rsm2-rcm25-esm310-rsr2-rcr69-esr100.npz,,,,,0,1,1,413,,right,red,1.0,185.92019295692444,,,1,8,6,lightness,readingArea,realistic,75,2023-03-29_15h04.35.335,tripletExp_regina_11082022,2022.2.4,119.39617356451735,
9,7,10,2,0.444444444444444,1.0,2,0.111111111111111,1.0,2,0.694444444444444,1.0,ReadingArea_rsl2-rcl44-esl100-rsm2-rcm11-esm100-rsr2-rcr69-esr100,exr/ReadingArea_rsl2-rcl44-esl100-rsm2-rcm11-esm100-rsr2-rcr69-esr100.exr,ReadingArea_rsl2-rcl44-esl100-rsm2-rcm11-esm100-rsr2-rcr69-esr100.npz,,,,,0,2,2,508,,left,green,2.81,189.87254190444943,190.3757760524749,,1,8,6,lightness,readingArea,realistic,75,2023-03-29_15h04.35.335,tripletExp_regina_11082022,2022.2.4,119.39617356451735,
0,4,12,2,0.027777777777778,0.298245614035088,2,0.694444444444444,0.298245614035088,2,0.027777777777778,3.10526315789474,ReadingArea_rsl2-rcl2-esl29-rsm2-rcm69-esm29-rsr2-rcr2-esr310,exr/ReadingArea_rsl2-rcl2-esl29-rsm2-rcm69-esm29-rsr2-rcr2-esr310.exr,ReadingArea_rsl2-rcl2-esl29-rsm2-rcm69-esm29-rsr2-rcr2-esr310.npz,,,,,0,3,3,150,,right,red,2.11,193.8738989830017,194.3706030845642,,1,8,6,lightness,readingArea,realistic,75,2023-03-29_15h04.35.335,tripletExp_regina_11082022,2022.2.4,119.39617356451735,
5,3,4,2,1.0,0.298245614035088,2,0.444444444444444,0.298245614035088,2,0.694444444444444,0.298245614035088,ReadingArea_rsl2-rcl100-esl29-rsm2-rcm44-esm29-rsr2-rcr69-esr29,exr/ReadingArea_rsl2-rcl100-esl29-rsm2-rcm44-esm29-rsr2-rcr69-esr29.exr,ReadingArea_rsl2-rcl100-esl29-rsm2-rcm44-esm29-rsr2-rcr69-esr29.npz,,,,,0,4,4,201,,right,red,2.49,197.8458549976349,198.31901788711548,,1,8,6,lightness,readingArea,realistic,75,2023-03-29_15h04.35.335,tripletExp_regina_11082022,2022.2.4,119.39617356451735,
12,4,9,2,0.027777777777778,3.10526315789474,2,0.694444444444444,0.298245614035088,2,0.444444444444444,1.0,ReadingArea_rsl2-rcl2-esl310-rsm2-rcm69-esm29-rsr2-rcr44-esr100,exr/ReadingArea_rsl2-rcl2-esl310-rsm2-rcm69-esm29-rsr2-rcr44-esr100.exr,ReadingArea_rsl2-rcl2-esl310-rsm2-rcm69-esm29-rsr2-rcr44-esr100.npz,,,,,0,5,5,380,,right,red,2.25,201.79303908348083,202.2699179649353,,1,8,6,lightness,readingArea,realistic,75,2023-03-29_15h04.35.335,tripletExp_regina_11082022,2022.2.4,119.39617356451735,
14,13,0,2,0.25,3.10526315789474,2,0.111111111111111,3.10526315789474,2,0.027777777777778,0.298245614035088,ReadingArea_rsl2-rcl25-esl310-rsm2-rcm11-esm310-rsr2-rcr2-esr29,exr/ReadingArea_rsl2-rcl25-esl310-rsm2-rcm11-esm310-rsr2-rcr2-esr29.exr,ReadingArea_rsl2-rcl25-esl310-rsm2-rcm11-esm310-rsr2-rcr2-esr29.npz,,,,,0,6,6,417,,left,green,0.76,203.97934794425964,204.4279239177704,,1,8,6,lightness,readingArea,realistic,75,2023-03-29_15h04.35.335,tripletExp_regina_11082022,2022.2.4,119.39617356451735,
4,3,9,2,0.694444444444444,0.298245614035088,2,0.444444444444444,0.298245614035088,2,0.444444444444444,1.0,ReadingArea_rsl2-rcl69-esl29-rsm2-rcm44-esm29-rsr2-rcr44-esr100,exr/ReadingArea_rsl2-rcl69-esl29-rsm2-rcm44-esm29-rsr2-rcr44-esr100.exr,ReadingArea_rsl2-rcl69-esl29-rsm2-rcm44-esm29-rsr2-rcr44-esr100.npz,,,,,0,7,7,451,,left,green,1.2,206.14071893692017,,,1,8,6,lightness,readingArea,realistic,75,2023-03-29_15h04.35.335,tripletExp_regina_11082022,2022.2.4,119.39617356451735,
14,6,11,2,0.25,3.10526315789474,2,0.027777777777778,1.0,2,1.0,1.0,ReadingArea_rsl2-rcl25-esl310-rsm2-rcm2-esm100-rsr2-rcr100-esr100,exr/ReadingArea_rsl2-rcl25-esl310-rsm2-rcm2-esm100-rsr2-rcr100-esr100.exr,ReadingArea_rsl2-rcl25-esl310-rsm2-rcm2-esm100-rsr2-rcr100-esr100.npz,,,,,0,8,8,337,,left,green,1.4,208.40895700454712,208.90890502929688,,1,8,6,lightness,readingArea,realistic,75,2023-03-29_15h04.35.335,tripletExp_regina_11082022,2022.2.4,119.39617356451735,
6,2,12,2,0.027777777777778,1.0,2,0.25,0.298245614035088,2,0.027777777777778,3.10526315789474,ReadingArea_rsl2-rcl2-esl100-rsm2-rcm25-esm29-rsr2-rcr2-esr310,exr/ReadingArea_rsl2-rcl2-esl100-rsm2-rcm25-esm29-rsr2-rcr2-esr310.exr,ReadingArea_rsl2-rcl2-esl100-rsm2-rcm25-esm29-rsr2-rcr2-esr310.npz,,,,,0,9,9,480,,right,red,2.54,212.36664295196533,,,1,8,6,lightness,readingArea,realistic,75,2023-03-29_15h04.35.335,tripletExp_regina_11082022,2022.2.4,119.39617356451735,
3,13,12,2,0.444444444444444,0.298245614035088,2,0.111111111111111,3.10526315789474,2,0.027777777777778,3.10526315789474,ReadingArea_rsl2-rcl44-esl29-rsm2-rcm11-esm310-rsr2-rcr2-esr310,exr/ReadingArea_rsl2-rcl44-esl29-rsm2-rcm11-esm310-rsr2-rcr2-esr310.exr,ReadingArea_rsl2-rcl44-esl29-rsm2-rcm11-esm310-rsr2-rcr2-esr310.npz,,,,,0,10,10,34,,left,green,1.08,214.55041408538816,,,1,8,6,lightness,readingArea,realistic,75,2023-03-29_15h04.35.335,tripletExp_regina_11082022,2022.2.4,119.39617356451735,
5,11,14,2,1.0,0.298245614035088,2,1.0,1.0,2,0.25,3.10526315789474,ReadingArea_rsl2-rcl100-esl29-rsm2-rcm100-esm100-rsr2-rcr25-esr310,exr/ReadingArea_rsl2-rcl100-esl29-rsm2-rcm100-esm100-rsr2-rcr25-esr310.exr,ReadingArea_rsl2-rcl100-esl29-rsm2-rcm100-esm100-rsr2-rcr25-esr310.npz,,,,,0,11,11,258,,right,red,3.21,218.50614404678345,218.9905080795288,,1,8,6,lightness,readingArea,realistic,75,2023-03-29_15h04.35.335,tripletExp_regina_11082022,2022.2.4,119.39617356451735,
12,6,9,2,0.027777777777778,3.10526315789474,2,0.027777777777778,1.0,2,0.444444444444444,1.0,ReadingArea_rsl2-rcl2-esl310-rsm2-rcm2-esm100-rsr2-rcr44-esr100,exr/ReadingArea_rsl2-rcl2-esl310-rsm2-rcm2-esm100-rsr2-rcr44-esr100.exr,ReadingArea_rsl2-rcl2-esl310-rsm2-rcm2-esm100-rsr2-rcr44-esr100.npz,,,,,0,12,12,177,,left,green,1.24,220.7061538696289,221.22055888175964,,1,8,6,lightness,readingArea,realistic,75,2023-03-29_15h04.35.335,tripletExp_regina_11082022,2022.2.4,119.39617356451735,
3,13,1,2,0.444444444444444,0.298245614035088,2,0.111111111111111,3.10526315789474,2,0.111111111111111,0.298245614035088,ReadingArea_rsl2-rcl44-esl29-rsm2-rcm11-esm310-rsr2-rcr11-esr29,exr/ReadingArea_rsl2-rcl44-esl29-rsm2-rcm11-esm310-rsr2-rcr11-esr29.exr,ReadingArea_rsl2-rcl44-esl29-rsm2-rcm11-esm310-rsr2-rcr11-esr29.npz,,,,,0,13,13,421,,left,green,2.29,224.6642129421234,225.13308906555176,,1,8,6,lightness,readingArea,realistic,75,2023-03-29_15h04.35.335,tripletExp_regina_11082022,2022.2.4,119.39617356451735,
10,9,6,2,0.694444444444444,1.0,2,0.444444444444444,1.0,2,0.027777777777778,1.0,ReadingArea_rsl2-rcl69-esl100-rsm2-rcm44-esm100-rsr2-rcr2-esr100,exr/ReadingArea_rsl2-rcl69-esl100-rsm2-rcm44-esm100-rsr2-rcr2-esr100.exr,ReadingArea_rsl2-rcl69-esl100-rsm2-rcm44-esm100-rsr2-rcr2-esr100.npz,,,,,0,14,14,35,,left,green,0.9,226.8571219444275,227.3709020614624,,1,8,6,lightness,readingArea,realistic,75,2023-03-29_15h04.35.335,tripletExp_regina_11082022,2022.2.4,119.39617356451735,
7,8,14,2,0.111111111111111,1.0,2,0.25,1.0,2,0.25,3.10526315789474,ReadingArea_rsl2-rcl11-esl100-rsm2-rcm25-esm100-rsr2-rcr25-esr310,exr/ReadingArea_rsl2-rcl11-esl100-rsm2-rcm25-esm100-rsr2-rcr25-esr310.exr,ReadingArea_rsl2-rcl11-esl100-rsm2-rcm25-esm100-rsr2-rcr25-esr310.npz,,,,,0,15,15,300,,left,green,1.2,229.0803020000457,229.5549468994141,,1,8,6,lightness,readingArea,realistic,75,2023-03-29_15h04.35.335,tripletExp_regina_11082022,2022.2.4,119.39617356451735,
5,4,12,2,1.0,0.298245614035088,2,0.694444444444444,0.298245614035088,2,0.027777777777778,3.10526315789474,ReadingArea_rsl2-rcl100-esl29-rsm2-rcm69-esm29-rsr2-rcr2-esr310,exr/ReadingArea_rsl2-rcl100-esl29-rsm2-rcm69-esm29-rsr2-rcr2-esr310.exr,ReadingArea_rsl2-rcl100-esl29-rsm2-rcm69-esm29-rsr2-rcr2-esr310.npz,,,,,0,16,16,82,,left,green,0.94,231.25949692726127,231.7609989643097,,1,8,6,lightness,readingArea,realistic,75,2023-03-29_15h04.35.335,tripletExp_regina_11082022,2022.2.4,119.39617356451735,
8,11,1,2,0.25,1.0,2,1.0,1.0,2,0.111111111111111,0.298245614035088,ReadingArea_rsl2-rcl25-esl100-rsm2-rcm100-esm100-rsr2-rcr11-esr29,exr/ReadingArea_rsl2-rcl25-esl100-rsm2-rcm100-esm100-rsr2-rcr11-esr29.exr,ReadingArea_rsl2-rcl25-esl100-rsm2-rcm100-esm100-rsr2-rcr11-esr29.npz,,,,,0,17,17,132,,left,green,2.4,235.234925031662,235.72718596458435,,1,8,6,lightness,readingArea,realistic,75,2023-03-29_15h04.35.335,tripletExp_regina_11082022,2022.2.4,119.39617356451735,
10,11,0,2,0.694444444444444,1.0,2,1.0,1.0,2,0.027777777777778,0.298245614035088,ReadingArea_rsl2-rcl69-esl100-rsm2-rcm100-esm100-rsr2-rcr2-esr29,exr/ReadingArea_rsl2-rcl69-esl100-rsm2-rcm100-esm100-rsr2-rcr2-esr29.exr,ReadingArea_rsl2-rcl69-esl100-rsm2-rcm100-esm100-rsr2-rcr2-esr29.npz,,,,,0,18,18,58,,left,green,0.79,237.41728901863087,237.90969896316528,,1,8,6,lightness,readingArea,realistic,75,2023-03-29_15h04.35.335,tripletExp_regina_11082022,2022.2.4,119.39617356451735,
13,3,12,2,0.111111111111111,3.10526315789474,2,0.444444444444444,0.298245614035088,2,0.027777777777778,3.10526315789474,ReadingArea_rsl2-rcl11-esl310-rsm2-rcm44-esm29-rsr2-rcr2-esr310,exr/ReadingArea_rsl2-rcl11-esl310-rsm2-rcm44-esm29-rsr2-rcr2-esr310.exr,ReadingArea_rsl2-rcl11-esl310-rsm2-rcm44-esm29-rsr2-rcr2-esr310.npz,,,,,0,19,19,80,,left,green,2.2,241.38630485534668,241.85677099227905,,1,8,6,lightness,readingArea,realistic,75,2023-03-29_15h04.35.335,tripletExp_regina_11082022,2022.2.4,119.39617356451735,
0,12,7,2,0.027777777777778,0.298245614035088,2,0.027777777777778,3.10526315789474,2,0.111111111111111,1.0,ReadingArea_rsl2-rcl2-esl29-rsm2-rcm2-esm310-rsr2-rcr11-esr100,exr/ReadingArea_rsl2-rcl2-esl29-rsm2-rcm2-esm310-rsr2-rcr11-esr100.exr,ReadingArea_rsl2-rcl2-esl29-rsm2-rcm2-esm310-rsr2-rcr11-esr100.npz,,,,,0,20,20,481,,left,green,0.98,243.5796539783477,,,1,8,6,lightness,readingArea,realistic,75,2023-03-29_15h04.35.335,tripletExp_regina_11082022,2022.2.4,119.39617356451735,
13,9,4,2,0.111111111111111,3.10526315789474,2,0.444444444444444,1.0,2,0.694444444444444,0.298245614035088,ReadingArea_rsl2-rcl11-esl310-rsm2-rcm44-esm100-rsr2-rcr69-esr29,exr/ReadingArea_rsl2-rcl11-esl310-rsm2-rcm44-esm100-rsr2-rcr69-esr29.exr,ReadingArea_rsl2-rcl11-esl310-rsm2-rcm44-esm100-rsr2-rcr69-esr29.npz,,,,,0,21,21,444,,right,red,1.48,245.7212419509888,,,1,8,6,lightness,readingArea,realistic,75,2023-03-29_15h04.35.335,tripletExp_regina_11082022,2022.2.4,119.39617356451735,
4,11,14,2,0.694444444444444,0.298245614035088,2,1.0,1.0,2,0.25,3.10526315789474,ReadingArea_rsl2-rcl69-esl29-rsm2-rcm100-esm100-rsr2-rcr25-esr310,exr/ReadingArea_rsl2-rcl69-esl29-rsm2-rcm100-esm100-rsr2-rcr25-esr310.exr,ReadingArea_rsl2-rcl69-esl29-rsm2-rcm100-esm100-rsr2-rcr25-esr310.npz,,,,,0,22,22,165,,right,red,1.74,247.92346096038816,248.40315985679624,,1,8,6,lightness,readingArea,realistic,75,2023-03-29_15h04.35.335,tripletExp_regina_11082022,2022.2.4,119.39617356451735,
0,4,9,2,0.027777777777778,0.298245614035088,2,0.694444444444444,0.298245614035088,2,0.444444444444444,1.0,ReadingArea_rsl2-rcl2-esl29-rsm2-rcm69-esm29-rsr2-rcr44-esr100,exr/ReadingArea_rsl2-rcl2-esl29-rsm2-rcm69-esm29-rsr2-rcr44-esr100.exr,ReadingArea_rsl2-rcl2-esl29-rsm2-rcm69-esm29-rsr2-rcr44-esr100.npz,,,,,0,23,23,21,,right,red,1.44,250.107146024704,250.5641429424286,,1,8,6,lightness,readingArea,realistic,75,2023-03-29_15h04.35.335,tripletExp_regina_11082022,2022.2.4,119.39617356451735,
8,10,6,2,0.25,1.0,2,0.694444444444444,1.0,2,0.027777777777778,1.0,ReadingArea_rsl2-rcl25-esl100-rsm2-rcm69-esm100-rsr2-rcr2-esr100,exr/ReadingArea_rsl2-rcl25-esl100-rsm2-rcm69-esm100-rsr2-rcr2-esr100.exr,ReadingArea_rsl2-rcl25-esl100-rsm2-rcm69-esm100-rsr2-rcr2-esr100.npz,,,,,0,24,24,129,,left,green,2.14,254.0306339263916,254.5015890598297,,1,8,6,lightness,readingArea,realistic,75,2023-03-29_15h04.35.335,tripletExp_regina_11082022,2022.2.4,119.39617356451735,
4,13,2,2,0.694444444444444,0.298245614035088,2,0.111111111111111,3.10526315789474,2,0.25,0.298245614035088,ReadingArea_rsl2-rcl69-esl29-rsm2-rcm11-esm310-rsr2-rcr25-esr29,exr/ReadingArea_rsl2-rcl69-esl29-rsm2-rcm11-esm310-rsr2-rcr25-esr29.exr,ReadingArea_rsl2-rcl69-esl29-rsm2-rcm11-esm310-rsr2-rcr25-esr29.npz,,,,,0,25,25,592,,right,red,2.7,257.9422528743744,258.4518690109253,,1,8,6,lightness,readingArea,realistic,75,2023-03-29_15h04.35.335,tripletExp_regina_11082022,2022.2.4,119.39617356451735,
4,1,9,2,0.694444444444444,0.298245614035088,2,0.111111111111111,0.298245614035088,2,0.444444444444444,1.0,ReadingArea_rsl2-rcl69-esl29-rsm2-rcm11-esm29-rsr2-rcr44-esr100,exr/ReadingArea_rsl2-rcl69-esl29-rsm2-rcm11-esm29-rsr2-rcr44-esr100.exr,ReadingArea_rsl2-rcl69-esl29-rsm2-rcm11-esm29-rsr2-rcr44-esr100.npz,,,,,0,26,26,7,,right,red,2.88,261.95178294181824,262.45489501953125,,1,8,6,lightness,readingArea,realistic,75,2023-03-29_15h04.35.335,tripletExp_regina_11082022,2022.2.4,119.39617356451735,
10,8,1,2,0.694444444444444,1.0,2,0.25,1.0,2,0.111111111111111,0.298245614035088,ReadingArea_rsl2-rcl69-esl100-rsm2-rcm25-esm100-rsr2-rcr11-esr29,exr/ReadingArea_rsl2-rcl69-esl100-rsm2-rcm25-esm100-rsr2-rcr11-esr29.exr,ReadingArea_rsl2-rcl69-esl100-rsm2-rcm25-esm100-rsr2-rcr11-esr29.npz,,,,,0,27,27,247,,right,red,1.22,264.16940093040466,264.65872502326965,,1,8,6,lightness,readingArea,realistic,75,2023-03-29_15h04.35.335,tripletExp_regina_11082022,2022.2.4,119.39617356451735,
4,12,2,2,0.694444444444444,0.298245614035088,2,0.027777777777778,3.10526315789474,2,0.25,0.298245614035088,ReadingArea_rsl2-rcl69-esl29-rsm2-rcm2-esm310-rsr2-rcr25-esr29,exr/ReadingArea_rsl2-rcl69-esl29-rsm2-rcm2-esm310-rsr2-rcr25-esr29.exr,ReadingArea_rsl2-rcl69-esl29-rsm2-rcm2-esm310-rsr2-rcr25-esr29.npz,,,,,0,28,28,543,,right,red,3.31,268.12868189811707,268.62327003479004,,1,8,6,lightness,readingArea,realistic,75,2023-03-29_15h04.35.335,tripletExp_regina_11082022,2022.2.4,119.39617356451735,
9,14,7,2,0.444444444444444,1.0,2,0.25,3.10526315789474,2,0.111111111111111,1.0,ReadingArea_rsl2-rcl44-esl100-rsm2-rcm25-esm310-rsr2-rcr11-esr100,exr/ReadingArea_rsl2-rcl44-esl100-rsm2-rcm25-esm310-rsr2-rcr11-esr100.exr,ReadingArea_rsl2-rcl44-esl100-rsm2-rcm25-esm310-rsr2-rcr11-esr100.npz,,,,,0,29,29,44,,left,green,1.09,270.3266580104828,270.81310200691223,,1,8,6,lightness,readingArea,realistic,75,2023-03-29_15h04.35.335,tripletExp_regina_11082022,2022.2.4,119.39617356451735,
7,5,1,2,0.111111111111111,1.0,2,1.0,0.298245614035088,2,0.111111111111111,0.298245614035088,ReadingArea_rsl2-rcl11-esl100-rsm2-rcm100-esm29-rsr2-rcr11-esr29,exr/ReadingArea_rsl2-rcl11-esl100-rsm2-rcm100-esm29-rsr2-rcr11-esr29.exr,ReadingArea_rsl2-rcl11-esl100-rsm2-rcm100-esm29-rsr2-rcr11-esr29.npz,,,,,0,30,30,513,,left,green,2.41,274.2572069168091,274.73688888549805,,1,8,6,lightness,readingArea,realistic,75,2023-03-29_15h04.35.335,tripletExp_regina_11082022,2022.2.4,119.39617356451735,
4,2,5,2,0.694444444444444,0.298245614035088,2,0.25,0.298245614035088,2,1.0,0.298245614035088,ReadingArea_rsl2-rcl69-esl29-rsm2-rcm25-esm29-rsr2-rcr100-esr29,exr/ReadingArea_rsl2-rcl69-esl29-rsm2-rcm25-esm29-rsr2-rcr100-esr29.exr,ReadingArea_rsl2-rcl69-esl29-rsm2-rcm25-esm29-rsr2-rcr100-esr29.npz,,,,,0,31,31,101,,left,green,2.94,278.22246289253235,278.68097591400146,,1,8,6,lightness,readingArea,realistic,75,2023-03-29_15h04.35.335,tripletExp_regina_11082022,2022.2.4,119.39617356451735,
8,1,14,2,0.25,1.0,2,0.111111111111111,0.298245614035088,2,0.25,3.10526315789474,ReadingArea_rsl2-rcl25-esl100-rsm2-rcm11-esm29-rsr2-rcr25-esr310,exr/ReadingArea_rsl2-rcl25-esl100-rsm2-rcm11-esm29-rsr2-rcr25-esr310.exr,ReadingArea_rsl2-rcl25-esl100-rsm2-rcm11-esm29-rsr2-rcr25-esr310.npz,,,,,0,32,32,500,,left,green,1.37,280.40618085861206,280.9151358604431,,1,8,6,lightness,readingArea,realistic,75,2023-03-29_15h04.35.335,tripletExp_regina_11082022,2022.2.4,119.39617356451735,
0,7,9,2,0.027777777777778,0.298245614035088,2,0.111111111111111,1.0,2,0.444444444444444,1.0,ReadingArea_rsl2-rcl2-esl29-rsm2-rcm11-esm100-rsr2-rcr44-esr100,exr/ReadingArea_rsl2-rcl2-esl29-rsm2-rcm11-esm100-rsr2-rcr44-esr100.exr,ReadingArea_rsl2-rcl2-esl29-rsm2-rcm11-esm100-rsr2-rcr44-esr100.npz,,,,,0,33,33,463,,left,green,1.08,282.63648104667664,283.08632707595825,,1,8,6,lightness,readingArea,realistic,75,2023-03-29_15h04.35.335,tripletExp_regina_11082022,2022.2.4,119.39617356451735,
8,3,9,2,0.25,1.0,2,0.444444444444444,0.298245614035088,2,0.444444444444444,1.0,ReadingArea_rsl2-rcl25-esl100-rsm2-rcm44-esm29-rsr2-rcr44-esr100,exr/ReadingArea_rsl2-rcl25-esl100-rsm2-rcm44-esm29-rsr2-rcr44-esr100.exr,ReadingArea_rsl2-rcl25-esl100-rsm2-rcm44-esm29-rsr2-rcr44-esr100.npz,,,,,0,34,34,15,,left,green,3.11,286.5604028701782,287.0286729335785,,1,8,6,lightness,readingArea,realistic,75,2023-03-29_15h04.35.335,tripletExp_regina_11082022,2022.2.4,119.39617356451735,
9,4,11,2,0.444444444444444,1.0,2,0.694444444444444,0.298245614035088,2,1.0,1.0,ReadingArea_rsl2-rcl44-esl100-rsm2-rcm69-esm29-rsr2-rcr100-esr100,exr/ReadingArea_rsl2-rcl44-esl100-rsm2-rcm69-esm29-rsr2-rcr100-esr100.exr,ReadingArea_rsl2-rcl44-esl100-rsm2-rcm69-esm29-rsr2-rcr100-esr100.npz,,,,,0,35,35,133,,left,green,1.55,288.7213258743286,289.2046649456024,,1,8,6,lightness,readingArea,realistic,75,2023-03-29_15h04.35.335,tripletExp_regina_11082022,2022.2.4,119.39617356451735,
12,3,5,2,0.027777777777778,3.10526315789474,2,0.444444444444444,0.298245614035088,2,1.0,0.298245614035088,ReadingArea_rsl2-rcl2-esl310-rsm2-rcm44-esm29-rsr2-rcr100-esr29,exr/ReadingArea_rsl2-rcl2-esl310-rsm2-rcm44-esm29-rsr2-rcr100-esr29.exr,ReadingArea_rsl2-rcl2-esl310-rsm2-rcm44-esm29-rsr2-rcr100-esr29.npz,,,,,0,36,36,188,,right,red,4.68,294.44309091567993,294.91602206230164,,1,8,6,lightness,readingArea,realistic,75,2023-03-29_15h04.35.335,tripletExp_regina_11082022,2022.2.4,119.39617356451735,
2,6,12,2,0.25,0.298245614035088,2,0.027777777777778,1.0,2,0.027777777777778,3.10526315789474,ReadingArea_rsl2-rcl25-esl29-rsm2-rcm2-esm100-rsr2-rcr2-esr310,exr/ReadingArea_rsl2-rcl25-esl29-rsm2-rcm2-esm100-rsr2-rcr2-esr310.exr,ReadingArea_rsl2-rcl25-esl29-rsm2-rcm2-esm100-rsr2-rcr2-esr310.npz,,,,,0,37,37,97,,right,red,1.24,296.6192638874054,297.0997779369354,,1,8,6,lightness,readingArea,realistic,75,2023-03-29_15h04.35.335,tripletExp_regina_11082022,2022.2.4,119.39617356451735,
6,9,5,2,0.027777777777778,1.0,2,0.444444444444444,1.0,2,1.0,0.298245614035088,ReadingArea_rsl2-rcl2-esl100-rsm2-rcm44-esm100-rsr2-rcr100-esr29,exr/ReadingArea_rsl2-rcl2-esl100-rsm2-rcm44-esm100-rsr2-rcr100-esr29.exr,ReadingArea_rsl2-rcl2-esl100-rsm2-rcm44-esm100-rsr2-rcr100-esr29.npz,,,,,0,38,38,29,,right,red,1.0,298.7939999103546,299.2488489151001,,1,8,6,lightness,readingArea,realistic,75,2023-03-29_15h04.35.335,tripletExp_regina_11082022,2022.2.4,119.39617356451735,
13,6,0,2,0.111111111111111,3.10526315789474,2,0.027777777777778,1.0,2,0.027777777777778,0.298245614035088,ReadingArea_rsl2-rcl11-esl310-rsm2-rcm2-esm100-rsr2-rcr2-esr29,exr/ReadingArea_rsl2-rcl11-esl310-rsm2-rcm2-esm100-rsr2-rcr2-esr29.exr,ReadingArea_rsl2-rcl11-esl310-rsm2-rcm2-esm100-rsr2-rcr2-esr29.npz,,,,,0,39,39,309,,right,red,1.29,300.9650390148163,301.44028186798096,,1,8,6,lightness,readingArea,realistic,75,2023-03-29_15h04.35.335,tripletExp_regina_11082022,2022.2.4,119.39617356451735,
8,1,6,2,0.25,1.0,2,0.111111111111111,0.298245614035088,2,0.027777777777778,1.0,ReadingArea_rsl2-rcl25-esl100-rsm2-rcm11-esm29-rsr2-rcr2-esr100,exr/ReadingArea_rsl2-rcl25-esl100-rsm2-rcm11-esm29-rsr2-rcr2-esr100.exr,ReadingArea_rsl2-rcl25-esl100-rsm2-rcm11-esm29-rsr2-rcr2-esr100.npz,,,,,0,40,40,62,,right,red,1.0,303.1301598548889,303.604642868042,,1,8,6,lightness,readingArea,realistic,75,2023-03-29_15h04.35.335,tripletExp_regina_11082022,2022.2.4,119.39617356451735,
2,3,6,2,0.25,0.298245614035088,2,0.444444444444444,0.298245614035088,2,0.027777777777778,1.0,ReadingArea_rsl2-rcl25-esl29-rsm2-rcm44-esm29-rsr2-rcr2-esr100,exr/ReadingArea_rsl2-rcl25-esl29-rsm2-rcm44-esm29-rsr2-rcr2-esr100.exr,ReadingArea_rsl2-rcl25-esl29-rsm2-rcm44-esm29-rsr2-rcr2-esr100.npz,,,,,0,41,41,357,,left,green,0.85,305.30339789390564,305.7701840400696,,1,8,6,lightness,readingArea,realistic,75,2023-03-29_15h04.35.335,tripletExp_regina_11082022,2022.2.4,119.39617356451735,
8,6,11,2,0.25,1.0,2,0.027777777777778,1.0,2,1.0,1.0,ReadingArea_rsl2-rcl25-esl100-rsm2-rcm2-esm100-rsr2-rcr100-esr100,exr/ReadingArea_rsl2-rcl25-esl100-rsm2-rcm2-esm100-rsr2-rcr100-esr100.exr,ReadingArea_rsl2-rcl25-esl100-rsm2-rcm2-esm100-rsr2-rcr100-esr100.npz,,,,,0,42,42,236,,left,green,1.28,307.484570980072,307.9562408924103,,1,8,6,lightness,readingArea,realistic,75,2023-03-29_15h04.35.335,tripletExp_regina_11082022,2022.2.4,119.39617356451735,
7,10,4,2,0.111111111111111,1.0,2,0.694444444444444,1.0,2,0.694444444444444,0.298245614035088,ReadingArea_rsl2-rcl11-esl100-rsm2-rcm69-esm100-rsr2-rcr69-esr29,exr/ReadingArea_rsl2-rcl11-esl100-rsm2-rcm69-esm100-rsr2-rcr69-esr29.exr,ReadingArea_rsl2-rcl11-esl100-rsm2-rcm69-esm100-rsr2-rcr69-esr29.npz,,,,,0,43,43,46,,right,red,3.09,311.43116307258606,311.89200592041016,,1,8,6,lightness,readingArea,realistic,75,2023-03-29_15h04.35.335,tripletExp_regina_11082022,2022.2.4,119.39617356451735,
10,3,0,2,0.694444444444444,1.0,2,0.444444444444444,0.298245614035088,2,0.027777777777778,0.298245614035088,ReadingArea_rsl2-rcl69-esl100-rsm2-rcm44-esm29-rsr2-rcr2-esr29,exr/ReadingArea_rsl2-rcl69-esl100-rsm2-rcm44-esm29-rsr2-rcr2-esr29.exr,ReadingArea_rsl2-rcl69-esl100-rsm2-rcm44-esm29-rsr2-rcr2-esr29.npz,,,,,0,44,44,203,,left,green,0.96,313.5894019603729,314.07573890686035,,1,8,6,lightness,readingArea,realistic,75,2023-03-29_15h04.35.335,tripletExp_regina_11082022,2022.2.4,119.39617356451735,
6,0,4,2,0.027777777777778,1.0,2,0.027777777777778,0.298245614035088,2,0.694444444444444,0.298245614035088,ReadingArea_rsl2-rcl2-esl100-rsm2-rcm2-esm29-rsr2-rcr69-esr29,exr/ReadingArea_rsl2-rcl2-esl100-rsm2-rcm2-esm29-rsr2-rcr69-esr29.exr,ReadingArea_rsl2-rcl2-esl100-rsm2-rcm2-esm29-rsr2-rcr69-esr29.npz,,,,,0,45,45,555,,left,green,0.94,315.7685079574585,316.22600197792053,,1,8,6,lightness,readingArea,realistic,75,2023-03-29_15h04.35.335,tripletExp_regina_11082022,2022.2.4,119.39617356451735,
2,1,13,2,0.25,0.298245614035088,2,0.111111111111111,0.298245614035088,2,0.111111111111111,3.10526315789474,ReadingArea_rsl2-rcl25-esl29-rsm2-rcm11-esm29-rsr2-rcr11-esr310,exr/ReadingArea_rsl2-rcl25-esl29-rsm2-rcm11-esm29-rsr2-rcr11-esr310.exr,ReadingArea_rsl2-rcl25-esl29-rsm2-rcm11-esm29-rsr2-rcr11-esr310.npz,,,,,0,46,46,290,,left,green,2.46,319.70131397247314,320.202733039856,,1,8,6,lightness,readingArea,realistic,75,2023-03-29_15h04.35.335,tripletExp_regina_11082022,2022.2.4,119.39617356451735,
8,4,2,2,0.25,1.0,2,0.694444444444444,0.298245614035088,2,0.25,0.298245614035088,ReadingArea_rsl2-rcl25-esl100-rsm2-rcm69-esm29-rsr2-rcr25-esr29,exr/ReadingArea_rsl2-rcl25-esl100-rsm2-rcm69-esm29-rsr2-rcr25-esr29.exr,ReadingArea_rsl2-rcl25-esl100-rsm2-rcm69-esm29-rsr2-rcr25-esr29.npz,,,,,0,47,47,184,,left,green,1.16,321.9252989292145,,,1,8,6,lightness,readingArea,realistic,75,2023-03-29_15h04.35.335,tripletExp_regina_11082022,2022.2.4,119.39617356451735,
8,10,9,2,0.25,1.0,2,0.694444444444444,1.0,2,0.444444444444444,1.0,ReadingArea_rsl2-rcl25-esl100-rsm2-rcm69-esm100-rsr2-rcr44-esr100,exr/ReadingArea_rsl2-rcl25-esl100-rsm2-rcm69-esm100-rsr2-rcr44-esr100.exr,ReadingArea_rsl2-rcl25-esl100-rsm2-rcm69-esm100-rsr2-rcr44-esr100.npz,,,,,0,48,48,342,,right,red,1.37,324.0733919143677,324.6826138496399,,1,8,6,lightness,readingArea,realistic,75,2023-03-29_15h04.35.335,tripletExp_regina_11082022,2022.2.4,119.39617356451735,
5,2,7,2,1.0,0.298245614035088,2,0.25,0.298245614035088,2,0.111111111111111,1.0,ReadingArea_rsl2-rcl100-esl29-rsm2-rcm25-esm29-rsr2-rcr11-esr100,exr/ReadingArea_rsl2-rcl100-esl29-rsm2-rcm25-esm29-rsr2-rcr11-esr100.exr,ReadingArea_rsl2-rcl100-esl29-rsm2-rcm25-esm29-rsr2-rcr11-esr100.npz,,,,,0,49,49,179,,right,red,1.08,326.3848628997803,326.8942840099335,,1,8,6,lightness,readingArea,realistic,75,2023-03-29_15h04.35.335,tripletExp_regina_11082022,2022.2.4,119.39617356451735,
14,12,5,2,0.25,3.10526315789474,2,0.027777777777778,3.10526315789474,2,1.0,0.298245614035088,ReadingArea_rsl2-rcl25-esl310-rsm2-rcm2-esm310-rsr2-rcr100-esr29,exr/ReadingArea_rsl2-rcl25-esl310-rsm2-rcm2-esm310-rsr2-rcr100-esr29.exr,ReadingArea_rsl2-rcl25-esl310-rsm2-rcm2-esm310-rsr2-rcr100-esr29.npz,,,,,0,50,50,335,,right,red,4.59,332.10814905166626,332.60830998420715,,1,8,6,lightness,readingArea,realistic,75,2023-03-29_15h04.35.335,tripletExp_regina_11082022,2022.2.4,119.39617356451735,
11,13,1,2,1.0,1.0,2,0.111111111111111,3.10526315789474,2,0.111111111111111,0.298245614035088,ReadingArea_rsl2-rcl100-esl100-rsm2-rcm11-esm310-rsr2-rcr11-esr29,exr/ReadingArea_rsl2-rcl100-esl100-rsm2-rcm11-esm310-rsr2-rcr11-esr29.exr,ReadingArea_rsl2-rcl100-esl100-rsm2-rcm11-esm310-rsr2-rcr11-esr29.npz,,,,,0,51,51,185,,right,red,0.86,334.3278489112854,334.85799288749695,,1,8,6,lightness,readingArea,realistic,75,2023-03-29_15h04.35.335,tripletExp_regina_11082022,2022.2.4,119.39617356451735,
3,6,11,2,0.444444444444444,0.298245614035088,2,0.027777777777778,1.0,2,1.0,1.0,ReadingArea_rsl2-rcl44-esl29-rsm2-rcm2-esm100-rsr2-rcr100-esr100,exr/ReadingArea_rsl2-rcl44-esl29-rsm2-rcm2-esm100-rsr2-rcr100-esr100.exr,ReadingArea_rsl2-rcl44-esl29-rsm2-rcm2-esm100-rsr2-rcr100-esr100.npz,,,,,0,52,52,155,,left,green,0.95,336.54842591285706,337.03991198539734,,1,8,6,lightness,readingArea,realistic,75,2023-03-29_15h04.35.335,tripletExp_regina_11082022,2022.2.4,119.39617356451735,
9,3,14,2,0.444444444444444,1.0,2,0.444444444444444,0.298245614035088,2,0.25,3.10526315789474,ReadingArea_rsl2-rcl44-esl100-rsm2-rcm44-esm29-rsr2-rcr25-esr310,exr/ReadingArea_rsl2-rcl44-esl100-rsm2-rcm44-esm29-rsr2-rcr25-esr310.exr,ReadingArea_rsl2-rcl44-esl100-rsm2-rcm44-esm29-rsr2-rcr25-esr310.npz,,,,,0,53,53,17,,left,green,2.9,340.5198528766632,,,1,8,6,lightness,readingArea,realistic,75,2023-03-29_15h04.35.335,tripletExp_regina_11082022,2022.2.4,119.39617356451735,
8,9,6,2,0.25,1.0,2,0.444444444444444,1.0,2,0.027777777777778,1.0,ReadingArea_rsl2-rcl25-esl100-rsm2-rcm44-esm100-rsr2-rcr2-esr100,exr/ReadingArea_rsl2-rcl25-esl100-rsm2-rcm44-esm100-rsr2-rcr2-esr100.exr,ReadingArea_rsl2-rcl25-esl100-rsm2-rcm44-esm100-rsr2-rcr2-esr100.npz,,,,,0,54,54,3,,left,green,1.16,342.74345993995667,343.2023799419403,,1,8,6,lightness,readingArea,realistic,75,2023-03-29_15h04.35.335,tripletExp_regina_11082022,2022.2.4,119.39617356451735,
10,2,0,2,0.694444444444444,1.0,2,0.25,0.298245614035088,2,0.027777777777778,0.298245614035088,ReadingArea_rsl2-rcl69-esl100-rsm2-rcm25-esm29-rsr2-rcr2-esr29,exr/ReadingArea_rsl2-rcl69-esl100-rsm2-rcm25-esm29-rsr2-rcr2-esr29.exr,ReadingArea_rsl2-rcl69-esl100-rsm2-rcm25-esm29-rsr2-rcr2-esr29.npz,,,,,0,55,55,427,,left,green,2.28,346.6838929653168,347.1815869808197,,1,8,6,lightness,readingArea,realistic,75,2023-03-29_15h04.35.335,tripletExp_regina_11082022,2022.2.4,119.39617356451735,
4,9,13,2,0.694444444444444,0.298245614035088,2,0.444444444444444,1.0,2,0.111111111111111,3.10526315789474,ReadingArea_rsl2-rcl69-esl29-rsm2-rcm44-esm100-rsr2-rcr11-esr310,exr/ReadingArea_rsl2-rcl69-esl29-rsm2-rcm44-esm100-rsr2-rcr11-esr310.exr,ReadingArea_rsl2-rcl69-esl29-rsm2-rcm44-esm100-rsr2-rcr11-esr310.npz,,,,,0,56,56,488,,left,green,3.02,350.6772768497467,351.1812598705292,,1,8,6,lightness,readingArea,realistic,75,2023-03-29_15h04.35.335,tripletExp_regina_11082022,2022.2.4,119.39617356451735,
6,5,0,2,0.027777777777778,1.0,2,1.0,0.298245614035088,2,0.027777777777778,0.298245614035088,ReadingArea_rsl2-rcl2-esl100-rsm2-rcm100-esm29-rsr2-rcr2-esr29,exr/ReadingArea_rsl2-rcl2-esl100-rsm2-rcm100-esm29-rsr2-rcr2-esr29.exr,ReadingArea_rsl2-rcl2-esl100-rsm2-rcm100-esm29-rsr2-rcr2-esr29.npz,,,,,0,57,57,558,,left,green,2.87,354.659775018692,355.17823600769043,,1,8,6,lightness,readingArea,realistic,75,2023-03-29_15h04.35.335,tripletExp_regina_11082022,2022.2.4,119.39617356451735,
14,8,9,2,0.25,3.10526315789474,2,0.25,1.0,2,0.444444444444444,1.0,ReadingArea_rsl2-rcl25-esl310-rsm2-rcm25-esm100-rsr2-rcr44-esr100,exr/ReadingArea_rsl2-rcl25-esl310-rsm2-rcm25-esm100-rsr2-rcr44-esr100.exr,ReadingArea_rsl2-rcl25-esl310-rsm2-rcm25-esm100-rsr2-rcr44-esr100.npz,,,,,0,58,58,518,,right,red,1.26,356.90085792541504,357.3724510669708,,1,8,6,lightness,readingArea,realistic,75,2023-03-29_15h04.35.335,tripletExp_regina_11082022,2022.2.4,119.39617356451735,
6,0,14,2,0.027777777777778,1.0,2,0.027777777777778,0.298245614035088,2,0.25,3.10526315789474,ReadingArea_rsl2-rcl2-esl100-rsm2-rcm2-esm29-rsr2-rcr25-esr310,exr/ReadingArea_rsl2-rcl2-esl100-rsm2-rcm2-esm29-rsr2-rcr25-esr310.exr,ReadingArea_rsl2-rcl2-esl100-rsm2-rcm2-esm29-rsr2-rcr25-esr310.npz,,,,,0,59,59,169,,left,green,0.84,359.0662338733673,359.51401805877686,,1,8,6,lightness,readingArea,realistic,75,2023-03-29_15h04.35.335,tripletExp_regina_11082022,2022.2.4,119.39617356451735,
13,8,14,2,0.111111111111111,3.10526315789474,2,0.25,1.0,2,0.25,3.10526315789474,ReadingArea_rsl2-rcl11-esl310-rsm2-rcm25-esm100-rsr2-rcr25-esr310,exr/ReadingArea_rsl2-rcl11-esl310-rsm2-rcm25-esm100-rsr2-rcr25-esr310.exr,ReadingArea_rsl2-rcl11-esl310-rsm2-rcm25-esm100-rsr2-rcr25-esr310.npz,,,,,0,60,60,345,,left,green,1.31,361.2381038665772,361.7136099338532,,1,8,6,lightness,readingArea,realistic,75,2023-03-29_15h04.35.335,tripletExp_regina_11082022,2022.2.4,119.39617356451735,
1,10,7,2,0.111111111111111,0.298245614035088,2,0.694444444444444,1.0,2,0.111111111111111,1.0,ReadingArea_rsl2-rcl11-esl29-rsm2-rcm69-esm100-rsr2-rcr11-esr100,exr/ReadingArea_rsl2-rcl11-esl29-rsm2-rcm69-esm100-rsr2-rcr11-esr100.exr,ReadingArea_rsl2-rcl11-esl29-rsm2-rcm69-esm100-rsr2-rcr11-esr100.npz,,,,,0,61,61,94,,right,red,1.57,363.4262309074402,363.89551997184753,,1,8,6,lightness,readingArea,realistic,75,2023-03-29_15h04.35.335,tripletExp_regina_11082022,2022.2.4,119.39617356451735,
11,8,7,2,1.0,1.0,2,0.25,1.0,2,0.111111111111111,1.0,ReadingArea_rsl2-rcl100-esl100-rsm2-rcm25-esm100-rsr2-rcr11-esr100,exr/ReadingArea_rsl2-rcl100-esl100-rsm2-rcm25-esm100-rsr2-rcr11-esr100.exr,ReadingArea_rsl2-rcl100-esl100-rsm2-rcm25-esm100-rsr2-rcr11-esr100.npz,,,,,0,62,62,105,,right,red,0.89,365.5986969470978,,,1,8,6,lightness,readingArea,realistic,75,2023-03-29_15h04.35.335,tripletExp_regina_11082022,2022.2.4,119.39617356451735,
9,0,8,2,0.444444444444444,1.0,2,0.027777777777778,0.298245614035088,2,0.25,1.0,ReadingArea_rsl2-rcl44-esl100-rsm2-rcm2-esm29-rsr2-rcr25-esr100,exr/ReadingArea_rsl2-rcl44-esl100-rsm2-rcm2-esm29-rsr2-rcr25-esr100.exr,ReadingArea_rsl2-rcl44-esl100-rsm2-rcm2-esm29-rsr2-rcr25-esr100.npz,,,,,0,63,63,27,,right,red,2.77,369.5948219299317,370.06707406044006,,1,8,6,lightness,readingArea,realistic,75,2023-03-29_15h04.35.335,tripletExp_regina_11082022,2022.2.4,119.39617356451735,
11,14,9,2,1.0,1.0,2,0.25,3.10526315789474,2,0.444444444444444,1.0,ReadingArea_rsl2-rcl100-esl100-rsm2-rcm25-esm310-rsr2-rcr44-esr100,exr/ReadingArea_rsl2-rcl100-esl100-rsm2-rcm25-esm310-rsr2-rcr44-esr100.exr,ReadingArea_rsl2-rcl100-esl100-rsm2-rcm25-esm310-rsr2-rcr44-esr100.npz,,,,,0,64,64,43,,right,red,0.95,371.7892918586731,372.2721118927002,,1,8,6,lightness,readingArea,realistic,75,2023-03-29_15h04.35.335,tripletExp_regina_11082022,2022.2.4,119.39617356451735,
4,6,3,2,0.694444444444444,0.298245614035088,2,0.027777777777778,1.0,2,0.444444444444444,0.298245614035088,ReadingArea_rsl2-rcl69-esl29-rsm2-rcm2-esm100-rsr2-rcr44-esr29,exr/ReadingArea_rsl2-rcl69-esl29-rsm2-rcm2-esm100-rsr2-rcr44-esr29.exr,ReadingArea_rsl2-rcl69-esl29-rsm2-rcm2-esm100-rsr2-rcr44-esr29.npz,,,,,0,65,65,344,,right,red,2.64,375.7602789402008,376.26481890678406,,1,8,6,lightness,readingArea,realistic,75,2023-03-29_15h04.35.335,tripletExp_regina_11082022,2022.2.4,119.39617356451735,
10,0,8,2,0.694444444444444,1.0,2,0.027777777777778,0.298245614035088,2,0.25,1.0,ReadingArea_rsl2-rcl69-esl100-rsm2-rcm2-esm29-rsr2-rcr25-esr100,exr/ReadingArea_rsl2-rcl69-esl100-rsm2-rcm2-esm29-rsr2-rcr25-esr100.exr,ReadingArea_rsl2-rcl69-esl100-rsm2-rcm2-esm29-rsr2-rcr25-esr100.npz,,,,,0,66,66,552,,right,red,2.22,379.7522668838501,380.2416698932648,,1,8,6,lightness,readingArea,realistic,75,2023-03-29_15h04.35.335,tripletExp_regina_11082022,2022.2.4,119.39617356451735,
1,13,14,2,0.111111111111111,0.298245614035088,2,0.111111111111111,3.10526315789474,2,0.25,3.10526315789474,ReadingArea_rsl2-rcl11-esl29-rsm2-rcm11-esm310-rsr2-rcr25-esr310,exr/ReadingArea_rsl2-rcl11-esl29-rsm2-rcm11-esm310-rsr2-rcr25-esr310.exr,ReadingArea_rsl2-rcl11-esl29-rsm2-rcm11-esm310-rsr2-rcr25-esr310.npz,,,,,0,67,67,183,,left,green,1.99,383.69300508499146,,,1,8,6,lightness,readingArea,realistic,75,2023-03-29_15h04.35.335,tripletExp_regina_11082022,2022.2.4,119.39617356451735,
0,5,12,2,0.027777777777778,0.298245614035088,2,1.0,0.298245614035088,2,0.027777777777778,3.10526315789474,ReadingArea_rsl2-rcl2-esl29-rsm2-rcm100-esm29-rsr2-rcr2-esr310,exr/ReadingArea_rsl2-rcl2-esl29-rsm2-rcm100-esm29-rsr2-rcr2-esr310.exr,ReadingArea_rsl2-rcl2-esl29-rsm2-rcm100-esm29-rsr2-rcr2-esr310.npz,,,,,0,68,68,366,,right,red,1.37,385.89388704299927,,,1,8,6,lightness,readingArea,realistic,75,2023-03-29_15h04.35.335,tripletExp_regina_11082022,2022.2.4,119.39617356451735,
12,13,10,2,0.027777777777778,3.10526315789474,2,0.111111111111111,3.10526315789474,2,0.694444444444444,1.0,ReadingArea_rsl2-rcl2-esl310-rsm2-rcm11-esm310-rsr2-rcr69-esr100,exr/ReadingArea_rsl2-rcl2-esl310-rsm2-rcm11-esm310-rsr2-rcr69-esr100.exr,ReadingArea_rsl2-rcl2-esl310-rsm2-rcm11-esm310-rsr2-rcr69-esr100.npz,,,,,0,69,69,295,,left,green,0.87,388.0642459392548,388.51211500167847,,1,8,6,lightness,readingArea,realistic,75,2023-03-29_15h04.35.335,tripletExp_regina_11082022,2022.2.4,119.39617356451735,
12,14,8,2,0.027777777777778,3.10526315789474,2,0.25,3.10526315789474,2,0.25,1.0,ReadingArea_rsl2-rcl2-esl310-rsm2-rcm25-esm310-rsr2-rcr25-esr100,exr/ReadingArea_rsl2-rcl2-esl310-rsm2-rcm25-esm310-rsr2-rcr25-esr100.exr,ReadingArea_rsl2-rcl2-esl310-rsm2-rcm25-esm310-rsr2-rcr25-esr100.npz,,,,,0,70,70,466,,right,red,2.94,391.9627249240875,392.4884629249573,,1,8,6,lightness,readingArea,realistic,75,2023-03-29_15h04.35.335,tripletExp_regina_11082022,2022.2.4,119.39617356451735,
2,14,9,2,0.25,0.298245614035088,2,0.25,3.10526315789474,2,0.444444444444444,1.0,ReadingArea_rsl2-rcl25-esl29-rsm2-rcm25-esm310-rsr2-rcr44-esr100,exr/ReadingArea_rsl2-rcl25-esl29-rsm2-rcm25-esm310-rsr2-rcr44-esr100.exr,ReadingArea_rsl2-rcl25-esl29-rsm2-rcm25-esm310-rsr2-rcr44-esr100.npz,,,,,0,71,71,51,,right,red,2.8,395.97902607917786,,,1,8,6,lightness,readingArea,realistic,75,2023-03-29_15h04.35.335,tripletExp_regina_11082022,2022.2.4,119.39617356451735,
11,12,1,2,1.0,1.0,2,0.027777777777778,3.10526315789474,2,0.111111111111111,0.298245614035088,ReadingArea_rsl2-rcl100-esl100-rsm2-rcm2-esm310-rsr2-rcr11-esr29,exr/ReadingArea_rsl2-rcl100-esl100-rsm2-rcm2-esm310-rsr2-rcr11-esr29.exr,ReadingArea_rsl2-rcl100-esl100-rsm2-rcm2-esm310-rsr2-rcr11-esr29.npz,,,,,0,72,72,140,,right,red,1.04,398.2256350517273,398.7286200523377,,1,8,6,lightness,readingArea,realistic,75,2023-03-29_15h04.35.335,tripletExp_regina_11082022,2022.2.4,119.39617356451735,
10,3,14,2,0.694444444444444,1.0,2,0.444444444444444,0.298245614035088,2,0.25,3.10526315789474,ReadingArea_rsl2-rcl69-esl100-rsm2-rcm44-esm29-rsr2-rcr25-esr310,exr/ReadingArea_rsl2-rcl69-esl100-rsm2-rcm44-esm29-rsr2-rcr25-esr310.exr,ReadingArea_rsl2-rcl69-esl100-rsm2-rcm44-esm29-rsr2-rcr25-esr310.npz,,,,,0,73,73,597,,right,red,2.92,402.18296790122986,402.6294510364533,,1,8,6,lightness,readingArea,realistic,75,2023-03-29_15h04.35.335,tripletExp_regina_11082022,2022.2.4,119.39617356451735,
0,14,6,2,0.027777777777778,0.298245614035088,2,0.25,3.10526315789474,2,0.027777777777778,1.0,ReadingArea_rsl2-rcl2-esl29-rsm2-rcm25-esm310-rsr2-rcr2-esr100,exr/ReadingArea_rsl2-rcl2-esl29-rsm2-rcm25-esm310-rsr2-rcr2-esr100.exr,ReadingArea_rsl2-rcl2-esl29-rsm2-rcm25-esm310-rsr2-rcr2-esr100.npz,,,,,0,74,74,499,,right,red,1.31,404.3462040424347,,,1,8,6,lightness,readingArea,realistic,75,2023-03-29_15h04.35.335,tripletExp_regina_11082022,2022.2.4,119.39617356451735,
3,9,0,2,0.444444444444444,0.298245614035088,2,0.444444444444444,1.0,2,0.027777777777778,0.298245614035088,ReadingArea_rsl2-rcl44-esl29-rsm2-rcm44-esm100-rsr2-rcr2-esr29,exr/ReadingArea_rsl2-rcl44-esl29-rsm2-rcm44-esm100-rsr2-rcr2-esr29.exr,ReadingArea_rsl2-rcl44-esl29-rsm2-rcm44-esm100-rsr2-rcr2-esr29.npz,,,,,0,75,75,551,,left,green,1.1,407.8796679973602,408.41211104393005,,2,8,6,lightness,readingArea,realistic,75,2023-03-29_15h04.35.335,tripletExp_regina_11082022,2022.2.4,119.39617356451735,
2,14,7,2,0.25,0.298245614035088,2,0.25,3.10526315789474,2,0.111111111111111,1.0,ReadingArea_rsl2-rcl25-esl29-rsm2-rcm25-esm310-rsr2-rcr11-esr100,exr/ReadingArea_rsl2-rcl25-esl29-rsm2-rcm25-esm310-rsr2-rcr11-esr100.exr,ReadingArea_rsl2-rcl25-esl29-rsm2-rcm25-esm310-rsr2-rcr11-esr100.npz,,,,,0,76,76,310,,right,red,3.14,411.895222902298,412.369332075119,,2,8,6,lightness,readingArea,realistic,75,2023-03-29_15h04.35.335,tripletExp_regina_11082022,2022.2.4,119.39617356451735,
7,14,3,2,0.111111111111111,1.0,2,0.25,3.10526315789474,2,0.444444444444444,0.298245614035088,ReadingArea_rsl2-rcl11-esl100-rsm2-rcm25-esm310-rsr2-rcr44-esr29,exr/ReadingArea_rsl2-rcl11-esl100-rsm2-rcm25-esm310-rsr2-rcr44-esr29.exr,ReadingArea_rsl2-rcl11-esl100-rsm2-rcm25-esm310-rsr2-rcr44-esr29.npz,,,,,0,77,77,103,,right,red,2.96,415.8613250255585,416.3584198951721,,2,8,6,lightness,readingArea,realistic,75,2023-03-29_15h04.35.335,tripletExp_regina_11082022,2022.2.4,119.39617356451735,
1,5,7,2,0.111111111111111,0.298245614035088,2,1.0,0.298245614035088,2,0.111111111111111,1.0,ReadingArea_rsl2-rcl11-esl29-rsm2-rcm100-esm29-rsr2-rcr11-esr100,exr/ReadingArea_rsl2-rcl11-esl29-rsm2-rcm100-esm29-rsr2-rcr11-esr100.exr,ReadingArea_rsl2-rcl11-esl29-rsm2-rcm100-esm29-rsr2-rcr11-esr100.npz,,,,,0,78,78,197,,right,red,1.66,418.04847407341,,,2,8,6,lightness,readingArea,realistic,75,2023-03-29_15h04.35.335,tripletExp_regina_11082022,2022.2.4,119.39617356451735,
5,14,11,2,1.0,0.298245614035088,2,0.25,3.10526315789474,2,1.0,1.0,ReadingArea_rsl2-rcl100-esl29-rsm2-rcm25-esm310-rsr2-rcr100-esr100,exr/ReadingArea_rsl2-rcl100-esl29-rsm2-rcm25-esm310-rsr2-rcr100-esr100.exr,ReadingArea_rsl2-rcl100-esl29-rsm2-rcm25-esm310-rsr2-rcr100-esr100.npz,,,,,0,79,79,98,,left,green,3.0,421.9975390434265,422.50894689559937,,2,8,6,lightness,readingArea,realistic,75,2023-03-29_15h04.35.335,tripletExp_regina_11082022,2022.2.4,119.39617356451735,
14,8,5,2,0.25,3.10526315789474,2,0.25,1.0,2,1.0,0.298245614035088,ReadingArea_rsl2-rcl25-esl310-rsm2-rcm25-esm100-rsr2-rcr100-esr29,exr/ReadingArea_rsl2-rcl25-esl310-rsm2-rcm25-esm100-rsr2-rcr100-esr29.exr,ReadingArea_rsl2-rcl25-esl310-rsm2-rcm25-esm100-rsr2-rcr100-esr29.npz,,,,,0,80,80,28,,right,red,1.36,424.2215368747711,424.7353980541229,,2,8,6,lightness,readingArea,realistic,75,2023-03-29_15h04.35.335,tripletExp_regina_11082022,2022.2.4,119.39617356451735,
11,5,3,2,1.0,1.0,2,1.0,0.298245614035088,2,0.444444444444444,0.298245614035088,ReadingArea_rsl2-rcl100-esl100-rsm2-rcm100-esm29-rsr2-rcr44-esr29,exr/ReadingArea_rsl2-rcl100-esl100-rsm2-rcm100-esm29-rsr2-rcr44-esr29.exr,ReadingArea_rsl2-rcl100-esl100-rsm2-rcm100-esm29-rsr2-rcr44-esr29.npz,,,,,0,81,81,172,,right,red,2.15,428.21458196640015,428.69492506980896,,2,8,6,lightness,readingArea,realistic,75,2023-03-29_15h04.35.335,tripletExp_regina_11082022,2022.2.4,119.39617356451735,
9,13,0,2,0.444444444444444,1.0,2,0.111111111111111,3.10526315789474,2,0.027777777777778,0.298245614035088,ReadingArea_rsl2-rcl44-esl100-rsm2-rcm11-esm310-rsr2-rcr2-esr29,exr/ReadingArea_rsl2-rcl44-esl100-rsm2-rcm11-esm310-rsr2-rcr2-esr29.exr,ReadingArea_rsl2-rcl44-esl100-rsm2-rcm11-esm310-rsr2-rcr2-esr29.npz,,,,,0,82,82,205,,left,green,1.08,430.3839540481568,,,2,8,6,lightness,readingArea,realistic,75,2023-03-29_15h04.35.335,tripletExp_regina_11082022,2022.2.4,119.39617356451735,
9,0,14,2,0.444444444444444,1.0,2,0.027777777777778,0.298245614035088,2,0.25,3.10526315789474,ReadingArea_rsl2-rcl44-esl100-rsm2-rcm2-esm29-rsr2-rcr25-esr310,exr/ReadingArea_rsl2-rcl44-esl100-rsm2-rcm2-esm29-rsr2-rcr25-esr310.exr,ReadingArea_rsl2-rcl44-esl100-rsm2-rcm2-esm29-rsr2-rcr25-esr310.npz,,,,,0,83,83,550,,left,green,4.12,436.1252520084381,436.63237500190735,,2,8,6,lightness,readingArea,realistic,75,2023-03-29_15h04.35.335,tripletExp_regina_11082022,2022.2.4,119.39617356451735,
10,3,11,2,0.694444444444444,1.0,2,0.444444444444444,0.298245614035088,2,1.0,1.0,ReadingArea_rsl2-rcl69-esl100-rsm2-rcm44-esm29-rsr2-rcr100-esr100,exr/ReadingArea_rsl2-rcl69-esl100-rsm2-rcm44-esm29-rsr2-rcr100-esr100.exr,ReadingArea_rsl2-rcl69-esl100-rsm2-rcm44-esm29-rsr2-rcr100-esr100.npz,,,,,0,84,84,485,,left,green,2.65,440.11625695228577,440.6093599796295,,2,8,6,lightness,readingArea,realistic,75,2023-03-29_15h04.35.335,tripletExp_regina_11082022,2022.2.4,119.39617356451735,
10,6,3,2,0.694444444444444,1.0,2,0.027777777777778,1.0,2,0.444444444444444,0.298245614035088,ReadingArea_rsl2-rcl69-esl100-rsm2-rcm2-esm100-rsr2-rcr44-esr29,exr/ReadingArea_rsl2-rcl69-esl100-rsm2-rcm2-esm100-rsr2-rcr44-esr29.exr,ReadingArea_rsl2-rcl69-esl100-rsm2-rcm2-esm100-rsr2-rcr44-esr29.npz,,,,,0,85,85,0,,right,red,1.49,442.3253400325775,442.83139395713806,,2,8,6,lightness,readingArea,realistic,75,2023-03-29_15h04.35.335,tripletExp_regina_11082022,2022.2.4,119.39617356451735,
13,3,5,2,0.111111111111111,3.10526315789474,2,0.444444444444444,0.298245614035088,2,1.0,0.298245614035088,ReadingArea_rsl2-rcl11-esl310-rsm2-rcm44-esm29-rsr2-rcr100-esr29,exr/ReadingArea_rsl2-rcl11-esl310-rsm2-rcm44-esm29-rsr2-rcr100-esr29.exr,ReadingArea_rsl2-rcl11-esl310-rsm2-rcm44-esm29-rsr2-rcr100-esr29.npz,,,,,0,86,86,398,,left,green,3.68,448.0456750392914,,,2,8,6,lightness,readingArea,realistic,75,2023-03-29_15h04.35.335,tripletExp_regina_11082022,2022.2.4,119.39617356451735,
5,2,8,2,1.0,0.298245614035088,2,0.25,0.298245614035088,2,0.25,1.0,ReadingArea_rsl2-rcl100-esl29-rsm2-rcm25-esm29-rsr2-rcr25-esr100,exr/ReadingArea_rsl2-rcl100-esl29-rsm2-rcm25-esm29-rsr2-rcr25-esr100.exr,ReadingArea_rsl2-rcl100-esl29-rsm2-rcm25-esm29-rsr2-rcr25-esr100.npz,,,,,0,87,87,538,,right,red,1.1,450.3000209331513,450.7726490497589,,2,8,6,lightness,readingArea,realistic,75,2023-03-29_15h04.35.335,tripletExp_regina_11082022,2022.2.4,119.39617356451735,
4,5,8,2,0.694444444444444,0.298245614035088,2,1.0,0.298245614035088,2,0.25,1.0,ReadingArea_rsl2-rcl69-esl29-rsm2-rcm100-esm29-rsr2-rcr25-esr100,exr/ReadingArea_rsl2-rcl69-esl29-rsm2-rcm100-esm29-rsr2-rcr25-esr100.exr,ReadingArea_rsl2-rcl69-esl29-rsm2-rcm100-esm29-rsr2-rcr25-esr100.npz,,,,,0,88,88,54,,left,green,2.84,454.22481393814087,454.7406780719757,,2,8,6,lightness,readingArea,realistic,75,2023-03-29_15h04.35.335,tripletExp_regina_11082022,2022.2.4,119.39617356451735,
6,5,11,2,0.027777777777778,1.0,2,1.0,0.298245614035088,2,1.0,1.0,ReadingArea_rsl2-rcl2-esl100-rsm2-rcm100-esm29-rsr2-rcr100-esr100,exr/ReadingArea_rsl2-rcl2-esl100-rsm2-rcm100-esm29-rsr2-rcr100-esr100.exr,ReadingArea_rsl2-rcl2-esl100-rsm2-rcm100-esm29-rsr2-rcr100-esr100.npz,,,,,0,89,89,289,,right,red,0.94,456.4364130496979,456.9158930778504,,2,8,6,lightness,readingArea,realistic,75,2023-03-29_15h04.35.335,tripletExp_regina_11082022,2022.2.4,119.39617356451735,
14,6,13,2,0.25,3.10526315789474,2,0.027777777777778,1.0,2,0.111111111111111,3.10526315789474,ReadingArea_rsl2-rcl25-esl310-rsm2-rcm2-esm100-rsr2-rcr11-esr310,exr/ReadingArea_rsl2-rcl25-esl310-rsm2-rcm2-esm100-rsr2-rcr11-esr310.exr,ReadingArea_rsl2-rcl25-esl310-rsm2-rcm2-esm100-rsr2-rcr11-esr310.npz,,,,,0,90,90,91,,right,red,1.29,458.6202549934387,459.0893239974976,,2,8,6,lightness,readingArea,realistic,75,2023-03-29_15h04.35.335,tripletExp_regina_11082022,2022.2.4,119.39617356451735,
2,5,3,2,0.25,0.298245614035088,2,1.0,0.298245614035088,2,0.444444444444444,0.298245614035088,ReadingArea_rsl2-rcl25-esl29-rsm2-rcm100-esm29-rsr2-rcr44-esr29,exr/ReadingArea_rsl2-rcl25-esl29-rsm2-rcm100-esm29-rsr2-rcr44-esr29.exr,ReadingArea_rsl2-rcl25-esl29-rsm2-rcm100-esm29-rsr2-rcr44-esr29.npz,,,,,0,91,91,135,,right,red,2.44,462.591253042221,463.06810092926025,,2,8,6,lightness,readingArea,realistic,75,2023-03-29_15h04.35.335,tripletExp_regina_11082022,2022.2.4,119.39617356451735,
5,10,0,2,1.0,0.298245614035088,2,0.694444444444444,1.0,2,0.027777777777778,0.298245614035088,ReadingArea_rsl2-rcl100-esl29-rsm2-rcm69-esm100-rsr2-rcr2-esr29,exr/ReadingArea_rsl2-rcl100-esl29-rsm2-rcm69-esm100-rsr2-rcr2-esr29.exr,ReadingArea_rsl2-rcl100-esl29-rsm2-rcm69-esm100-rsr2-rcr2-esr29.npz,,,,,0,92,92,293,,left,green,0.79,464.7835938930512,465.2435688972473,,2,8,6,lightness,readingArea,realistic,75,2023-03-29_15h04.35.335,tripletExp_regina_11082022,2022.2.4,119.39617356451735,
4,7,1,2,0.694444444444444,0.298245614035088,2,0.111111111111111,1.0,2,0.111111111111111,0.298245614035088,ReadingArea_rsl2-rcl69-esl29-rsm2-rcm11-esm100-rsr2-rcr11-esr29,exr/ReadingArea_rsl2-rcl69-esl29-rsm2-rcm11-esm100-rsr2-rcr11-esr29.exr,ReadingArea_rsl2-rcl69-esl29-rsm2-rcm11-esm100-rsr2-rcr11-esr29.npz,,,,,0,93,93,33,,right,red,1.01,466.9614388942719,467.4621119499207,,2,8,6,lightness,readingArea,realistic,75,2023-03-29_15h04.35.335,tripletExp_regina_11082022,2022.2.4,119.39617356451735,
10,6,13,2,0.694444444444444,1.0,2,0.027777777777778,1.0,2,0.111111111111111,3.10526315789474,ReadingArea_rsl2-rcl69-esl100-rsm2-rcm2-esm100-rsr2-rcr11-esr310,exr/ReadingArea_rsl2-rcl69-esl100-rsm2-rcm2-esm100-rsr2-rcr11-esr310.exr,ReadingArea_rsl2-rcl69-esl100-rsm2-rcm2-esm100-rsr2-rcr11-esr310.npz,,,,,0,94,94,41,,right,red,2.27,470.9616219997406,471.430114030838,,2,8,6,lightness,readingArea,realistic,75,2023-03-29_15h04.35.335,tripletExp_regina_11082022,2022.2.4,119.39617356451735,
8,14,6,2,0.25,1.0,2,0.25,3.10526315789474,2,0.027777777777778,1.0,ReadingArea_rsl2-rcl25-esl100-rsm2-rcm25-esm310-rsr2-rcr2-esr100,exr/ReadingArea_rsl2-rcl25-esl100-rsm2-rcm25-esm310-rsr2-rcr2-esr100.exr,ReadingArea_rsl2-rcl25-esl100-rsm2-rcm25-esm310-rsr2-rcr2-esr100.npz,,,,,0,95,95,469,,left,green,0.99,473.1548788547516,473.6336500644684,,2,8,6,lightness,readingArea,realistic,75,2023-03-29_15h04.35.335,tripletExp_regina_11082022,2022.2.4,119.39617356451735,
0,13,12,2,0.027777777777778,0.298245614035088,2,0.111111111111111,3.10526315789474,2,0.027777777777778,3.10526315789474,ReadingArea_rsl2-rcl2-esl29-rsm2-rcm11-esm310-rsr2-rcr2-esr310,exr/ReadingArea_rsl2-rcl2-esl29-rsm2-rcm11-esm310-rsr2-rcr2-esr310.exr,ReadingArea_rsl2-rcl2-esl29-rsm2-rcm11-esm310-rsr2-rcr2-esr310.npz,,,,,0,96,96,501,,right,red,0.74,475.32410407066345,,,2,8,6,lightness,readingArea,realistic,75,2023-03-29_15h04.35.335,tripletExp_regina_11082022,2022.2.4,119.39617356451735,
10,11,5,2,0.694444444444444,1.0,2,1.0,1.0,2,1.0,0.298245614035088,ReadingArea_rsl2-rcl69-esl100-rsm2-rcm100-esm100-rsr2-rcr100-esr29,exr/ReadingArea_rsl2-rcl69-esl100-rsm2-rcm100-esm100-rsr2-rcr100-esr29.exr,ReadingArea_rsl2-rcl69-esl100-rsm2-rcm100-esm100-rsr2-rcr100-esr29.npz,,,,,0,97,97,514,,left,green,2.17,479.26777696609497,479.7462780475617,,2,8,6,lightness,readingArea,realistic,75,2023-03-29_15h04.35.335,tripletExp_regina_11082022,2022.2.4,119.39617356451735,
2,9,11,2,0.25,0.298245614035088,2,0.444444444444444,1.0,2,1.0,1.0,ReadingArea_rsl2-rcl25-esl29-rsm2-rcm44-esm100-rsr2-rcr100-esr100,exr/ReadingArea_rsl2-rcl25-esl29-rsm2-rcm44-esm100-rsr2-rcr100-esr100.exr,ReadingArea_rsl2-rcl25-esl29-rsm2-rcm44-esm100-rsr2-rcr100-esr100.npz,,,,,0,98,98,164,,left,green,0.98,481.44898200035095,481.9362759590149,,2,8,6,lightness,readingArea,realistic,75,2023-03-29_15h04.35.335,tripletExp_regina_11082022,2022.2.4,119.39617356451735,
6,4,10,2,0.027777777777778,1.0,2,0.694444444444444,0.298245614035088,2,0.694444444444444,1.0,ReadingArea_rsl2-rcl2-esl100-rsm2-rcm69-esm29-rsr2-rcr69-esr100,exr/ReadingArea_rsl2-rcl2-esl100-rsm2-rcm69-esm29-rsr2-rcr69-esr100.exr,ReadingArea_rsl2-rcl2-esl100-rsm2-rcm69-esm29-rsr2-rcr69-esr100.npz,,,,,0,99,99,554,,right,red,1.0,483.6333110332489,484.14199900627136,,2,8,6,lightness,readingArea,realistic,75,2023-03-29_15h04.35.335,tripletExp_regina_11082022,2022.2.4,119.39617356451735,
6,3,1,2,0.027777777777778,1.0,2,0.444444444444444,0.298245614035088,2,0.111111111111111,0.298245614035088,ReadingArea_rsl2-rcl2-esl100-rsm2-rcm44-esm29-rsr2-rcr11-esr29,exr/ReadingArea_rsl2-rcl2-esl100-rsm2-rcm44-esm29-rsr2-rcr11-esr29.exr,ReadingArea_rsl2-rcl2-esl100-rsm2-rcm44-esm29-rsr2-rcr11-esr29.npz,,,,,0,100,100,430,,right,red,1.39,485.8367838859558,486.2973790168762,,2,8,6,lightness,readingArea,realistic,75,2023-03-29_15h04.35.335,tripletExp_regina_11082022,2022.2.4,119.39617356451735,
6,1,2,2,0.027777777777778,1.0,2,0.111111111111111,0.298245614035088,2,0.25,0.298245614035088,ReadingArea_rsl2-rcl2-esl100-rsm2-rcm11-esm29-rsr2-rcr25-esr29,exr/ReadingArea_rsl2-rcl2-esl100-rsm2-rcm11-esm29-rsr2-rcr25-esr29.exr,ReadingArea_rsl2-rcl2-esl100-rsm2-rcm11-esm29-rsr2-rcr25-esr29.npz,,,,,0,101,101,68,,right,red,1.65,487.9945108890533,488.4991149902344,,2,8,6,lightness,readingArea,realistic,75,2023-03-29_15h04.35.335,tripletExp_regina_11082022,2022.2.4,119.39617356451735,
9,13,5,2,0.444444444444444,1.0,2,0.111111111111111,3.10526315789474,2,1.0,0.298245614035088,ReadingArea_rsl2-rcl44-esl100-rsm2-rcm11-esm310-rsr2-rcr100-esr29,exr/ReadingArea_rsl2-rcl44-esl100-rsm2-rcm11-esm310-rsr2-rcr100-esr29.exr,ReadingArea_rsl2-rcl44-esl100-rsm2-rcm11-esm310-rsr2-rcr100-esr29.npz,,,,,0,102,102,349,,left,green,1.13,490.18887400627136,490.6768958568573,,2,8,6,lightness,readingArea,realistic,75,2023-03-29_15h04.35.335,tripletExp_regina_11082022,2022.2.4,119.39617356451735,
12,2,9,2,0.027777777777778,3.10526315789474,2,0.25,0.298245614035088,2,0.444444444444444,1.0,ReadingArea_rsl2-rcl2-esl310-rsm2-rcm25-esm29-rsr2-rcr44-esr100,exr/ReadingArea_rsl2-rcl2-esl310-rsm2-rcm25-esm29-rsr2-rcr44-esr100.exr,ReadingArea_rsl2-rcl2-esl310-rsm2-rcm25-esm29-rsr2-rcr44-esr100.npz,,,,,0,103,103,495,,left,green,2.75,494.13186502456665,494.6094629764557,,2,8,6,lightness,readingArea,realistic,75,2023-03-29_15h04.35.335,tripletExp_regina_11082022,2022.2.4,119.39617356451735,
7,14,5,2,0.111111111111111,1.0,2,0.25,3.10526315789474,2,1.0,0.298245614035088,ReadingArea_rsl2-rcl11-esl100-rsm2-rcm25-esm310-rsr2-rcr100-esr29,exr/ReadingArea_rsl2-rcl11-esl100-rsm2-rcm25-esm310-rsr2-rcr100-esr29.exr,ReadingArea_rsl2-rcl11-esl100-rsm2-rcm25-esm310-rsr2-rcr100-esr29.npz,,,,,0,104,104,372,,right,red,1.14,496.3059329986572,496.902370929718,,2,8,6,lightness,readingArea,realistic,75,2023-03-29_15h04.35.335,tripletExp_regina_11082022,2022.2.4,119.39617356451735,
12,10,9,2,0.027777777777778,3.10526315789474,2,0.694444444444444,1.0,2,0.444444444444444,1.0,ReadingArea_rsl2-rcl2-esl310-rsm2-rcm69-esm100-rsr2-rcr44-esr100,exr/ReadingArea_rsl2-rcl2-esl310-rsm2-rcm69-esm100-rsr2-rcr44-esr100.exr,ReadingArea_rsl2-rcl2-esl310-rsm2-rcm69-esm100-rsr2-rcr44-esr100.npz,,,,,0,105,105,126,,right,red,1.23,498.58691000938416,499.0746428966522,,2,8,6,lightness,readingArea,realistic,75,2023-03-29_15h04.35.335,tripletExp_regina_11082022,2022.2.4,119.39617356451735,
9,7,3,2,0.444444444444444,1.0,2,0.111111111111111,1.0,2,0.444444444444444,0.298245614035088,ReadingArea_rsl2-rcl44-esl100-rsm2-rcm11-esm100-rsr2-rcr44-esr29,exr/ReadingArea_rsl2-rcl44-esl100-rsm2-rcm11-esm100-rsr2-rcr44-esr29.exr,ReadingArea_rsl2-rcl44-esl100-rsm2-rcm11-esm100-rsr2-rcr44-esr29.npz,,,,,0,106,106,235,,right,red,2.85,502.555389881134,503.0403139591217,,2,8,6,lightness,readingArea,realistic,75,2023-03-29_15h04.35.335,tripletExp_regina_11082022,2022.2.4,119.39617356451735,
4,2,9,2,0.694444444444444,0.298245614035088,2,0.25,0.298245614035088,2,0.444444444444444,1.0,ReadingArea_rsl2-rcl69-esl29-rsm2-rcm25-esm29-rsr2-rcr44-esr100,exr/ReadingArea_rsl2-rcl69-esl29-rsm2-rcm25-esm29-rsr2-rcr44-esr100.exr,ReadingArea_rsl2-rcl69-esl29-rsm2-rcm25-esm29-rsr2-rcr44-esr100.npz,,,,,0,107,107,479,,left,green,2.65,506.5293278694153,,,2,8,6,lightness,readingArea,realistic,75,2023-03-29_15h04.35.335,tripletExp_regina_11082022,2022.2.4,119.39617356451735,
0,14,11,2,0.027777777777778,0.298245614035088,2,0.25,3.10526315789474,2,1.0,1.0,ReadingArea_rsl2-rcl2-esl29-rsm2-rcm25-esm310-rsr2-rcr100-esr100,exr/ReadingArea_rsl2-rcl2-esl29-rsm2-rcm25-esm310-rsr2-rcr100-esr100.exr,ReadingArea_rsl2-rcl2-esl29-rsm2-rcm25-esm310-rsr2-rcr100-esr100.npz,,,,,0,108,108,557,,right,red,1.2,508.7361719608307,509.2292370796204,,2,8,6,lightness,readingArea,realistic,75,2023-03-29_15h04.35.335,tripletExp_regina_11082022,2022.2.4,119.39617356451735,
5,4,1,2,1.0,0.298245614035088,2,0.694444444444444,0.298245614035088,2,0.111111111111111,0.298245614035088,ReadingArea_rsl2-rcl100-esl29-rsm2-rcm69-esm29-rsr2-rcr11-esr29,exr/ReadingArea_rsl2-rcl100-esl29-rsm2-rcm69-esm29-rsr2-rcr11-esr29.exr,ReadingArea_rsl2-rcl100-esl29-rsm2-rcm69-esm29-rsr2-rcr11-esr29.npz,,,,,0,109,109,560,,left,green,0.83,510.9516019821167,511.42992997169495,,2,8,6,lightness,readingArea,realistic,75,2023-03-29_15h04.35.335,tripletExp_regina_11082022,2022.2.4,119.39617356451735,
10,14,13,2,0.694444444444444,1.0,2,0.25,3.10526315789474,2,0.111111111111111,3.10526315789474,ReadingArea_rsl2-rcl69-esl100-rsm2-rcm25-esm310-rsr2-rcr11-esr310,exr/ReadingArea_rsl2-rcl69-esl100-rsm2-rcm25-esm310-rsr2-rcr11-esr310.exr,ReadingArea_rsl2-rcl69-esl100-rsm2-rcm25-esm310-rsr2-rcr11-esr310.npz,,,,,0,110,110,168,,left,green,1.25,513.140969991684,513.6236560344696,,2,8,6,lightness,readingArea,realistic,75,2023-03-29_15h04.35.335,tripletExp_regina_11082022,2022.2.4,119.39617356451735,
2,1,12,2,0.25,0.298245614035088,2,0.111111111111111,0.298245614035088,2,0.027777777777778,3.10526315789474,ReadingArea_rsl2-rcl25-esl29-rsm2-rcm11-esm29-rsr2-rcr2-esr310,exr/ReadingArea_rsl2-rcl25-esl29-rsm2-rcm11-esm29-rsr2-rcr2-esr310.exr,ReadingArea_rsl2-rcl25-esl29-rsm2-rcm11-esm29-rsr2-rcr2-esr310.npz,,,,,0,111,111,12,,right,red,4.53,518.855495929718,519.3309869766235,,2,8,6,lightness,readingArea,realistic,75,2023-03-29_15h04.35.335,tripletExp_regina_11082022,2022.2.4,119.39617356451735,
0,8,6,2,0.027777777777778,0.298245614035088,2,0.25,1.0,2,0.027777777777778,1.0,ReadingArea_rsl2-rcl2-esl29-rsm2-rcm25-esm100-rsr2-rcr2-esr100,exr/ReadingArea_rsl2-rcl2-esl29-rsm2-rcm25-esm100-rsr2-rcr2-esr100.exr,ReadingArea_rsl2-rcl2-esl29-rsm2-rcm25-esm100-rsr2-rcr2-esr100.npz,,,,,0,112,112,92,,right,red,2.43,522.7848808765411,523.268611907959,,2,8,6,lightness,readingArea,realistic,75,2023-03-29_15h04.35.335,tripletExp_regina_11082022,2022.2.4,119.39617356451735,
0,10,14,2,0.027777777777778,0.298245614035088,2,0.694444444444444,1.0,2,0.25,3.10526315789474,ReadingArea_rsl2-rcl2-esl29-rsm2-rcm69-esm100-rsr2-rcr25-esr310,exr/ReadingArea_rsl2-rcl2-esl29-rsm2-rcm69-esm100-rsr2-rcr25-esr310.exr,ReadingArea_rsl2-rcl2-esl29-rsm2-rcm69-esm100-rsr2-rcr25-esr310.npz,,,,,0,113,113,31,,right,red,0.81,524.9692208766937,525.447093963623,,2,8,6,lightness,readingArea,realistic,75,2023-03-29_15h04.35.335,tripletExp_regina_11082022,2022.2.4,119.39617356451735,
3,2,11,2,0.444444444444444,0.298245614035088,2,0.25,0.298245614035088,2,1.0,1.0,ReadingArea_rsl2-rcl44-esl29-rsm2-rcm25-esm29-rsr2-rcr100-esr100,exr/ReadingArea_rsl2-rcl44-esl29-rsm2-rcm25-esm29-rsr2-rcr100-esr100.exr,ReadingArea_rsl2-rcl44-esl29-rsm2-rcm25-esm29-rsr2-rcr100-esr100.npz,,,,,0,114,114,257,,left,green,0.87,527.1614038944244,527.6210789680481,,2,8,6,lightness,readingArea,realistic,75,2023-03-29_15h04.35.335,tripletExp_regina_11082022,2022.2.4,119.39617356451735,
8,6,13,2,0.25,1.0,2,0.027777777777778,1.0,2,0.111111111111111,3.10526315789474,ReadingArea_rsl2-rcl25-esl100-rsm2-rcm2-esm100-rsr2-rcr11-esr310,exr/ReadingArea_rsl2-rcl25-esl100-rsm2-rcm2-esm100-rsr2-rcr11-esr310.exr,ReadingArea_rsl2-rcl25-esl100-rsm2-rcm2-esm100-rsr2-rcr11-esr310.npz,,,,,0,115,115,440,,right,red,3.86,532.8445980548859,533.3375570774078,,2,8,6,lightness,readingArea,realistic,75,2023-03-29_15h04.35.335,tripletExp_regina_11082022,2022.2.4,119.39617356451735,
1,8,12,2,0.111111111111111,0.298245614035088,2,0.25,1.0,2,0.027777777777778,3.10526315789474,ReadingArea_rsl2-rcl11-esl29-rsm2-rcm25-esm100-rsr2-rcr2-esr310,exr/ReadingArea_rsl2-rcl11-esl29-rsm2-rcm25-esm100-rsr2-rcr2-esr310.exr,ReadingArea_rsl2-rcl11-esl29-rsm2-rcm25-esm100-rsr2-rcr2-esr310.npz,,,,,0,116,116,156,,left,green,3.26,536.79620885849,537.304034948349,,2,8,6,lightness,readingArea,realistic,75,2023-03-29_15h04.35.335,tripletExp_regina_11082022,2022.2.4,119.39617356451735,
5,3,2,2,1.0,0.298245614035088,2,0.444444444444444,0.298245614035088,2,0.25,0.298245614035088,ReadingArea_rsl2-rcl100-esl29-rsm2-rcm44-esm29-rsr2-rcr25-esr29,exr/ReadingArea_rsl2-rcl100-esl29-rsm2-rcm44-esm29-rsr2-rcr25-esr29.exr,ReadingArea_rsl2-rcl100-esl29-rsm2-rcm44-esm29-rsr2-rcr25-esr29.npz,,,,,0,117,117,143,,right,red,2.65,540.7789299488068,541.2509400844574,,2,8,6,lightness,readingArea,realistic,75,2023-03-29_15h04.35.335,tripletExp_regina_11082022,2022.2.4,119.39617356451735,
6,13,5,2,0.027777777777778,1.0,2,0.111111111111111,3.10526315789474,2,1.0,0.298245614035088,ReadingArea_rsl2-rcl2-esl100-rsm2-rcm11-esm310-rsr2-rcr100-esr29,exr/ReadingArea_rsl2-rcl2-esl100-rsm2-rcm11-esm310-rsr2-rcr100-esr29.exr,ReadingArea_rsl2-rcl2-esl100-rsm2-rcm11-esm310-rsr2-rcr100-esr29.npz,,,,,0,118,118,53,,right,red,1.45,542.9672660827637,543.468169927597,,2,8,6,lightness,readingArea,realistic,75,2023-03-29_15h04.35.335,tripletExp_regina_11082022,2022.2.4,119.39617356451735,
1,14,8,2,0.111111111111111,0.298245614035088,2,0.25,3.10526315789474,2,0.25,1.0,ReadingArea_rsl2-rcl11-esl29-rsm2-rcm25-esm310-rsr2-rcr25-esr100,exr/ReadingArea_rsl2-rcl11-esl29-rsm2-rcm25-esm310-rsr2-rcr25-esr100.exr,ReadingArea_rsl2-rcl11-esl29-rsm2-rcm25-esm310-rsr2-rcr25-esr100.npz,,,,,0,119,119,108,,right,red,1.45,545.1867110729218,545.7006869316101,,2,8,6,lightness,readingArea,realistic,75,2023-03-29_15h04.35.335,tripletExp_regina_11082022,2022.2.4,119.39617356451735,
12,6,2,2,0.027777777777778,3.10526315789474,2,0.027777777777778,1.0,2,0.25,0.298245614035088,ReadingArea_rsl2-rcl2-esl310-rsm2-rcm2-esm100-rsr2-rcr25-esr29,exr/ReadingArea_rsl2-rcl2-esl310-rsm2-rcm2-esm100-rsr2-rcr25-esr29.exr,ReadingArea_rsl2-rcl2-esl310-rsm2-rcm2-esm100-rsr2-rcr25-esr29.npz,,,,,0,120,120,106,,left,green,1.55,547.3893010616302,547.8642029762268,,2,8,6,lightness,readingArea,realistic,75,2023-03-29_15h04.35.335,tripletExp_regina_11082022,2022.2.4,119.39617356451735,
5,2,10,2,1.0,0.298245614035088,2,0.25,0.298245614035088,2,0.694444444444444,1.0,ReadingArea_rsl2-rcl100-esl29-rsm2-rcm25-esm29-rsr2-rcr69-esr100,exr/ReadingArea_rsl2-rcl100-esl29-rsm2-rcm25-esm29-rsr2-rcr69-esr100.exr,ReadingArea_rsl2-rcl100-esl29-rsm2-rcm25-esm29-rsr2-rcr69-esr100.npz,,,,,0,121,121,595,,left,green,1.91,551.3608808517456,551.8617169857025,,2,8,6,lightness,readingArea,realistic,75,2023-03-29_15h04.35.335,tripletExp_regina_11082022,2022.2.4,119.39617356451735,
5,2,0,2,1.0,0.298245614035088,2,0.25,0.298245614035088,2,0.027777777777778,0.298245614035088,ReadingArea_rsl2-rcl100-esl29-rsm2-rcm25-esm29-rsr2-rcr2-esr29,exr/ReadingArea_rsl2-rcl100-esl29-rsm2-rcm25-esm29-rsr2-rcr2-esr29.exr,ReadingArea_rsl2-rcl100-esl29-rsm2-rcm25-esm29-rsr2-rcr2-esr29.npz,,,,,0,122,122,476,,right,red,3.06,555.3164298534393,555.8010139465332,,2,8,6,lightness,readingArea,realistic,75,2023-03-29_15h04.35.335,tripletExp_regina_11082022,2022.2.4,119.39617356451735,
13,14,7,2,0.111111111111111,3.10526315789474,2,0.25,3.10526315789474,2,0.111111111111111,1.0,ReadingArea_rsl2-rcl11-esl310-rsm2-rcm25-esm310-rsr2-rcr11-esr100,exr/ReadingArea_rsl2-rcl11-esl310-rsm2-rcm25-esm310-rsr2-rcr11-esr100.exr,ReadingArea_rsl2-rcl11-esl310-rsm2-rcm25-esm310-rsr2-rcr11-esr100.npz,,,,,0,123,123,324,,left,green,3.13,559.2558958530426,559.7461190223694,,2,8,6,lightness,readingArea,realistic,75,2023-03-29_15h04.35.335,tripletExp_regina_11082022,2022.2.4,119.39617356451735,
6,3,13,2,0.027777777777778,1.0,2,0.444444444444444,0.298245614035088,2,0.111111111111111,3.10526315789474,ReadingArea_rsl2-rcl2-esl100-rsm2-rcm44-esm29-rsr2-rcr11-esr310,exr/ReadingArea_rsl2-rcl2-esl100-rsm2-rcm44-esm29-rsr2-rcr11-esr310.exr,ReadingArea_rsl2-rcl2-esl100-rsm2-rcm44-esm29-rsr2-rcr11-esr310.npz,,,,,0,124,124,228,,right,red,2.9,563.2098460197449,563.6976850032806,,2,8,6,lightness,readingArea,realistic,75,2023-03-29_15h04.35.335,tripletExp_regina_11082022,2022.2.4,119.39617356451735,
9,0,11,2,0.444444444444444,1.0,2,0.027777777777778,0.298245614035088,2,1.0,1.0,ReadingArea_rsl2-rcl44-esl100-rsm2-rcm2-esm29-rsr2-rcr100-esr100,exr/ReadingArea_rsl2-rcl44-esl100-rsm2-rcm2-esm29-rsr2-rcr100-esr100.exr,ReadingArea_rsl2-rcl44-esl100-rsm2-rcm2-esm29-rsr2-rcr100-esr100.npz,,,,,0,125,125,319,,left,green,1.33,565.3946869373322,565.8559238910675,,2,8,6,lightness,readingArea,realistic,75,2023-03-29_15h04.35.335,tripletExp_regina_11082022,2022.2.4,119.39617356451735,
13,10,12,2,0.111111111111111,3.10526315789474,2,0.694444444444444,1.0,2,0.027777777777778,3.10526315789474,ReadingArea_rsl2-rcl11-esl310-rsm2-rcm69-esm100-rsr2-rcr2-esr310,exr/ReadingArea_rsl2-rcl11-esl310-rsm2-rcm69-esm100-rsr2-rcr2-esr310.exr,ReadingArea_rsl2-rcl11-esl310-rsm2-rcm69-esm100-rsr2-rcr2-esr310.npz,,,,,0,126,126,384,,left,green,1.39,567.5562710762024,568.0748310089111,,2,8,6,lightness,readingArea,realistic,75,2023-03-29_15h04.35.335,tripletExp_regina_11082022,2022.2.4,119.39617356451735,
4,8,7,2,0.694444444444444,0.298245614035088,2,0.25,1.0,2,0.111111111111111,1.0,ReadingArea_rsl2-rcl69-esl29-rsm2-rcm25-esm100-rsr2-rcr11-esr100,exr/ReadingArea_rsl2-rcl69-esl29-rsm2-rcm25-esm100-rsr2-rcr11-esr100.exr,ReadingArea_rsl2-rcl69-esl29-rsm2-rcm25-esm100-rsr2-rcr11-esr100.npz,,,,,0,127,127,461,,left,green,1.19,569.7637588977814,570.235955953598,,2,8,6,lightness,readingArea,realistic,75,2023-03-29_15h04.35.335,tripletExp_regina_11082022,2022.2.4,119.39617356451735,
1,10,11,2,0.111111111111111,0.298245614035088,2,0.694444444444444,1.0,2,1.0,1.0,ReadingArea_rsl2-rcl11-esl29-rsm2-rcm69-esm100-rsr2-rcr100-esr100,exr/ReadingArea_rsl2-rcl11-esl29-rsm2-rcm69-esm100-rsr2-rcr100-esr100.exr,ReadingArea_rsl2-rcl11-esl29-rsm2-rcm69-esm100-rsr2-rcr100-esr100.npz,,,,,0,128,128,483,,right,red,0.9,571.9325950145721,572.4283158779144,,2,8,6,lightness,readingArea,realistic,75,2023-03-29_15h04.35.335,tripletExp_regina_11082022,2022.2.4,119.39617356451735,
11,8,2,2,1.0,1.0,2,0.25,1.0,2,0.25,0.298245614035088,ReadingArea_rsl2-rcl100-esl100-rsm2-rcm25-esm100-rsr2-rcr25-esr29,exr/ReadingArea_rsl2-rcl100-esl100-rsm2-rcm25-esm100-rsr2-rcr25-esr29.exr,ReadingArea_rsl2-rcl100-esl100-rsm2-rcm25-esm100-rsr2-rcr25-esr29.npz,,,,,0,129,129,406,,right,red,1.11,574.1189510822296,574.637589931488,,2,8,6,lightness,readingArea,realistic,75,2023-03-29_15h04.35.335,tripletExp_regina_11082022,2022.2.4,119.39617356451735,
14,8,3,2,0.25,3.10526315789474,2,0.25,1.0,2,0.444444444444444,0.298245614035088,ReadingArea_rsl2-rcl25-esl310-rsm2-rcm25-esm100-rsr2-rcr44-esr29,exr/ReadingArea_rsl2-rcl25-esl310-rsm2-rcm25-esm100-rsr2-rcr44-esr29.exr,ReadingArea_rsl2-rcl25-esl310-rsm2-rcm25-esm100-rsr2-rcr44-esr29.npz,,,,,0,130,130,100,,right,red,1.26,576.3594288825989,576.8571228981018,,2,8,6,lightness,readingArea,realistic,75,2023-03-29_15h04.35.335,tripletExp_regina_11082022,2022.2.4,119.39617356451735,
5,0,10,2,1.0,0.298245614035088,2,0.027777777777778,0.298245614035088,2,0.694444444444444,1.0,ReadingArea_rsl2-rcl100-esl29-rsm2-rcm2-esm29-rsr2-rcr69-esr100,exr/ReadingArea_rsl2-rcl100-esl29-rsm2-rcm2-esm29-rsr2-rcr69-esr100.exr,ReadingArea_rsl2-rcl100-esl29-rsm2-rcm2-esm29-rsr2-rcr69-esr100.npz,,,,,0,131,131,361,,left,green,1.3,578.5528979301453,579.0099630355835,,2,8,6,lightness,readingArea,realistic,75,2023-03-29_15h04.35.335,tripletExp_regina_11082022,2022.2.4,119.39617356451735,
2,11,7,2,0.25,0.298245614035088,2,1.0,1.0,2,0.111111111111111,1.0,ReadingArea_rsl2-rcl25-esl29-rsm2-rcm100-esm100-rsr2-rcr11-esr100,exr/ReadingArea_rsl2-rcl25-esl29-rsm2-rcm100-esm100-rsr2-rcr11-esr100.exr,ReadingArea_rsl2-rcl25-esl29-rsm2-rcm100-esm100-rsr2-rcr11-esr100.npz,,,,,0,132,132,576,,right,red,2.75,582.4822399616241,582.9577069282532,,2,8,6,lightness,readingArea,realistic,75,2023-03-29_15h04.35.335,tripletExp_regina_11082022,2022.2.4,119.39617356451735,
6,11,1,2,0.027777777777778,1.0,2,1.0,1.0,2,0.111111111111111,0.298245614035088,ReadingArea_rsl2-rcl2-esl100-rsm2-rcm100-esm100-rsr2-rcr11-esr29,exr/ReadingArea_rsl2-rcl2-esl100-rsm2-rcm100-esm100-rsr2-rcr11-esr29.exr,ReadingArea_rsl2-rcl2-esl100-rsm2-rcm100-esm100-rsr2-rcr11-esr29.npz,,,,,0,133,133,436,,left,green,4.75,588.191132068634,588.6737959384918,,2,8,6,lightness,readingArea,realistic,75,2023-03-29_15h04.35.335,tripletExp_regina_11082022,2022.2.4,119.39617356451735,
14,3,2,2,0.25,3.10526315789474,2,0.444444444444444,0.298245614035088,2,0.25,0.298245614035088,ReadingArea_rsl2-rcl25-esl310-rsm2-rcm44-esm29-rsr2-rcr25-esr29,exr/ReadingArea_rsl2-rcl25-esl310-rsm2-rcm44-esm29-rsr2-rcr25-esr29.exr,ReadingArea_rsl2-rcl25-esl310-rsm2-rcm44-esm29-rsr2-rcr25-esr29.npz,,,,,0,134,134,52,,right,red,1.11,590.3692438602448,590.8228828907013,,2,8,6,lightness,readingArea,realistic,75,2023-03-29_15h04.35.335,tripletExp_regina_11082022,2022.2.4,119.39617356451735,
9,4,14,2,0.444444444444444,1.0,2,0.694444444444444,0.298245614035088,2,0.25,3.10526315789474,ReadingArea_rsl2-rcl44-esl100-rsm2-rcm69-esm29-rsr2-rcr25-esr310,exr/ReadingArea_rsl2-rcl44-esl100-rsm2-rcm69-esm29-rsr2-rcr25-esr310.exr,ReadingArea_rsl2-rcl44-esl100-rsm2-rcm69-esm29-rsr2-rcr25-esr310.npz,,,,,0,135,135,104,,left,green,4.14,596.0670490264893,596.5513899326324,,2,8,6,lightness,readingArea,realistic,75,2023-03-29_15h04.35.335,tripletExp_regina_11082022,2022.2.4,119.39617356451735,
13,0,4,2,0.111111111111111,3.10526315789474,2,0.027777777777778,0.298245614035088,2,0.694444444444444,0.298245614035088,ReadingArea_rsl2-rcl11-esl310-rsm2-rcm2-esm29-rsr2-rcr69-esr29,exr/ReadingArea_rsl2-rcl11-esl310-rsm2-rcm2-esm29-rsr2-rcr69-esr29.exr,ReadingArea_rsl2-rcl11-esl310-rsm2-rcm2-esm29-rsr2-rcr69-esr29.npz,,,,,0,136,136,270,,right,red,4.85,601.7842609882355,602.2643449306488,,2,8,6,lightness,readingArea,realistic,75,2023-03-29_15h04.35.335,tripletExp_regina_11082022,2022.2.4,119.39617356451735,
8,3,12,2,0.25,1.0,2,0.444444444444444,0.298245614035088,2,0.027777777777778,3.10526315789474,ReadingArea_rsl2-rcl25-esl100-rsm2-rcm44-esm29-rsr2-rcr2-esr310,exr/ReadingArea_rsl2-rcl25-esl100-rsm2-rcm44-esm29-rsr2-rcr2-esr310.exr,ReadingArea_rsl2-rcl25-esl100-rsm2-rcm44-esm29-rsr2-rcr2-esr310.npz,,,,,0,137,137,22,,left,green,1.18,603.9539580345154,604.412034034729,,2,8,6,lightness,readingArea,realistic,75,2023-03-29_15h04.35.335,tripletExp_regina_11082022,2022.2.4,119.39617356451735,
9,13,6,2,0.444444444444444,1.0,2,0.111111111111111,3.10526315789474,2,0.027777777777778,1.0,ReadingArea_rsl2-rcl44-esl100-rsm2-rcm11-esm310-rsr2-rcr2-esr100,exr/ReadingArea_rsl2-rcl44-esl100-rsm2-rcm11-esm310-rsr2-rcr2-esr100.exr,ReadingArea_rsl2-rcl44-esl100-rsm2-rcm11-esm310-rsr2-rcr2-esr100.npz,,,,,0,138,138,13,,left,green,3.16,607.8613090515137,608.3407220840454,,2,8,6,lightness,readingArea,realistic,75,2023-03-29_15h04.35.335,tripletExp_regina_11082022,2022.2.4,119.39617356451735,
5,4,10,2,1.0,0.298245614035088,2,0.694444444444444,0.298245614035088,2,0.694444444444444,1.0,ReadingArea_rsl2-rcl100-esl29-rsm2-rcm69-esm29-rsr2-rcr69-esr100,exr/ReadingArea_rsl2-rcl100-esl29-rsm2-rcm69-esm29-rsr2-rcr69-esr100.exr,ReadingArea_rsl2-rcl100-esl29-rsm2-rcm69-esm29-rsr2-rcr69-esr100.npz,,,,,0,139,139,536,,left,green,1.17,610.0412640571594,610.5034608840942,,2,8,6,lightness,readingArea,realistic,75,2023-03-29_15h04.35.335,tripletExp_regina_11082022,2022.2.4,119.39617356451735,
3,10,4,2,0.444444444444444,0.298245614035088,2,0.694444444444444,1.0,2,0.694444444444444,0.298245614035088,ReadingArea_rsl2-rcl44-esl29-rsm2-rcm69-esm100-rsr2-rcr69-esr29,exr/ReadingArea_rsl2-rcl44-esl29-rsm2-rcm69-esm100-rsr2-rcr69-esr29.exr,ReadingArea_rsl2-rcl44-esl29-rsm2-rcm69-esm100-rsr2-rcr69-esr29.npz,,,,,0,140,140,435,,right,red,4.2,615.7018148899078,616.1948189735413,,2,8,6,lightness,readingArea,realistic,75,2023-03-29_15h04.35.335,tripletExp_regina_11082022,2022.2.4,119.39617356451735,
12,6,7,2,0.027777777777778,3.10526315789474,2,0.027777777777778,1.0,2,0.111111111111111,1.0,ReadingArea_rsl2-rcl2-esl310-rsm2-rcm2-esm100-rsr2-rcr11-esr100,exr/ReadingArea_rsl2-rcl2-esl310-rsm2-rcm2-esm100-rsr2-rcr11-esr100.exr,ReadingArea_rsl2-rcl2-esl310-rsm2-rcm2-esm100-rsr2-rcr11-esr100.npz,,,,,0,141,141,308,,left,green,3.06,619.6468758583069,,,2,8,6,lightness,readingArea,realistic,75,2023-03-29_15h04.35.335,tripletExp_regina_11082022,2022.2.4,119.39617356451735,
0,4,6,2,0.027777777777778,0.298245614035088,2,0.694444444444444,0.298245614035088,2,0.027777777777778,1.0,ReadingArea_rsl2-rcl2-esl29-rsm2-rcm69-esm29-rsr2-rcr2-esr100,exr/ReadingArea_rsl2-rcl2-esl29-rsm2-rcm69-esm29-rsr2-rcr2-esr100.exr,ReadingArea_rsl2-rcl2-esl29-rsm2-rcm69-esm29-rsr2-rcr2-esr100.npz,,,,,0,142,142,49,,right,red,4.78,625.3316190242767,,,2,8,6,lightness,readingArea,realistic,75,2023-03-29_15h04.35.335,tripletExp_regina_11082022,2022.2.4,119.39617356451735,
3,1,0,2,0.444444444444444,0.298245614035088,2,0.111111111111111,0.298245614035088,2,0.027777777777778,0.298245614035088,ReadingArea_rsl2-rcl44-esl29-rsm2-rcm11-esm29-rsr2-rcr2-esr29,exr/ReadingArea_rsl2-rcl44-esl29-rsm2-rcm11-esm29-rsr2-rcr2-esr29.exr,ReadingArea_rsl2-rcl44-esl29-rsm2-rcm11-esm29-rsr2-rcr2-esr29.npz,,,,,0,143,143,343,,right,red,0.95,627.5215520858765,627.9908900260925,,2,8,6,lightness,readingArea,realistic,75,2023-03-29_15h04.35.335,tripletExp_regina_11082022,2022.2.4,119.39617356451735,
6,9,2,2,0.027777777777778,1.0,2,0.444444444444444,1.0,2,0.25,0.298245614035088,ReadingArea_rsl2-rcl2-esl100-rsm2-rcm44-esm100-rsr2-rcr25-esr29,exr/ReadingArea_rsl2-rcl2-esl100-rsm2-rcm44-esm100-rsr2-rcr25-esr29.exr,ReadingArea_rsl2-rcl2-esl100-rsm2-rcm44-esm100-rsr2-rcr25-esr29.npz,,,,,0,144,144,182,,right,red,0.96,629.6887450218201,630.1836168766022,,2,8,6,lightness,readingArea,realistic,75,2023-03-29_15h04.35.335,tripletExp_regina_11082022,2022.2.4,119.39617356451735,
2,5,14,2,0.25,0.298245614035088,2,1.0,0.298245614035088,2,0.25,3.10526315789474,ReadingArea_rsl2-rcl25-esl29-rsm2-rcm100-esm29-rsr2-rcr25-esr310,exr/ReadingArea_rsl2-rcl25-esl29-rsm2-rcm100-esm29-rsr2-rcr25-esr310.exr,ReadingArea_rsl2-rcl25-esl29-rsm2-rcm100-esm29-rsr2-rcr25-esr310.npz,,,,,0,145,145,390,,right,red,0.82,631.8726840019226,632.3496758937836,,2,8,6,lightness,readingArea,realistic,75,2023-03-29_15h04.35.335,tripletExp_regina_11082022,2022.2.4,119.39617356451735,
7,8,11,2,0.111111111111111,1.0,2,0.25,1.0,2,1.0,1.0,ReadingArea_rsl2-rcl11-esl100-rsm2-rcm25-esm100-rsr2-rcr100-esr100,exr/ReadingArea_rsl2-rcl11-esl100-rsm2-rcm25-esm100-rsr2-rcr100-esr100.exr,ReadingArea_rsl2-rcl11-esl100-rsm2-rcm25-esm100-rsr2-rcr100-esr100.npz,,,,,0,146,146,363,,left,green,1.33,634.0413539409637,,,2,8,6,lightness,readingArea,realistic,75,2023-03-29_15h04.35.335,tripletExp_regina_11082022,2022.2.4,119.39617356451735,
4,1,13,2,0.694444444444444,0.298245614035088,2,0.111111111111111,0.298245614035088,2,0.111111111111111,3.10526315789474,ReadingArea_rsl2-rcl69-esl29-rsm2-rcm11-esm29-rsr2-rcr11-esr310,exr/ReadingArea_rsl2-rcl69-esl29-rsm2-rcm11-esm29-rsr2-rcr11-esr310.exr,ReadingArea_rsl2-rcl69-esl29-rsm2-rcm11-esm29-rsr2-rcr11-esr310.npz,,,,,0,147,147,565,,right,red,1.63,636.2031939029694,636.7001440525055,,2,8,6,lightness,readingArea,realistic,75,2023-03-29_15h04.35.335,tripletExp_regina_11082022,2022.2.4,119.39617356451735,
12,9,11,2,0.027777777777778,3.10526315789474,2,0.444444444444444,1.0,2,1.0,1.0,ReadingArea_rsl2-rcl2-esl310-rsm2-rcm44-esm100-rsr2-rcr100-esr100,exr/ReadingArea_rsl2-rcl2-esl310-rsm2-rcm44-esm100-rsr2-rcr100-esr100.exr,ReadingArea_rsl2-rcl2-esl310-rsm2-rcm44-esm100-rsr2-rcr100-esr100.npz,,,,,0,148,148,18,,left,green,3.01,640.1821269989014,640.6646189689636,,2,8,6,lightness,readingArea,realistic,75,2023-03-29_15h04.35.335,tripletExp_regina_11082022,2022.2.4,119.39617356451735,
11,2,4,2,1.0,1.0,2,0.25,0.298245614035088,2,0.694444444444444,0.298245614035088,ReadingArea_rsl2-rcl100-esl100-rsm2-rcm25-esm29-rsr2-rcr69-esr29,exr/ReadingArea_rsl2-rcl100-esl100-rsm2-rcm25-esm29-rsr2-rcr69-esr29.exr,ReadingArea_rsl2-rcl100-esl100-rsm2-rcm25-esm29-rsr2-rcr69-esr29.npz,,,,,0,149,149,359,,right,red,1.05,642.3676130771637,,,2,8,6,lightness,readingArea,realistic,75,2023-03-29_15h04.35.335,tripletExp_regina_11082022,2022.2.4,119.39617356451735,
13,12,5,2,0.111111111111111,3.10526315789474,2,0.027777777777778,3.10526315789474,2,1.0,0.298245614035088,ReadingArea_rsl2-rcl11-esl310-rsm2-rcm2-esm310-rsr2-rcr100-esr29,exr/ReadingArea_rsl2-rcl11-esl310-rsm2-rcm2-esm310-rsr2-rcr100-esr29.exr,ReadingArea_rsl2-rcl11-esl310-rsm2-rcm2-esm310-rsr2-rcr100-esr29.npz,,,,,0,150,150,294,,left,green,2.69,676.4664509296417,676.9585249423981,,3,8,6,lightness,readingArea,realistic,75,2023-03-29_15h04.35.335,tripletExp_regina_11082022,2022.2.4,119.39617356451735,
12,8,9,2,0.027777777777778,3.10526315789474,2,0.25,1.0,2,0.444444444444444,1.0,ReadingArea_rsl2-rcl2-esl310-rsm2-rcm25-esm100-rsr2-rcr44-esr100,exr/ReadingArea_rsl2-rcl2-esl310-rsm2-rcm25-esm100-rsr2-rcr44-esr100.exr,ReadingArea_rsl2-rcl2-esl310-rsm2-rcm25-esm100-rsr2-rcr44-esr100.npz,,,,,0,151,151,517,,right,red,0.93,678.6693260669708,679.1453840732574,,3,8,6,lightness,readingArea,realistic,75,2023-03-29_15h04.35.335,tripletExp_regina_11082022,2022.2.4,119.39617356451735,
13,6,12,2,0.111111111111111,3.10526315789474,2,0.027777777777778,1.0,2,0.027777777777778,3.10526315789474,ReadingArea_rsl2-rcl11-esl310-rsm2-rcm2-esm100-rsr2-rcr2-esr310,exr/ReadingArea_rsl2-rcl11-esl310-rsm2-rcm2-esm100-rsr2-rcr2-esr310.exr,ReadingArea_rsl2-rcl11-esl310-rsm2-rcm2-esm100-rsr2-rcr2-esr310.npz,,,,,0,152,152,147,,right,red,3.42,682.6038999557495,683.1105449199677,,3,8,6,lightness,readingArea,realistic,75,2023-03-29_15h04.35.335,tripletExp_regina_11082022,2022.2.4,119.39617356451735,
14,4,8,2,0.25,3.10526315789474,2,0.694444444444444,0.298245614035088,2,0.25,1.0,ReadingArea_rsl2-rcl25-esl310-rsm2-rcm69-esm29-rsr2-rcr25-esr100,exr/ReadingArea_rsl2-rcl25-esl310-rsm2-rcm69-esm29-rsr2-rcr25-esr100.exr,ReadingArea_rsl2-rcl25-esl310-rsm2-rcm69-esm29-rsr2-rcr25-esr100.npz,,,,,0,153,153,253,,right,red,1.42,684.8236150741577,,,3,8,6,lightness,readingArea,realistic,75,2023-03-29_15h04.35.335,tripletExp_regina_11082022,2022.2.4,119.39617356451735,
2,9,10,2,0.25,0.298245614035088,2,0.444444444444444,1.0,2,0.694444444444444,1.0,ReadingArea_rsl2-rcl25-esl29-rsm2-rcm44-esm100-rsr2-rcr69-esr100,exr/ReadingArea_rsl2-rcl25-esl29-rsm2-rcm44-esm100-rsr2-rcr69-esr100.exr,ReadingArea_rsl2-rcl25-esl29-rsm2-rcm44-esm100-rsr2-rcr69-esr100.npz,,,,,0,154,154,117,,right,red,0.78,687.0061988830566,687.4613208770752,,3,8,6,lightness,readingArea,realistic,75,2023-03-29_15h04.35.335,tripletExp_regina_11082022,2022.2.4,119.39617356451735,
12,7,1,2,0.027777777777778,3.10526315789474,2,0.111111111111111,1.0,2,0.111111111111111,0.298245614035088,ReadingArea_rsl2-rcl2-esl310-rsm2-rcm11-esm100-rsr2-rcr11-esr29,exr/ReadingArea_rsl2-rcl2-esl310-rsm2-rcm11-esm100-rsr2-rcr11-esr29.exr,ReadingArea_rsl2-rcl2-esl310-rsm2-rcm11-esm100-rsr2-rcr11-esr29.npz,,,,,0,155,155,264,,right,red,3.07,690.9285340309143,691.4356100559235,,3,8,6,lightness,readingArea,realistic,75,2023-03-29_15h04.35.335,tripletExp_regina_11082022,2022.2.4,119.39617356451735,
8,13,2,2,0.25,1.0,2,0.111111111111111,3.10526315789474,2,0.25,0.298245614035088,ReadingArea_rsl2-rcl25-esl100-rsm2-rcm11-esm310-rsr2-rcr25-esr29,exr/ReadingArea_rsl2-rcl25-esl100-rsm2-rcm11-esm310-rsr2-rcr25-esr29.exr,ReadingArea_rsl2-rcl25-esl100-rsm2-rcm11-esm310-rsr2-rcr25-esr29.npz,,,,,0,156,156,376,,left,green,1.51,693.1539800167084,693.6569418907166,,3,8,6,lightness,readingArea,realistic,75,2023-03-29_15h04.35.335,tripletExp_regina_11082022,2022.2.4,119.39617356451735,
3,2,8,2,0.444444444444444,0.298245614035088,2,0.25,0.298245614035088,2,0.25,1.0,ReadingArea_rsl2-rcl44-esl29-rsm2-rcm25-esm29-rsr2-rcr25-esr100,exr/ReadingArea_rsl2-rcl44-esl29-rsm2-rcm25-esm29-rsr2-rcr25-esr100.exr,ReadingArea_rsl2-rcl44-esl29-rsm2-rcm25-esm29-rsr2-rcr25-esr100.npz,,,,,0,157,157,181,,right,red,3.06,697.1290469169617,697.6271719932556,,3,8,6,lightness,readingArea,realistic,75,2023-03-29_15h04.35.335,tripletExp_regina_11082022,2022.2.4,119.39617356451735,
4,14,12,2,0.694444444444444,0.298245614035088,2,0.25,3.10526315789474,2,0.027777777777778,3.10526315789474,ReadingArea_rsl2-rcl69-esl29-rsm2-rcm25-esm310-rsr2-rcr2-esr310,exr/ReadingArea_rsl2-rcl69-esl29-rsm2-rcm25-esm310-rsr2-rcr2-esr310.exr,ReadingArea_rsl2-rcl69-esl29-rsm2-rcm25-esm310-rsr2-rcr2-esr310.npz,,,,,0,158,158,392,,left,green,4.12,702.8673899173737,703.3762440681458,,3,8,6,lightness,readingArea,realistic,75,2023-03-29_15h04.35.335,tripletExp_regina_11082022,2022.2.4,119.39617356451735,
1,14,0,2,0.111111111111111,0.298245614035088,2,0.25,3.10526315789474,2,0.027777777777778,0.298245614035088,ReadingArea_rsl2-rcl11-esl29-rsm2-rcm25-esm310-rsr2-rcr2-esr29,exr/ReadingArea_rsl2-rcl11-esl29-rsm2-rcm25-esm310-rsr2-rcr2-esr29.exr,ReadingArea_rsl2-rcl11-esl29-rsm2-rcm25-esm310-rsr2-rcr2-esr29.npz,,,,,0,159,159,394,,left,green,2.96,706.8372769355774,707.3332550525665,,3,8,6,lightness,readingArea,realistic,75,2023-03-29_15h04.35.335,tripletExp_regina_11082022,2022.2.4,119.39617356451735,
8,12,13,2,0.25,1.0,2,0.027777777777778,3.10526315789474,2,0.111111111111111,3.10526315789474,ReadingArea_rsl2-rcl25-esl100-rsm2-rcm2-esm310-rsr2-rcr11-esr310,exr/ReadingArea_rsl2-rcl25-esl100-rsm2-rcm2-esm310-rsr2-rcr11-esr310.exr,ReadingArea_rsl2-rcl25-esl100-rsm2-rcm2-esm310-rsr2-rcr11-esr310.npz,,,,,0,160,160,275,,right,red,2.21,710.7956578731537,711.2965319156647,,3,8,6,lightness,readingArea,realistic,75,2023-03-29_15h04.35.335,tripletExp_regina_11082022,2022.2.4,119.39617356451735,
9,3,8,2,0.444444444444444,1.0,2,0.444444444444444,0.298245614035088,2,0.25,1.0,ReadingArea_rsl2-rcl44-esl100-rsm2-rcm44-esm29-rsr2-rcr25-esr100,exr/ReadingArea_rsl2-rcl44-esl100-rsm2-rcm44-esm29-rsr2-rcr25-esr100.exr,ReadingArea_rsl2-rcl44-esl100-rsm2-rcm44-esm29-rsr2-rcr25-esr100.npz,,,,,0,161,161,530,,right,red,0.93,712.9908318519592,713.5097780227661,,3,8,6,lightness,readingArea,realistic,75,2023-03-29_15h04.35.335,tripletExp_regina_11082022,2022.2.4,119.39617356451735,
9,6,13,2,0.444444444444444,1.0,2,0.027777777777778,1.0,2,0.111111111111111,3.10526315789474,ReadingArea_rsl2-rcl44-esl100-rsm2-rcm2-esm100-rsr2-rcr11-esr310,exr/ReadingArea_rsl2-rcl44-esl100-rsm2-rcm2-esm100-rsr2-rcr11-esr310.exr,ReadingArea_rsl2-rcl44-esl100-rsm2-rcm2-esm100-rsr2-rcr11-esr310.npz,,,,,0,162,162,285,,right,red,2.02,716.9565629959106,717.4496479034424,,3,8,6,lightness,readingArea,realistic,75,2023-03-29_15h04.35.335,tripletExp_regina_11082022,2022.2.4,119.39617356451735,
6,10,11,2,0.027777777777778,1.0,2,0.694444444444444,1.0,2,1.0,1.0,ReadingArea_rsl2-rcl2-esl100-rsm2-rcm69-esm100-rsr2-rcr100-esr100,exr/ReadingArea_rsl2-rcl2-esl100-rsm2-rcm69-esm100-rsr2-rcr100-esr100.exr,ReadingArea_rsl2-rcl2-esl100-rsm2-rcm69-esm100-rsr2-rcr100-esr100.npz,,,,,0,163,163,116,,right,red,1.23,719.1413960456848,719.6612849235535,,3,8,6,lightness,readingArea,realistic,75,2023-03-29_15h04.35.335,tripletExp_regina_11082022,2022.2.4,119.39617356451735,
9,0,3,2,0.444444444444444,1.0,2,0.027777777777778,0.298245614035088,2,0.444444444444444,0.298245614035088,ReadingArea_rsl2-rcl44-esl100-rsm2-rcm2-esm29-rsr2-rcr44-esr29,exr/ReadingArea_rsl2-rcl44-esl100-rsm2-rcm2-esm29-rsr2-rcr44-esr29.exr,ReadingArea_rsl2-rcl44-esl100-rsm2-rcm2-esm29-rsr2-rcr44-esr29.npz,,,,,0,164,164,2,,right,red,1.36,721.3570508956909,721.8083300590515,,3,8,6,lightness,readingArea,realistic,75,2023-03-29_15h04.35.335,tripletExp_regina_11082022,2022.2.4,119.39617356451735,
14,6,5,2,0.25,3.10526315789474,2,0.027777777777778,1.0,2,1.0,0.298245614035088,ReadingArea_rsl2-rcl25-esl310-rsm2-rcm2-esm100-rsr2-rcr100-esr29,exr/ReadingArea_rsl2-rcl25-esl310-rsm2-rcm2-esm100-rsr2-rcr100-esr29.exr,ReadingArea_rsl2-rcl25-esl310-rsm2-rcm2-esm100-rsr2-rcr100-esr29.npz,,,,,0,165,165,297,,right,red,1.4,723.5116009712219,724.0000970363617,,3,8,6,lightness,readingArea,realistic,75,2023-03-29_15h04.35.335,tripletExp_regina_11082022,2022.2.4,119.39617356451735,
3,14,10,2,0.444444444444444,0.298245614035088,2,0.25,3.10526315789474,2,0.694444444444444,1.0,ReadingArea_rsl2-rcl44-esl29-rsm2-rcm25-esm310-rsr2-rcr69-esr100,exr/ReadingArea_rsl2-rcl44-esl29-rsm2-rcm25-esm310-rsr2-rcr69-esr100.exr,ReadingArea_rsl2-rcl44-esl29-rsm2-rcm25-esm310-rsr2-rcr69-esr100.npz,,,,,0,166,166,279,,right,red,1.57,725.6922988891602,726.2125580310822,,3,8,6,lightness,readingArea,realistic,75,2023-03-29_15h04.35.335,tripletExp_regina_11082022,2022.2.4,119.39617356451735,
9,6,11,2,0.444444444444444,1.0,2,0.027777777777778,1.0,2,1.0,1.0,ReadingArea_rsl2-rcl44-esl100-rsm2-rcm2-esm100-rsr2-rcr100-esr100,exr/ReadingArea_rsl2-rcl44-esl100-rsm2-rcm2-esm100-rsr2-rcr100-esr100.exr,ReadingArea_rsl2-rcl44-esl100-rsm2-rcm2-esm100-rsr2-rcr100-esr100.npz,,,,,0,167,167,572,,left,green,2.55,729.6839869022369,730.1727600097656,,3,8,6,lightness,readingArea,realistic,75,2023-03-29_15h04.35.335,tripletExp_regina_11082022,2022.2.4,119.39617356451735,
11,12,2,2,1.0,1.0,2,0.027777777777778,3.10526315789474,2,0.25,0.298245614035088,ReadingArea_rsl2-rcl100-esl100-rsm2-rcm2-esm310-rsr2-rcr25-esr29,exr/ReadingArea_rsl2-rcl100-esl100-rsm2-rcm2-esm310-rsr2-rcr25-esr29.exr,ReadingArea_rsl2-rcl100-esl100-rsm2-rcm2-esm310-rsr2-rcr25-esr29.npz,,,,,0,168,168,423,,right,red,1.11,731.8675940036774,732.3728098869324,,3,8,6,lightness,readingArea,realistic,75,2023-03-29_15h04.35.335,tripletExp_regina_11082022,2022.2.4,119.39617356451735,
5,3,6,2,1.0,0.298245614035088,2,0.444444444444444,0.298245614035088,2,0.027777777777778,1.0,ReadingArea_rsl2-rcl100-esl29-rsm2-rcm44-esm29-rsr2-rcr2-esr100,exr/ReadingArea_rsl2-rcl100-esl29-rsm2-rcm44-esm29-rsr2-rcr2-esr100.exr,ReadingArea_rsl2-rcl100-esl29-rsm2-rcm44-esm29-rsr2-rcr2-esr100.npz,,,,,0,169,169,316,,left,green,0.95,734.0977010726929,734.6067540645599,,3,8,6,lightness,readingArea,realistic,75,2023-03-29_15h04.35.335,tripletExp_regina_11082022,2022.2.4,119.39617356451735,
3,14,4,2,0.444444444444444,0.298245614035088,2,0.25,3.10526315789474,2,0.694444444444444,0.298245614035088,ReadingArea_rsl2-rcl44-esl29-rsm2-rcm25-esm310-rsr2-rcr69-esr29,exr/ReadingArea_rsl2-rcl44-esl29-rsm2-rcm25-esm310-rsr2-rcr69-esr29.exr,ReadingArea_rsl2-rcl44-esl29-rsm2-rcm25-esm310-rsr2-rcr69-esr29.npz,,,,,0,170,170,537,,right,red,2.85,738.088320016861,738.5668039321899,,3,8,6,lightness,readingArea,realistic,75,2023-03-29_15h04.35.335,tripletExp_regina_11082022,2022.2.4,119.39617356451735,
5,3,10,2,1.0,0.298245614035088,2,0.444444444444444,0.298245614035088,2,0.694444444444444,1.0,ReadingArea_rsl2-rcl100-esl29-rsm2-rcm44-esm29-rsr2-rcr69-esr100,exr/ReadingArea_rsl2-rcl100-esl29-rsm2-rcm44-esm29-rsr2-rcr69-esr100.exr,ReadingArea_rsl2-rcl100-esl29-rsm2-rcm44-esm29-rsr2-rcr69-esr100.npz,,,,,0,171,171,546,,left,green,3.52,742.0666229724884,,,3,8,6,lightness,readingArea,realistic,75,2023-03-29_15h04.35.335,tripletExp_regina_11082022,2022.2.4,119.39617356451735,
9,12,11,2,0.444444444444444,1.0,2,0.027777777777778,3.10526315789474,2,1.0,1.0,ReadingArea_rsl2-rcl44-esl100-rsm2-rcm2-esm310-rsr2-rcr100-esr100,exr/ReadingArea_rsl2-rcl44-esl100-rsm2-rcm2-esm310-rsr2-rcr100-esr100.exr,ReadingArea_rsl2-rcl44-esl100-rsm2-rcm2-esm310-rsr2-rcr100-esr100.npz,,,,,0,172,172,144,,left,green,2.32,746.0779550075531,746.5775258541107,,3,8,6,lightness,readingArea,realistic,75,2023-03-29_15h04.35.335,tripletExp_regina_11082022,2022.2.4,119.39617356451735,
2,7,11,2,0.25,0.298245614035088,2,0.111111111111111,1.0,2,1.0,1.0,ReadingArea_rsl2-rcl25-esl29-rsm2-rcm11-esm100-rsr2-rcr100-esr100,exr/ReadingArea_rsl2-rcl25-esl29-rsm2-rcm11-esm100-rsr2-rcr100-esr100.exr,ReadingArea_rsl2-rcl25-esl29-rsm2-rcm11-esm100-rsr2-rcr100-esr100.npz,,,,,0,173,173,194,,left,green,1.43,748.2736918926239,748.740886926651,,3,8,6,lightness,readingArea,realistic,75,2023-03-29_15h04.35.335,tripletExp_regina_11082022,2022.2.4,119.39617356451735,
14,3,4,2,0.25,3.10526315789474,2,0.444444444444444,0.298245614035088,2,0.694444444444444,0.298245614035088,ReadingArea_rsl2-rcl25-esl310-rsm2-rcm44-esm29-rsr2-rcr69-esr29,exr/ReadingArea_rsl2-rcl25-esl310-rsm2-rcm44-esm29-rsr2-rcr69-esr29.exr,ReadingArea_rsl2-rcl25-esl310-rsm2-rcm44-esm29-rsr2-rcr69-esr29.npz,,,,,0,174,174,127,,right,red,0.94,750.4308760166168,750.9128849506378,,3,8,6,lightness,readingArea,realistic,75,2023-03-29_15h04.35.335,tripletExp_regina_11082022,2022.2.4,119.39617356451735,
1,13,7,2,0.111111111111111,0.298245614035088,2,0.111111111111111,3.10526315789474,2,0.111111111111111,1.0,ReadingArea_rsl2-rcl11-esl29-rsm2-rcm11-esm310-rsr2-rcr11-esr100,exr/ReadingArea_rsl2-rcl11-esl29-rsm2-rcm11-esm310-rsr2-rcr11-esr100.exr,ReadingArea_rsl2-rcl11-esl29-rsm2-rcm11-esm310-rsr2-rcr11-esr100.npz,,,,,0,175,175,158,,right,red,2.45,754.3894829750061,754.8610639572144,,3,8,6,lightness,readingArea,realistic,75,2023-03-29_15h04.35.335,tripletExp_regina_11082022,2022.2.4,119.39617356451735,
4,8,11,2,0.694444444444444,0.298245614035088,2,0.25,1.0,2,1.0,1.0,ReadingArea_rsl2-rcl69-esl29-rsm2-rcm25-esm100-rsr2-rcr100-esr100,exr/ReadingArea_rsl2-rcl69-esl29-rsm2-rcm25-esm100-rsr2-rcr100-esr100.exr,ReadingArea_rsl2-rcl69-esl29-rsm2-rcm25-esm100-rsr2-rcr100-esr100.npz,,,,,0,176,176,403,,left,green,2.08,758.3266639709473,758.8078589439392,,3,8,6,lightness,readingArea,realistic,75,2023-03-29_15h04.35.335,tripletExp_regina_11082022,2022.2.4,119.39617356451735,
1,8,5,2,0.111111111111111,0.298245614035088,2,0.25,1.0,2,1.0,0.298245614035088,ReadingArea_rsl2-rcl11-esl29-rsm2-rcm25-esm100-rsr2-rcr100-esr29,exr/ReadingArea_rsl2-rcl11-esl29-rsm2-rcm25-esm100-rsr2-rcr100-esr29.exr,ReadingArea_rsl2-rcl11-esl29-rsm2-rcm25-esm100-rsr2-rcr100-esr29.npz,,,,,0,177,177,445,,right,red,1.27,760.4962630271912,760.9828848838806,,3,8,6,lightness,readingArea,realistic,75,2023-03-29_15h04.35.335,tripletExp_regina_11082022,2022.2.4,119.39617356451735,
0,1,8,2,0.027777777777778,0.298245614035088,2,0.111111111111111,0.298245614035088,2,0.25,1.0,ReadingArea_rsl2-rcl2-esl29-rsm2-rcm11-esm29-rsr2-rcr25-esr100,exr/ReadingArea_rsl2-rcl2-esl29-rsm2-rcm11-esm29-rsr2-rcr25-esr100.exr,ReadingArea_rsl2-rcl2-esl29-rsm2-rcm11-esm29-rsr2-rcr25-esr100.npz,,,,,0,178,178,107,,right,red,1.55,762.6821060180664,763.1834139823914,,3,8,6,lightness,readingArea,realistic,75,2023-03-29_15h04.35.335,tripletExp_regina_11082022,2022.2.4,119.39617356451735,
4,8,14,2,0.694444444444444,0.298245614035088,2,0.25,1.0,2,0.25,3.10526315789474,ReadingArea_rsl2-rcl69-esl29-rsm2-rcm25-esm100-rsr2-rcr25-esr310,exr/ReadingArea_rsl2-rcl69-esl29-rsm2-rcm25-esm100-rsr2-rcr25-esr310.exr,ReadingArea_rsl2-rcl69-esl29-rsm2-rcm25-esm100-rsr2-rcr25-esr310.npz,,,,,0,179,179,234,,left,green,1.59,764.9046950340271,765.3763880729675,,3,8,6,lightness,readingArea,realistic,75,2023-03-29_15h04.35.335,tripletExp_regina_11082022,2022.2.4,119.39617356451735,
0,9,10,2,0.027777777777778,0.298245614035088,2,0.444444444444444,1.0,2,0.694444444444444,1.0,ReadingArea_rsl2-rcl2-esl29-rsm2-rcm44-esm100-rsr2-rcr69-esr100,exr/ReadingArea_rsl2-rcl2-esl29-rsm2-rcm44-esm100-rsr2-rcr69-esr100.exr,ReadingArea_rsl2-rcl2-esl29-rsm2-rcm44-esm100-rsr2-rcr69-esr100.npz,,,,,0,180,180,434,,right,red,0.99,767.0704100131989,,,3,8,6,lightness,readingArea,realistic,75,2023-03-29_15h04.35.335,tripletExp_regina_11082022,2022.2.4,119.39617356451735,
1,11,12,2,0.111111111111111,0.298245614035088,2,1.0,1.0,2,0.027777777777778,3.10526315789474,ReadingArea_rsl2-rcl11-esl29-rsm2-rcm100-esm100-rsr2-rcr2-esr310,exr/ReadingArea_rsl2-rcl11-esl29-rsm2-rcm100-esm100-rsr2-rcr2-esr310.exr,ReadingArea_rsl2-rcl11-esl29-rsm2-rcm100-esm100-rsr2-rcr2-esr310.npz,,,,,0,181,181,288,,left,green,1.37,769.3021259307861,769.7726819515228,,3,8,6,lightness,readingArea,realistic,75,2023-03-29_15h04.35.335,tripletExp_regina_11082022,2022.2.4,119.39617356451735,
2,3,13,2,0.25,0.298245614035088,2,0.444444444444444,0.298245614035088,2,0.111111111111111,3.10526315789474,ReadingArea_rsl2-rcl25-esl29-rsm2-rcm44-esm29-rsr2-rcr11-esr310,exr/ReadingArea_rsl2-rcl25-esl29-rsm2-rcm44-esm29-rsr2-rcr11-esr310.exr,ReadingArea_rsl2-rcl25-esl29-rsm2-rcm44-esm29-rsr2-rcr11-esr310.npz,,,,,0,182,182,498,,left,green,3.27,773.2307169437408,773.761568069458,,3,8,6,lightness,readingArea,realistic,75,2023-03-29_15h04.35.335,tripletExp_regina_11082022,2022.2.4,119.39617356451735,
10,12,11,2,0.694444444444444,1.0,2,0.027777777777778,3.10526315789474,2,1.0,1.0,ReadingArea_rsl2-rcl69-esl100-rsm2-rcm2-esm310-rsr2-rcr100-esr100,exr/ReadingArea_rsl2-rcl69-esl100-rsm2-rcm2-esm310-rsr2-rcr100-esr100.exr,ReadingArea_rsl2-rcl69-esl100-rsm2-rcm2-esm310-rsr2-rcr100-esr100.npz,,,,,0,183,183,317,,left,green,1.52,775.4580690860748,775.9591209888458,,3,8,6,lightness,readingArea,realistic,75,2023-03-29_15h04.35.335,tripletExp_regina_11082022,2022.2.4,119.39617356451735,
2,1,10,2,0.25,0.298245614035088,2,0.111111111111111,0.298245614035088,2,0.694444444444444,1.0,ReadingArea_rsl2-rcl25-esl29-rsm2-rcm11-esm29-rsr2-rcr69-esr100,exr/ReadingArea_rsl2-rcl25-esl29-rsm2-rcm11-esm29-rsr2-rcr69-esr100.exr,ReadingArea_rsl2-rcl25-esl29-rsm2-rcm11-esm29-rsr2-rcr69-esr100.npz,,,,,0,184,184,585,,left,green,1.39,777.6476740837097,778.1589930057526,,3,8,6,lightness,readingArea,realistic,75,2023-03-29_15h04.35.335,tripletExp_regina_11082022,2022.2.4,119.39617356451735,
14,5,10,2,0.25,3.10526315789474,2,1.0,0.298245614035088,2,0.694444444444444,1.0,ReadingArea_rsl2-rcl25-esl310-rsm2-rcm100-esm29-rsr2-rcr69-esr100,exr/ReadingArea_rsl2-rcl25-esl310-rsm2-rcm100-esm29-rsr2-rcr69-esr100.exr,ReadingArea_rsl2-rcl25-esl310-rsm2-rcm100-esm29-rsr2-rcr69-esr100.npz,,,,,0,185,185,170,,right,red,4.46,783.3875939846039,783.9110860824585,,3,8,6,lightness,readingArea,realistic,75,2023-03-29_15h04.35.335,tripletExp_regina_11082022,2022.2.4,119.39617356451735,
3,4,0,2,0.444444444444444,0.298245614035088,2,0.694444444444444,0.298245614035088,2,0.027777777777778,0.298245614035088,ReadingArea_rsl2-rcl44-esl29-rsm2-rcm69-esm29-rsr2-rcr2-esr29,exr/ReadingArea_rsl2-rcl44-esl29-rsm2-rcm69-esm29-rsr2-rcr2-esr29.exr,ReadingArea_rsl2-rcl44-esl29-rsm2-rcm69-esm29-rsr2-rcr2-esr29.npz,,,,,0,186,186,130,,left,green,0.97,785.6030740737915,786.086874961853,,3,8,6,lightness,readingArea,realistic,75,2023-03-29_15h04.35.335,tripletExp_regina_11082022,2022.2.4,119.39617356451735,
2,14,8,2,0.25,0.298245614035088,2,0.25,3.10526315789474,2,0.25,1.0,ReadingArea_rsl2-rcl25-esl29-rsm2-rcm25-esm310-rsr2-rcr25-esr100,exr/ReadingArea_rsl2-rcl25-esl29-rsm2-rcm25-esm310-rsr2-rcr25-esr100.exr,ReadingArea_rsl2-rcl25-esl29-rsm2-rcm25-esm310-rsr2-rcr25-esr100.npz,,,,,0,187,187,255,,right,red,3.1,789.5677778720856,790.0651369094849,,3,8,6,lightness,readingArea,realistic,75,2023-03-29_15h04.35.335,tripletExp_regina_11082022,2022.2.4,119.39617356451735,
2,4,6,2,0.25,0.298245614035088,2,0.694444444444444,0.298245614035088,2,0.027777777777778,1.0,ReadingArea_rsl2-rcl25-esl29-rsm2-rcm69-esm29-rsr2-rcr2-esr100,exr/ReadingArea_rsl2-rcl25-esl29-rsm2-rcm69-esm29-rsr2-rcr2-esr100.exr,ReadingArea_rsl2-rcl25-esl29-rsm2-rcm69-esm29-rsr2-rcr2-esr100.npz,,,,,0,188,188,563,,left,green,1.44,791.7761218547821,792.2400889396667,,3,8,6,lightness,readingArea,realistic,75,2023-03-29_15h04.35.335,tripletExp_regina_11082022,2022.2.4,119.39617356451735,
8,9,13,2,0.25,1.0,2,0.444444444444444,1.0,2,0.111111111111111,3.10526315789474,ReadingArea_rsl2-rcl25-esl100-rsm2-rcm44-esm100-rsr2-rcr11-esr310,exr/ReadingArea_rsl2-rcl25-esl100-rsm2-rcm44-esm100-rsr2-rcr11-esr310.exr,ReadingArea_rsl2-rcl25-esl100-rsm2-rcm44-esm100-rsr2-rcr11-esr310.npz,,,,,0,189,189,519,,left,green,1.52,793.9338300228119,,,3,8,6,lightness,readingArea,realistic,75,2023-03-29_15h04.35.335,tripletExp_regina_11082022,2022.2.4,119.39617356451735,
3,13,10,2,0.444444444444444,0.298245614035088,2,0.111111111111111,3.10526315789474,2,0.694444444444444,1.0,ReadingArea_rsl2-rcl44-esl29-rsm2-rcm11-esm310-rsr2-rcr69-esr100,exr/ReadingArea_rsl2-rcl44-esl29-rsm2-rcm11-esm310-rsr2-rcr69-esr100.exr,ReadingArea_rsl2-rcl44-esl29-rsm2-rcm11-esm310-rsr2-rcr69-esr100.npz,,,,,0,190,190,416,,left,green,1.02,796.154844045639,796.6567270755768,,3,8,6,lightness,readingArea,realistic,75,2023-03-29_15h04.35.335,tripletExp_regina_11082022,2022.2.4,119.39617356451735,
2,3,4,2,0.25,0.298245614035088,2,0.444444444444444,0.298245614035088,2,0.694444444444444,0.298245614035088,ReadingArea_rsl2-rcl25-esl29-rsm2-rcm44-esm29-rsr2-rcr69-esr29,exr/ReadingArea_rsl2-rcl25-esl29-rsm2-rcm44-esm29-rsr2-rcr69-esr29.exr,ReadingArea_rsl2-rcl25-esl29-rsm2-rcm44-esm29-rsr2-rcr69-esr29.npz,,,,,0,191,191,61,,left,green,2.7,800.1427249908447,,,3,8,6,lightness,readingArea,realistic,75,2023-03-29_15h04.35.335,tripletExp_regina_11082022,2022.2.4,119.39617356451735,
1,9,11,2,0.111111111111111,0.298245614035088,2,0.444444444444444,1.0,2,1.0,1.0,ReadingArea_rsl2-rcl11-esl29-rsm2-rcm44-esm100-rsr2-rcr100-esr100,exr/ReadingArea_rsl2-rcl11-esl29-rsm2-rcm44-esm100-rsr2-rcr100-esr100.exr,ReadingArea_rsl2-rcl11-esl29-rsm2-rcm44-esm100-rsr2-rcr100-esr100.npz,,,,,0,192,192,215,,left,green,4.43,805.8729660511017,806.3887059688568,,3,8,6,lightness,readingArea,realistic,75,2023-03-29_15h04.35.335,tripletExp_regina_11082022,2022.2.4,119.39617356451735,
5,9,10,2,1.0,0.298245614035088,2,0.444444444444444,1.0,2,0.694444444444444,1.0,ReadingArea_rsl2-rcl100-esl29-rsm2-rcm44-esm100-rsr2-rcr69-esr100,exr/ReadingArea_rsl2-rcl100-esl29-rsm2-rcm44-esm100-rsr2-rcr69-esr100.exr,ReadingArea_rsl2-rcl100-esl29-rsm2-rcm44-esm100-rsr2-rcr69-esr100.npz,,,,,0,193,193,322,,left,green,0.96,808.0827689170837,808.5548849105835,,3,8,6,lightness,readingArea,realistic,75,2023-03-29_15h04.35.335,tripletExp_regina_11082022,2022.2.4,119.39617356451735,
7,6,11,2,0.111111111111111,1.0,2,0.027777777777778,1.0,2,1.0,1.0,ReadingArea_rsl2-rcl11-esl100-rsm2-rcm2-esm100-rsr2-rcr100-esr100,exr/ReadingArea_rsl2-rcl11-esl100-rsm2-rcm2-esm100-rsr2-rcr100-esr100.exr,ReadingArea_rsl2-rcl11-esl100-rsm2-rcm2-esm100-rsr2-rcr100-esr100.npz,,,,,0,194,194,84,,left,green,1.46,810.255264043808,810.767138004303,,3,8,6,lightness,readingArea,realistic,75,2023-03-29_15h04.35.335,tripletExp_regina_11082022,2022.2.4,119.39617356451735,
0,14,10,2,0.027777777777778,0.298245614035088,2,0.25,3.10526315789474,2,0.694444444444444,1.0,ReadingArea_rsl2-rcl2-esl29-rsm2-rcm25-esm310-rsr2-rcr69-esr100,exr/ReadingArea_rsl2-rcl2-esl29-rsm2-rcm25-esm310-rsr2-rcr69-esr100.exr,ReadingArea_rsl2-rcl2-esl29-rsm2-rcm25-esm310-rsr2-rcr69-esr100.npz,,,,,0,195,195,128,,right,red,2.75,814.2243769168854,814.7213740348816,,3,8,6,lightness,readingArea,realistic,75,2023-03-29_15h04.35.335,tripletExp_regina_11082022,2022.2.4,119.39617356451735,
4,14,1,2,0.694444444444444,0.298245614035088,2,0.25,3.10526315789474,2,0.111111111111111,0.298245614035088,ReadingArea_rsl2-rcl69-esl29-rsm2-rcm25-esm310-rsr2-rcr11-esr29,exr/ReadingArea_rsl2-rcl69-esl29-rsm2-rcm25-esm310-rsr2-rcr11-esr29.exr,ReadingArea_rsl2-rcl69-esl29-rsm2-rcm25-esm310-rsr2-rcr11-esr29.npz,,,,,0,196,196,477,,left,green,1.02,816.4088649749756,816.8867468833923,,3,8,6,lightness,readingArea,realistic,75,2023-03-29_15h04.35.335,tripletExp_regina_11082022,2022.2.4,119.39617356451735,
12,11,13,2,0.027777777777778,3.10526315789474,2,1.0,1.0,2,0.111111111111111,3.10526315789474,ReadingArea_rsl2-rcl2-esl310-rsm2-rcm100-esm100-rsr2-rcr11-esr310,exr/ReadingArea_rsl2-rcl2-esl310-rsm2-rcm100-esm100-rsr2-rcr11-esr310.exr,ReadingArea_rsl2-rcl2-esl310-rsm2-rcm100-esm100-rsr2-rcr11-esr310.npz,,,,,0,197,197,151,,right,red,1.17,818.5820770263672,819.0797879695892,,3,8,6,lightness,readingArea,realistic,75,2023-03-29_15h04.35.335,tripletExp_regina_11082022,2022.2.4,119.39617356451735,
14,11,0,2,0.25,3.10526315789474,2,1.0,1.0,2,0.027777777777778,0.298245614035088,ReadingArea_rsl2-rcl25-esl310-rsm2-rcm100-esm100-rsr2-rcr2-esr29,exr/ReadingArea_rsl2-rcl25-esl310-rsm2-rcm100-esm100-rsr2-rcr2-esr29.exr,ReadingArea_rsl2-rcl25-esl310-rsm2-rcm100-esm100-rsr2-rcr2-esr29.npz,,,,,0,198,198,227,,left,green,0.75,820.7673919200897,821.2303199768066,,3,8,6,lightness,readingArea,realistic,75,2023-03-29_15h04.35.335,tripletExp_regina_11082022,2022.2.4,119.39617356451735,
13,12,11,2,0.111111111111111,3.10526315789474,2,0.027777777777778,3.10526315789474,2,1.0,1.0,ReadingArea_rsl2-rcl11-esl310-rsm2-rcm2-esm310-rsr2-rcr100-esr100,exr/ReadingArea_rsl2-rcl11-esl310-rsm2-rcm2-esm310-rsr2-rcr100-esr100.exr,ReadingArea_rsl2-rcl11-esl310-rsm2-rcm2-esm310-rsr2-rcr100-esr100.npz,,,,,0,199,199,441,,left,green,1.04,822.9193370342255,823.5062439441681,,3,8,6,lightness,readingArea,realistic,75,2023-03-29_15h04.35.335,tripletExp_regina_11082022,2022.2.4,119.39617356451735,
3,8,1,2,0.444444444444444,0.298245614035088,2,0.25,1.0,2,0.111111111111111,0.298245614035088,ReadingArea_rsl2-rcl44-esl29-rsm2-rcm25-esm100-rsr2-rcr11-esr29,exr/ReadingArea_rsl2-rcl44-esl29-rsm2-rcm25-esm100-rsr2-rcr11-esr29.exr,ReadingArea_rsl2-rcl44-esl29-rsm2-rcm25-esm100-rsr2-rcr11-esr29.npz,,,,,0,200,200,230,,left,green,1.69,825.1942939758301,825.669970035553,,3,8,6,lightness,readingArea,realistic,75,2023-03-29_15h04.35.335,tripletExp_regina_11082022,2022.2.4,119.39617356451735,
0,8,9,2,0.027777777777778,0.298245614035088,2,0.25,1.0,2,0.444444444444444,1.0,ReadingArea_rsl2-rcl2-esl29-rsm2-rcm25-esm100-rsr2-rcr44-esr100,exr/ReadingArea_rsl2-rcl2-esl29-rsm2-rcm25-esm100-rsr2-rcr44-esr100.exr,ReadingArea_rsl2-rcl2-esl29-rsm2-rcm25-esm100-rsr2-rcr44-esr100.npz,,,,,0,201,201,541,,right,red,1.14,827.3918159008026,827.8713519573212,,3,8,6,lightness,readingArea,realistic,75,2023-03-29_15h04.35.335,tripletExp_regina_11082022,2022.2.4,119.39617356451735,
14,7,1,2,0.25,3.10526315789474,2,0.111111111111111,1.0,2,0.111111111111111,0.298245614035088,ReadingArea_rsl2-rcl25-esl310-rsm2-rcm11-esm100-rsr2-rcr11-esr29,exr/ReadingArea_rsl2-rcl25-esl310-rsm2-rcm11-esm100-rsr2-rcr11-esr29.exr,ReadingArea_rsl2-rcl25-esl310-rsm2-rcm11-esm100-rsr2-rcr11-esr29.npz,,,,,0,202,202,298,,right,red,1.04,829.5703599452972,830.0540509223938,,3,8,6,lightness,readingArea,realistic,75,2023-03-29_15h04.35.335,tripletExp_regina_11082022,2022.2.4,119.39617356451735,
14,2,6,2,0.25,3.10526315789474,2,0.25,0.298245614035088,2,0.027777777777778,1.0,ReadingArea_rsl2-rcl25-esl310-rsm2-rcm25-esm29-rsr2-rcr2-esr100,exr/ReadingArea_rsl2-rcl25-esl310-rsm2-rcm25-esm29-rsr2-rcr2-esr100.exr,ReadingArea_rsl2-rcl25-esl310-rsm2-rcm25-esm29-rsr2-rcr2-esr100.npz,,,,,0,203,203,350,,right,red,1.53,831.7510049343109,832.2581808567047,,3,8,6,lightness,readingArea,realistic,75,2023-03-29_15h04.35.335,tripletExp_regina_11082022,2022.2.4,119.39617356451735,
3,11,14,2,0.444444444444444,0.298245614035088,2,1.0,1.0,2,0.25,3.10526315789474,ReadingArea_rsl2-rcl44-esl29-rsm2-rcm100-esm100-rsr2-rcr25-esr310,exr/ReadingArea_rsl2-rcl44-esl29-rsm2-rcm100-esm100-rsr2-rcr25-esr310.exr,ReadingArea_rsl2-rcl44-esl29-rsm2-rcm100-esm100-rsr2-rcr25-esr310.npz,,,,,0,204,204,570,,right,red,2.71,835.7144539356232,,,3,8,6,lightness,readingArea,realistic,75,2023-03-29_15h04.35.335,tripletExp_regina_11082022,2022.2.4,119.39617356451735,
