index_left,index_middle,index_right,reflectance_surround_left,reflectance_center_left,emission_spot_left,reflectance_surround_middle,reflectance_center_middle,emission_spot_middle,reflectance_surround_right,reflectance_center_right,emission_spot_right,ImageName,ImageExr,ImageNpy,trials_2.thisRepN,trials_2.thisTrialN,trials_2.thisN,trials_2.thisIndex,trials.thisRepN,trials.thisTrialN,trials.thisN,trials.thisIndex,sound_1.started,BB_Trial.resp,BB_Trial.color,BB_Trial.rt,text.started,text.stopped,sound_2.started,block,participant,session,L/B,scene,condition,nTrialsPerBlock,date,expName,psychopyVersion,frameRate,Unnamed: 41
1,6,11,0,0.111111111111111,0.298245614035088,0,0.027777777777778,1.0,0,1.0,1.0,ReadingArea_rsl0-rcl11-esl29-rsm0-rcm2-esm100-rsr0-rcr100-esr100,exr/ReadingArea_rsl0-rcl11-esl29-rsm0-rcm2-esm100-rsr0-rcr100-esr100.exr,ReadingArea_rsl0-rcl11-esl29-rsm0-rcm2-esm100-rsr0-rcr100-esr100.npz,,,,,0,0,0,39,652.9824741601944,left,green,0.86,657.6412110328674,658.1107249259949,618.4890151739121,1,8,7,lightness,readingArea,realistic,75,2023-03-29_13h46.06.666,tripletExp_regina_11082022,2022.2.4,119.41316979982518,
9,7,10,0,0.444444444444444,1.0,0,0.111111111111111,1.0,0,0.694444444444444,1.0,ReadingArea_rsl0-rcl44-esl100-rsm0-rcm11-esm100-rsr0-rcr69-esr100,exr/ReadingArea_rsl0-rcl44-esl100-rsm0-rcm11-esm100-rsr0-rcr69-esr100.exr,ReadingArea_rsl0-rcl44-esl100-rsm0-rcm11-esm100-rsr0-rcr69-esr100.npz,,,,,0,1,1,508,,left,green,2.8,661.6037831306458,662.0633101463318,,1,8,7,lightness,readingArea,realistic,75,2023-03-29_13h46.06.666,tripletExp_regina_11082022,2022.2.4,119.41316979982518,
14,10,9,0,0.25,3.10526315789474,0,0.694444444444444,1.0,0,0.444444444444444,1.0,ReadingArea_rsl0-rcl25-esl310-rsm0-rcm69-esm100-rsr0-rcr44-esr100,exr/ReadingArea_rsl0-rcl25-esl310-rsm0-rcm69-esm100-rsr0-rcr44-esr100.exr,ReadingArea_rsl0-rcl25-esl310-rsm0-rcm69-esm100-rsr0-rcr44-esr100.npz,,,,,0,2,2,402,,left,green,1.17,663.7822690010071,,,1,8,7,lightness,readingArea,realistic,75,2023-03-29_13h46.06.666,tripletExp_regina_11082022,2022.2.4,119.41316979982518,
7,12,0,0,0.111111111111111,1.0,0,0.027777777777778,3.10526315789474,0,0.027777777777778,0.298245614035088,ReadingArea_rsl0-rcl11-esl100-rsm0-rcm2-esm310-rsr0-rcr2-esr29,exr/ReadingArea_rsl0-rcl11-esl100-rsm0-rcm2-esm310-rsr0-rcr2-esr29.exr,ReadingArea_rsl0-rcl11-esl100-rsm0-rcm2-esm310-rsr0-rcr2-esr29.npz,,,,,0,3,3,425,,left,green,1.01,665.929230928421,666.402065038681,,1,8,7,lightness,readingArea,realistic,75,2023-03-29_13h46.06.666,tripletExp_regina_11082022,2022.2.4,119.41316979982518,
6,0,1,0,0.027777777777778,1.0,0,0.027777777777778,0.298245614035088,0,0.111111111111111,0.298245614035088,ReadingArea_rsl0-rcl2-esl100-rsm0-rcm2-esm29-rsr0-rcr11-esr29,exr/ReadingArea_rsl0-rcl2-esl100-rsm0-rcm2-esm29-rsr0-rcr11-esr29.exr,ReadingArea_rsl0-rcl2-esl100-rsm0-rcm2-esm29-rsr0-rcr11-esr29.npz,,,,,0,4,4,302,,left,green,3.25,669.8575870990753,670.3145990371704,,1,8,7,lightness,readingArea,realistic,75,2023-03-29_13h46.06.666,tripletExp_regina_11082022,2022.2.4,119.41316979982518,
13,6,1,0,0.111111111111111,3.10526315789474,0,0.027777777777778,1.0,0,0.111111111111111,0.298245614035088,ReadingArea_rsl0-rcl11-esl310-rsm0-rcm2-esm100-rsr0-rcr11-esr29,exr/ReadingArea_rsl0-rcl11-esl310-rsm0-rcm2-esm100-rsr0-rcr11-esr29.exr,ReadingArea_rsl0-rcl11-esl310-rsm0-rcm2-esm100-rsr0-rcr11-esr29.npz,,,,,0,5,5,486,,right,red,0.81,672.0109341144562,672.4432361125946,,1,8,7,lightness,readingArea,realistic,75,2023-03-29_13h46.06.666,tripletExp_regina_11082022,2022.2.4,119.41316979982518,
5,14,11,0,1.0,0.298245614035088,0,0.25,3.10526315789474,0,1.0,1.0,ReadingArea_rsl0-rcl100-esl29-rsm0-rcm25-esm310-rsr0-rcr100-esr100,exr/ReadingArea_rsl0-rcl100-esl29-rsm0-rcm25-esm310-rsr0-rcr100-esr100.exr,ReadingArea_rsl0-rcl100-esl29-rsm0-rcm25-esm310-rsr0-rcr100-esr100.npz,,,,,0,6,6,98,,right,red,1.32,674.1346459388733,674.6776471138,,1,8,7,lightness,readingArea,realistic,75,2023-03-29_13h46.06.666,tripletExp_regina_11082022,2022.2.4,119.41316979982518,
11,6,8,0,1.0,1.0,0,0.027777777777778,1.0,0,0.25,1.0,ReadingArea_rsl0-rcl100-esl100-rsm0-rcm2-esm100-rsr0-rcr25-esr100,exr/ReadingArea_rsl0-rcl100-esl100-rsm0-rcm2-esm100-rsr0-rcr25-esr100.exr,ReadingArea_rsl0-rcl100-esl100-rsm0-rcm2-esm100-rsr0-rcr25-esr100.npz,,,,,0,7,7,599,,right,red,2.29,678.1410789489746,678.6096739768982,,1,8,7,lightness,readingArea,realistic,75,2023-03-29_13h46.06.666,tripletExp_regina_11082022,2022.2.4,119.41316979982518,
5,14,3,0,1.0,0.298245614035088,0,0.25,3.10526315789474,0,0.444444444444444,0.298245614035088,ReadingArea_rsl0-rcl100-esl29-rsm0-rcm25-esm310-rsr0-rcr44-esr29,exr/ReadingArea_rsl0-rcl100-esl29-rsm0-rcm25-esm310-rsr0-rcr44-esr29.exr,ReadingArea_rsl0-rcl100-esl29-rsm0-rcm25-esm310-rsr0-rcr44-esr29.npz,,,,,0,8,8,93,,left,green,2.37,682.0940239429474,682.5469701290131,,1,8,7,lightness,readingArea,realistic,75,2023-03-29_13h46.06.666,tripletExp_regina_11082022,2022.2.4,119.41316979982518,
3,12,4,0,0.444444444444444,0.298245614035088,0,0.027777777777778,3.10526315789474,0,0.694444444444444,0.298245614035088,ReadingArea_rsl0-rcl44-esl29-rsm0-rcm2-esm310-rsr0-rcr69-esr29,exr/ReadingArea_rsl0-rcl44-esl29-rsm0-rcm2-esm310-rsr0-rcr69-esr29.exr,ReadingArea_rsl0-rcl44-esl29-rsm0-rcm2-esm310-rsr0-rcr69-esr29.npz,,,,,0,9,9,426,,left,green,0.98,684.2509999275208,684.847058057785,,1,8,7,lightness,readingArea,realistic,75,2023-03-29_13h46.06.666,tripletExp_regina_11082022,2022.2.4,119.41316979982518,
0,8,6,0,0.027777777777778,0.298245614035088,0,0.25,1.0,0,0.027777777777778,1.0,ReadingArea_rsl0-rcl2-esl29-rsm0-rcm25-esm100-rsr0-rcr2-esr100,exr/ReadingArea_rsl0-rcl2-esl29-rsm0-rcm25-esm100-rsr0-rcr2-esr100.exr,ReadingArea_rsl0-rcl2-esl29-rsm0-rcm25-esm100-rsr0-rcr2-esr100.npz,,,,,0,10,10,92,,right,red,1.45,686.5435070991516,687.0184950828552,,1,8,7,lightness,readingArea,realistic,75,2023-03-29_13h46.06.666,tripletExp_regina_11082022,2022.2.4,119.41316979982518,
8,1,9,0,0.25,1.0,0,0.111111111111111,0.298245614035088,0,0.444444444444444,1.0,ReadingArea_rsl0-rcl25-esl100-rsm0-rcm11-esm29-rsr0-rcr44-esr100,exr/ReadingArea_rsl0-rcl25-esl100-rsm0-rcm11-esm29-rsr0-rcr44-esr100.exr,ReadingArea_rsl0-rcl25-esl100-rsm0-rcm11-esm29-rsr0-rcr44-esr100.npz,,,,,0,11,11,432,,left,green,2.51,690.5090529918671,690.9985930919647,,1,8,7,lightness,readingArea,realistic,75,2023-03-29_13h46.06.666,tripletExp_regina_11082022,2022.2.4,119.41316979982518,
2,5,14,0,0.25,0.298245614035088,0,1.0,0.298245614035088,0,0.25,3.10526315789474,ReadingArea_rsl0-rcl25-esl29-rsm0-rcm100-esm29-rsr0-rcr25-esr310,exr/ReadingArea_rsl0-rcl25-esl29-rsm0-rcm100-esm29-rsr0-rcr25-esr310.exr,ReadingArea_rsl0-rcl25-esl29-rsm0-rcm100-esm29-rsr0-rcr25-esr310.npz,,,,,0,12,12,390,,right,red,1.02,692.6940360069275,693.1514189243317,,1,8,7,lightness,readingArea,realistic,75,2023-03-29_13h46.06.666,tripletExp_regina_11082022,2022.2.4,119.41316979982518,
10,13,1,0,0.694444444444444,1.0,0,0.111111111111111,3.10526315789474,0,0.111111111111111,0.298245614035088,ReadingArea_rsl0-rcl69-esl100-rsm0-rcm11-esm310-rsr0-rcr11-esr29,exr/ReadingArea_rsl0-rcl69-esl100-rsm0-rcm11-esm310-rsr0-rcr11-esr29.exr,ReadingArea_rsl0-rcl69-esl100-rsm0-rcm11-esm310-rsr0-rcr11-esr29.npz,,,,,0,13,13,149,,right,red,3.21,696.6458621025085,,,1,8,7,lightness,readingArea,realistic,75,2023-03-29_13h46.06.666,tripletExp_regina_11082022,2022.2.4,119.41316979982518,
1,13,7,0,0.111111111111111,0.298245614035088,0,0.111111111111111,3.10526315789474,0,0.111111111111111,1.0,ReadingArea_rsl0-rcl11-esl29-rsm0-rcm11-esm310-rsr0-rcr11-esr100,exr/ReadingArea_rsl0-rcl11-esl29-rsm0-rcm11-esm310-rsr0-rcr11-esr100.exr,ReadingArea_rsl0-rcl11-esl29-rsm0-rcm11-esm310-rsr0-rcr11-esr100.npz,,,,,0,14,14,158,,right,red,3.27,700.6101861000061,701.0754370689392,,1,8,7,lightness,readingArea,realistic,75,2023-03-29_13h46.06.666,tripletExp_regina_11082022,2022.2.4,119.41316979982518,
13,3,7,0,0.111111111111111,3.10526315789474,0,0.444444444444444,0.298245614035088,0,0.111111111111111,1.0,ReadingArea_rsl0-rcl11-esl310-rsm0-rcm44-esm29-rsr0-rcr11-esr100,exr/ReadingArea_rsl0-rcl11-esl310-rsm0-rcm44-esm29-rsr0-rcr11-esr100.exr,ReadingArea_rsl0-rcl11-esl310-rsm0-rcm44-esm29-rsr0-rcr11-esr100.npz,,,,,0,15,15,497,,right,red,2.48,704.5788271427155,705.0559649467468,,1,8,7,lightness,readingArea,realistic,75,2023-03-29_13h46.06.666,tripletExp_regina_11082022,2022.2.4,119.41316979982518,
1,4,7,0,0.111111111111111,0.298245614035088,0,0.694444444444444,0.298245614035088,0,0.111111111111111,1.0,ReadingArea_rsl0-rcl11-esl29-rsm0-rcm69-esm29-rsr0-rcr11-esr100,exr/ReadingArea_rsl0-rcl11-esl29-rsm0-rcm69-esm29-rsr0-rcr11-esr100.exr,ReadingArea_rsl0-rcl11-esl29-rsm0-rcm69-esm29-rsr0-rcr11-esr100.npz,,,,,0,16,16,522,,right,red,0.86,706.7728390693665,707.3706591129303,,1,8,7,lightness,readingArea,realistic,75,2023-03-29_13h46.06.666,tripletExp_regina_11082022,2022.2.4,119.41316979982518,
6,1,10,0,0.027777777777778,1.0,0,0.111111111111111,0.298245614035088,0,0.694444444444444,1.0,ReadingArea_rsl0-rcl2-esl100-rsm0-rcm11-esm29-rsr0-rcr69-esr100,exr/ReadingArea_rsl0-rcl2-esl100-rsm0-rcm11-esm29-rsr0-rcr69-esr100.exr,ReadingArea_rsl0-rcl2-esl100-rsm0-rcm11-esm29-rsr0-rcr69-esr100.npz,,,,,0,17,17,561,,left,green,1.38,709.0624809265137,709.515123128891,,1,8,7,lightness,readingArea,realistic,75,2023-03-29_13h46.06.666,tripletExp_regina_11082022,2022.2.4,119.41316979982518,
12,0,2,0,0.027777777777778,3.10526315789474,0,0.027777777777778,0.298245614035088,0,0.25,0.298245614035088,ReadingArea_rsl0-rcl2-esl310-rsm0-rcm2-esm29-rsr0-rcr25-esr29,exr/ReadingArea_rsl0-rcl2-esl310-rsm0-rcm2-esm29-rsr0-rcr25-esr29.exr,ReadingArea_rsl0-rcl2-esl310-rsm0-rcm2-esm29-rsr0-rcr25-esr29.npz,,,,,0,18,18,77,,right,red,4.1,714.762011051178,715.3413569927216,,1,8,7,lightness,readingArea,realistic,75,2023-03-29_13h46.06.666,tripletExp_regina_11082022,2022.2.4,119.41316979982518,
2,3,6,0,0.25,0.298245614035088,0,0.444444444444444,0.298245614035088,0,0.027777777777778,1.0,ReadingArea_rsl0-rcl25-esl29-rsm0-rcm44-esm29-rsr0-rcr2-esr100,exr/ReadingArea_rsl0-rcl25-esl29-rsm0-rcm44-esm29-rsr0-rcr2-esr100.exr,ReadingArea_rsl0-rcl25-esl29-rsm0-rcm44-esm29-rsr0-rcr2-esr100.npz,,,,,0,19,19,357,,left,green,1.55,717.0373589992523,717.5370399951935,,1,8,7,lightness,readingArea,realistic,75,2023-03-29_13h46.06.666,tripletExp_regina_11082022,2022.2.4,119.41316979982518,
12,8,9,0,0.027777777777778,3.10526315789474,0,0.25,1.0,0,0.444444444444444,1.0,ReadingArea_rsl0-rcl2-esl310-rsm0-rcm25-esm100-rsr0-rcr44-esr100,exr/ReadingArea_rsl0-rcl2-esl310-rsm0-rcm25-esm100-rsr0-rcr44-esr100.exr,ReadingArea_rsl0-rcl2-esl310-rsm0-rcm25-esm100-rsr0-rcr44-esr100.npz,,,,,0,20,20,517,,left,green,4.55,722.7612919807434,723.2329249382019,,1,8,7,lightness,readingArea,realistic,75,2023-03-29_13h46.06.666,tripletExp_regina_11082022,2022.2.4,119.41316979982518,
5,4,1,0,1.0,0.298245614035088,0,0.694444444444444,0.298245614035088,0,0.111111111111111,0.298245614035088,ReadingArea_rsl0-rcl100-esl29-rsm0-rcm69-esm29-rsr0-rcr11-esr29,exr/ReadingArea_rsl0-rcl100-esl29-rsm0-rcm69-esm29-rsr0-rcr11-esr29.exr,ReadingArea_rsl0-rcl100-esl29-rsm0-rcm69-esm29-rsr0-rcr11-esr29.npz,,,,,0,21,21,560,,left,green,1.13,724.9211540222168,725.4427089691162,,1,8,7,lightness,readingArea,realistic,75,2023-03-29_13h46.06.666,tripletExp_regina_11082022,2022.2.4,119.41316979982518,
8,9,13,0,0.25,1.0,0,0.444444444444444,1.0,0,0.111111111111111,3.10526315789474,ReadingArea_rsl0-rcl25-esl100-rsm0-rcm44-esm100-rsr0-rcr11-esr310,exr/ReadingArea_rsl0-rcl25-esl100-rsm0-rcm44-esm100-rsr0-rcr11-esr310.exr,ReadingArea_rsl0-rcl25-esl100-rsm0-rcm44-esm100-rsr0-rcr11-esr310.npz,,,,,0,22,22,519,,left,green,2.73,728.9193561077118,729.4017679691315,,1,8,7,lightness,readingArea,realistic,75,2023-03-29_13h46.06.666,tripletExp_regina_11082022,2022.2.4,119.41316979982518,
2,1,10,0,0.25,0.298245614035088,0,0.111111111111111,0.298245614035088,0,0.694444444444444,1.0,ReadingArea_rsl0-rcl25-esl29-rsm0-rcm11-esm29-rsr0-rcr69-esr100,exr/ReadingArea_rsl0-rcl25-esl29-rsm0-rcm11-esm29-rsr0-rcr69-esr100.exr,ReadingArea_rsl0-rcl25-esl29-rsm0-rcm11-esm29-rsr0-rcr69-esr100.npz,,,,,0,23,23,585,,left,green,2.68,732.8624260425568,733.3454909324646,,1,8,7,lightness,readingArea,realistic,75,2023-03-29_13h46.06.666,tripletExp_regina_11082022,2022.2.4,119.41316979982518,
14,2,7,0,0.25,3.10526315789474,0,0.25,0.298245614035088,0,0.111111111111111,1.0,ReadingArea_rsl0-rcl25-esl310-rsm0-rcm25-esm29-rsr0-rcr11-esr100,exr/ReadingArea_rsl0-rcl25-esl310-rsm0-rcm25-esm29-rsr0-rcr11-esr100.exr,ReadingArea_rsl0-rcl25-esl310-rsm0-rcm25-esm29-rsr0-rcr11-esr100.npz,,,,,0,24,24,569,,right,red,0.95,735.0373830795288,735.5034589767456,,1,8,7,lightness,readingArea,realistic,75,2023-03-29_13h46.06.666,tripletExp_regina_11082022,2022.2.4,119.41316979982518,
4,3,1,0,0.694444444444444,0.298245614035088,0,0.444444444444444,0.298245614035088,0,0.111111111111111,0.298245614035088,ReadingArea_rsl0-rcl69-esl29-rsm0-rcm44-esm29-rsr0-rcr11-esr29,exr/ReadingArea_rsl0-rcl69-esl29-rsm0-rcm44-esm29-rsr0-rcr11-esr29.exr,ReadingArea_rsl0-rcl69-esl29-rsm0-rcm44-esm29-rsr0-rcr11-esr29.npz,,,,,0,25,25,60,,left,green,1.23,737.1977250576019,737.6636769771576,,1,8,7,lightness,readingArea,realistic,75,2023-03-29_13h46.06.666,tripletExp_regina_11082022,2022.2.4,119.41316979982518,
2,14,7,0,0.25,0.298245614035088,0,0.25,3.10526315789474,0,0.111111111111111,1.0,ReadingArea_rsl0-rcl25-esl29-rsm0-rcm25-esm310-rsr0-rcr11-esr100,exr/ReadingArea_rsl0-rcl25-esl29-rsm0-rcm25-esm310-rsr0-rcr11-esr100.exr,ReadingArea_rsl0-rcl25-esl29-rsm0-rcm25-esm310-rsr0-rcr11-esr100.npz,,,,,0,26,26,310,,right,red,3.31,741.1184380054474,741.596960067749,,1,8,7,lightness,readingArea,realistic,75,2023-03-29_13h46.06.666,tripletExp_regina_11082022,2022.2.4,119.41316979982518,
11,0,10,0,1.0,1.0,0,0.027777777777778,0.298245614035088,0,0.694444444444444,1.0,ReadingArea_rsl0-rcl100-esl100-rsm0-rcm2-esm29-rsr0-rcr69-esr100,exr/ReadingArea_rsl0-rcl100-esl100-rsm0-rcm2-esm29-rsr0-rcr69-esr100.exr,ReadingArea_rsl0-rcl100-esl100-rsm0-rcm2-esm29-rsr0-rcr69-esr100.npz,,,,,0,27,27,259,,right,red,2.81,745.0665380954742,745.5195550918579,,1,8,7,lightness,readingArea,realistic,75,2023-03-29_13h46.06.666,tripletExp_regina_11082022,2022.2.4,119.41316979982518,
1,10,7,0,0.111111111111111,0.298245614035088,0,0.694444444444444,1.0,0,0.111111111111111,1.0,ReadingArea_rsl0-rcl11-esl29-rsm0-rcm69-esm100-rsr0-rcr11-esr100,exr/ReadingArea_rsl0-rcl11-esl29-rsm0-rcm69-esm100-rsr0-rcr11-esr100.exr,ReadingArea_rsl0-rcl11-esl29-rsm0-rcm69-esm100-rsr0-rcr11-esr100.npz,,,,,0,28,28,94,,right,red,1.91,748.9888160228729,749.456237077713,,1,8,7,lightness,readingArea,realistic,75,2023-03-29_13h46.06.666,tripletExp_regina_11082022,2022.2.4,119.41316979982518,
2,1,14,0,0.25,0.298245614035088,0,0.111111111111111,0.298245614035088,0,0.25,3.10526315789474,ReadingArea_rsl0-rcl25-esl29-rsm0-rcm11-esm29-rsr0-rcr25-esr310,exr/ReadingArea_rsl0-rcl25-esl29-rsm0-rcm11-esm29-rsr0-rcr25-esr310.exr,ReadingArea_rsl0-rcl25-esl29-rsm0-rcm11-esm29-rsr0-rcr25-esr310.npz,,,,,0,29,29,59,,left,green,0.85,751.1579520702362,751.6434810161591,,1,8,7,lightness,readingArea,realistic,75,2023-03-29_13h46.06.666,tripletExp_regina_11082022,2022.2.4,119.41316979982518,
13,0,10,0,0.111111111111111,3.10526315789474,0,0.027777777777778,0.298245614035088,0,0.694444444444444,1.0,ReadingArea_rsl0-rcl11-esl310-rsm0-rcm2-esm29-rsr0-rcr69-esr100,exr/ReadingArea_rsl0-rcl11-esl310-rsm0-rcm2-esm29-rsr0-rcr69-esr100.exr,ReadingArea_rsl0-rcl11-esl310-rsm0-rcm2-esm29-rsr0-rcr69-esr100.npz,,,,,0,30,30,505,,left,green,1.61,753.3396871089935,753.8267531394958,,1,8,7,lightness,readingArea,realistic,75,2023-03-29_13h46.06.666,tripletExp_regina_11082022,2022.2.4,119.41316979982518,
3,11,2,0,0.444444444444444,0.298245614035088,0,1.0,1.0,0,0.25,0.298245614035088,ReadingArea_rsl0-rcl44-esl29-rsm0-rcm100-esm100-rsr0-rcr25-esr29,exr/ReadingArea_rsl0-rcl44-esl29-rsm0-rcm100-esm100-rsr0-rcr25-esr29.exr,ReadingArea_rsl0-rcl44-esl29-rsm0-rcm100-esm100-rsr0-rcr25-esr29.npz,,,,,0,31,31,220,,left,green,3.29,757.293219089508,757.7466990947723,,1,8,7,lightness,readingArea,realistic,75,2023-03-29_13h46.06.666,tripletExp_regina_11082022,2022.2.4,119.41316979982518,
3,1,0,0,0.444444444444444,0.298245614035088,0,0.111111111111111,0.298245614035088,0,0.027777777777778,0.298245614035088,ReadingArea_rsl0-rcl44-esl29-rsm0-rcm11-esm29-rsr0-rcr2-esr29,exr/ReadingArea_rsl0-rcl44-esl29-rsm0-rcm11-esm29-rsr0-rcr2-esr29.exr,ReadingArea_rsl0-rcl44-esl29-rsm0-rcm11-esm29-rsr0-rcr2-esr29.npz,,,,,0,32,32,343,,right,red,2.73,761.2214241027832,761.7679169178009,,1,8,7,lightness,readingArea,realistic,75,2023-03-29_13h46.06.666,tripletExp_regina_11082022,2022.2.4,119.41316979982518,
3,8,1,0,0.444444444444444,0.298245614035088,0,0.25,1.0,0,0.111111111111111,0.298245614035088,ReadingArea_rsl0-rcl44-esl29-rsm0-rcm25-esm100-rsr0-rcr11-esr29,exr/ReadingArea_rsl0-rcl44-esl29-rsm0-rcm25-esm100-rsr0-rcr11-esr29.exr,ReadingArea_rsl0-rcl44-esl29-rsm0-rcm25-esm100-rsr0-rcr11-esr29.npz,,,,,0,33,33,230,,left,green,2.73,765.2223610877991,765.6892900466919,,1,8,7,lightness,readingArea,realistic,75,2023-03-29_13h46.06.666,tripletExp_regina_11082022,2022.2.4,119.41316979982518,
1,13,8,0,0.111111111111111,0.298245614035088,0,0.111111111111111,3.10526315789474,0,0.25,1.0,ReadingArea_rsl0-rcl11-esl29-rsm0-rcm11-esm310-rsr0-rcr25-esr100,exr/ReadingArea_rsl0-rcl11-esl29-rsm0-rcm11-esm310-rsr0-rcr25-esr100.exr,ReadingArea_rsl0-rcl11-esl29-rsm0-rcm11-esm310-rsr0-rcr25-esr100.npz,,,,,0,34,34,64,,right,red,1.08,767.4016969203949,767.8788549900055,,1,8,7,lightness,readingArea,realistic,75,2023-03-29_13h46.06.666,tripletExp_regina_11082022,2022.2.4,119.41316979982518,
0,4,12,0,0.027777777777778,0.298245614035088,0,0.694444444444444,0.298245614035088,0,0.027777777777778,3.10526315789474,ReadingArea_rsl0-rcl2-esl29-rsm0-rcm69-esm29-rsr0-rcr2-esr310,exr/ReadingArea_rsl0-rcl2-esl29-rsm0-rcm69-esm29-rsr0-rcr2-esr310.exr,ReadingArea_rsl0-rcl2-esl29-rsm0-rcm69-esm29-rsr0-rcr2-esr310.npz,,,,,0,35,35,150,,right,red,2.43,771.3553221225739,771.8134860992432,,1,8,7,lightness,readingArea,realistic,75,2023-03-29_13h46.06.666,tripletExp_regina_11082022,2022.2.4,119.41316979982518,
2,4,14,0,0.25,0.298245614035088,0,0.694444444444444,0.298245614035088,0,0.25,3.10526315789474,ReadingArea_rsl0-rcl25-esl29-rsm0-rcm69-esm29-rsr0-rcr25-esr310,exr/ReadingArea_rsl0-rcl25-esl29-rsm0-rcm69-esm29-rsr0-rcr25-esr310.exr,ReadingArea_rsl0-rcl25-esl29-rsm0-rcm69-esm29-rsr0-rcr25-esr310.npz,,,,,0,36,36,356,,left,green,2.91,775.3068950176239,775.7641370296478,,1,8,7,lightness,readingArea,realistic,75,2023-03-29_13h46.06.666,tripletExp_regina_11082022,2022.2.4,119.41316979982518,
4,10,6,0,0.694444444444444,0.298245614035088,0,0.694444444444444,1.0,0,0.027777777777778,1.0,ReadingArea_rsl0-rcl69-esl29-rsm0-rcm69-esm100-rsr0-rcr2-esr100,exr/ReadingArea_rsl0-rcl69-esl29-rsm0-rcm69-esm100-rsr0-rcr2-esr100.exr,ReadingArea_rsl0-rcl69-esl29-rsm0-rcm69-esm100-rsr0-rcr2-esr100.npz,,,,,0,37,37,468,,left,green,3.04,779.2207789421082,779.692321062088,,1,8,7,lightness,readingArea,realistic,75,2023-03-29_13h46.06.666,tripletExp_regina_11082022,2022.2.4,119.41316979982518,
7,8,12,0,0.111111111111111,1.0,0,0.25,1.0,0,0.027777777777778,3.10526315789474,ReadingArea_rsl0-rcl11-esl100-rsm0-rcm25-esm100-rsr0-rcr2-esr310,exr/ReadingArea_rsl0-rcl11-esl100-rsm0-rcm25-esm100-rsr0-rcr2-esr310.exr,ReadingArea_rsl0-rcl11-esl100-rsm0-rcm25-esm100-rsr0-rcr2-esr310.npz,,,,,0,38,38,271,,left,green,1.66,781.4183480739594,781.9239139556885,,1,8,7,lightness,readingArea,realistic,75,2023-03-29_13h46.06.666,tripletExp_regina_11082022,2022.2.4,119.41316979982518,
5,10,2,0,1.0,0.298245614035088,0,0.694444444444444,1.0,0,0.25,0.298245614035088,ReadingArea_rsl0-rcl100-esl29-rsm0-rcm69-esm100-rsr0-rcr25-esr29,exr/ReadingArea_rsl0-rcl100-esl29-rsm0-rcm69-esm100-rsr0-rcr25-esr29.exr,ReadingArea_rsl0-rcl100-esl29-rsm0-rcm69-esm100-rsr0-rcr25-esr29.npz,,,,,0,39,39,489,,left,green,1.69,783.6157929897308,784.0966129302979,,1,8,7,lightness,readingArea,realistic,75,2023-03-29_13h46.06.666,tripletExp_regina_11082022,2022.2.4,119.41316979982518,
3,2,8,0,0.444444444444444,0.298245614035088,0,0.25,0.298245614035088,0,0.25,1.0,ReadingArea_rsl0-rcl44-esl29-rsm0-rcm25-esm29-rsr0-rcr25-esr100,exr/ReadingArea_rsl0-rcl44-esl29-rsm0-rcm25-esm29-rsr0-rcr25-esr100.exr,ReadingArea_rsl0-rcl44-esl29-rsm0-rcm25-esm29-rsr0-rcr25-esr100.npz,,,,,0,40,40,181,,left,green,3.09,787.5620329380035,788.1845660209656,,1,8,7,lightness,readingArea,realistic,75,2023-03-29_13h46.06.666,tripletExp_regina_11082022,2022.2.4,119.41316979982518,
9,4,14,0,0.444444444444444,1.0,0,0.694444444444444,0.298245614035088,0,0.25,3.10526315789474,ReadingArea_rsl0-rcl44-esl100-rsm0-rcm69-esm29-rsr0-rcr25-esr310,exr/ReadingArea_rsl0-rcl44-esl100-rsm0-rcm69-esm29-rsr0-rcr25-esr310.exr,ReadingArea_rsl0-rcl44-esl100-rsm0-rcm69-esm29-rsr0-rcr25-esr310.npz,,,,,0,41,41,104,,left,green,2.4,791.6560890674591,792.1234369277954,,1,8,7,lightness,readingArea,realistic,75,2023-03-29_13h46.06.666,tripletExp_regina_11082022,2022.2.4,119.41316979982518,
12,9,14,0,0.027777777777778,3.10526315789474,0,0.444444444444444,1.0,0,0.25,3.10526315789474,ReadingArea_rsl0-rcl2-esl310-rsm0-rcm44-esm100-rsr0-rcr25-esr310,exr/ReadingArea_rsl0-rcl2-esl310-rsm0-rcm44-esm100-rsr0-rcr25-esr310.exr,ReadingArea_rsl0-rcl2-esl310-rsm0-rcm44-esm100-rsr0-rcr25-esr310.npz,,,,,0,42,42,123,,left,green,4.02,797.3778331279755,,,1,8,7,lightness,readingArea,realistic,75,2023-03-29_13h46.06.666,tripletExp_regina_11082022,2022.2.4,119.41316979982518,
13,10,3,0,0.111111111111111,3.10526315789474,0,0.694444444444444,1.0,0,0.444444444444444,0.298245614035088,ReadingArea_rsl0-rcl11-esl310-rsm0-rcm69-esm100-rsr0-rcr44-esr29,exr/ReadingArea_rsl0-rcl11-esl310-rsm0-rcm69-esm100-rsr0-rcr44-esr29.exr,ReadingArea_rsl0-rcl11-esl310-rsm0-rcm69-esm100-rsr0-rcr44-esr29.npz,,,,,0,43,43,224,,left,green,1.44,799.5728459358215,800.050271987915,,1,8,7,lightness,readingArea,realistic,75,2023-03-29_13h46.06.666,tripletExp_regina_11082022,2022.2.4,119.41316979982518,
9,3,14,0,0.444444444444444,1.0,0,0.444444444444444,0.298245614035088,0,0.25,3.10526315789474,ReadingArea_rsl0-rcl44-esl100-rsm0-rcm44-esm29-rsr0-rcr25-esr310,exr/ReadingArea_rsl0-rcl44-esl100-rsm0-rcm44-esm29-rsr0-rcr25-esr310.exr,ReadingArea_rsl0-rcl44-esl100-rsm0-rcm44-esm29-rsr0-rcr25-esr310.npz,,,,,0,44,44,17,,left,green,2.19,803.5087809562683,804.0903811454773,,1,8,7,lightness,readingArea,realistic,75,2023-03-29_13h46.06.666,tripletExp_regina_11082022,2022.2.4,119.41316979982518,
11,6,14,0,1.0,1.0,0,0.027777777777778,1.0,0,0.25,3.10526315789474,ReadingArea_rsl0-rcl100-esl100-rsm0-rcm2-esm100-rsr0-rcr25-esr310,exr/ReadingArea_rsl0-rcl100-esl100-rsm0-rcm2-esm100-rsr0-rcr25-esr310.exr,ReadingArea_rsl0-rcl100-esl100-rsm0-rcm2-esm100-rsr0-rcr25-esr310.npz,,,,,0,45,45,305,,right,red,2.29,807.5381510257721,,,1,8,7,lightness,readingArea,realistic,75,2023-03-29_13h46.06.666,tripletExp_regina_11082022,2022.2.4,119.41316979982518,
13,0,4,0,0.111111111111111,3.10526315789474,0,0.027777777777778,0.298245614035088,0,0.694444444444444,0.298245614035088,ReadingArea_rsl0-rcl11-esl310-rsm0-rcm2-esm29-rsr0-rcr69-esr29,exr/ReadingArea_rsl0-rcl11-esl310-rsm0-rcm2-esm29-rsr0-rcr69-esr29.exr,ReadingArea_rsl0-rcl11-esl310-rsm0-rcm2-esm29-rsr0-rcr69-esr29.npz,,,,,0,46,46,270,,right,red,1.17,809.7076101303101,810.1816549301147,,1,8,7,lightness,readingArea,realistic,75,2023-03-29_13h46.06.666,tripletExp_regina_11082022,2022.2.4,119.41316979982518,
9,7,2,0,0.444444444444444,1.0,0,0.111111111111111,1.0,0,0.25,0.298245614035088,ReadingArea_rsl0-rcl44-esl100-rsm0-rcm11-esm100-rsr0-rcr25-esr29,exr/ReadingArea_rsl0-rcl44-esl100-rsm0-rcm11-esm100-rsr0-rcr25-esr29.exr,ReadingArea_rsl0-rcl44-esl100-rsm0-rcm11-esm100-rsr0-rcr25-esr29.npz,,,,,0,47,47,428,,right,red,1.54,811.8784739971161,812.348582983017,,1,8,7,lightness,readingArea,realistic,75,2023-03-29_13h46.06.666,tripletExp_regina_11082022,2022.2.4,119.41316979982518,
9,8,7,0,0.444444444444444,1.0,0,0.25,1.0,0,0.111111111111111,1.0,ReadingArea_rsl0-rcl44-esl100-rsm0-rcm25-esm100-rsr0-rcr11-esr100,exr/ReadingArea_rsl0-rcl44-esl100-rsm0-rcm25-esm100-rsr0-rcr11-esr100.exr,ReadingArea_rsl0-rcl44-esl100-rsm0-rcm25-esm100-rsr0-rcr11-esr100.npz,,,,,0,48,48,368,,right,red,1.31,814.0485360622406,814.5779089927673,,1,8,7,lightness,readingArea,realistic,75,2023-03-29_13h46.06.666,tripletExp_regina_11082022,2022.2.4,119.41316979982518,
0,8,12,0,0.027777777777778,0.298245614035088,0,0.25,1.0,0,0.027777777777778,3.10526315789474,ReadingArea_rsl0-rcl2-esl29-rsm0-rcm25-esm100-rsr0-rcr2-esr310,exr/ReadingArea_rsl0-rcl2-esl29-rsm0-rcm25-esm100-rsr0-rcr2-esr310.exr,ReadingArea_rsl0-rcl2-esl29-rsm0-rcm25-esm100-rsr0-rcr2-esr310.npz,,,,,0,49,49,314,,right,red,1.04,816.2739119529724,816.7511241436005,,1,8,7,lightness,readingArea,realistic,75,2023-03-29_13h46.06.666,tripletExp_regina_11082022,2022.2.4,119.41316979982518,
10,5,13,0,0.694444444444444,1.0,0,1.0,0.298245614035088,0,0.111111111111111,3.10526315789474,ReadingArea_rsl0-rcl69-esl100-rsm0-rcm100-esm29-rsr0-rcr11-esr310,exr/ReadingArea_rsl0-rcl69-esl100-rsm0-rcm100-esm29-rsr0-rcr11-esr310.exr,ReadingArea_rsl0-rcl69-esl100-rsm0-rcm100-esm29-rsr0-rcr11-esr310.npz,,,,,0,50,50,478,,right,red,2.75,820.1994581222534,820.7334749698639,,1,8,7,lightness,readingArea,realistic,75,2023-03-29_13h46.06.666,tripletExp_regina_11082022,2022.2.4,119.41316979982518,
9,12,0,0,0.444444444444444,1.0,0,0.027777777777778,3.10526315789474,0,0.027777777777778,0.298245614035088,ReadingArea_rsl0-rcl44-esl100-rsm0-rcm2-esm310-rsr0-rcr2-esr29,exr/ReadingArea_rsl0-rcl44-esl100-rsm0-rcm2-esm310-rsr0-rcr2-esr29.exr,ReadingArea_rsl0-rcl44-esl100-rsm0-rcm2-esm310-rsr0-rcr2-esr29.npz,,,,,0,51,51,175,,left,green,4.72,825.9613380432129,826.538290977478,,1,8,7,lightness,readingArea,realistic,75,2023-03-29_13h46.06.666,tripletExp_regina_11082022,2022.2.4,119.41316979982518,
4,5,8,0,0.694444444444444,0.298245614035088,0,1.0,0.298245614035088,0,0.25,1.0,ReadingArea_rsl0-rcl69-esl29-rsm0-rcm100-esm29-rsr0-rcr25-esr100,exr/ReadingArea_rsl0-rcl69-esl29-rsm0-rcm100-esm29-rsr0-rcr25-esr100.exr,ReadingArea_rsl0-rcl69-esl29-rsm0-rcm100-esm29-rsr0-rcr25-esr100.npz,,,,,0,52,52,54,,left,green,2.94,830.0180110931396,830.5001499652863,,1,8,7,lightness,readingArea,realistic,75,2023-03-29_13h46.06.666,tripletExp_regina_11082022,2022.2.4,119.41316979982518,
8,9,6,0,0.25,1.0,0,0.444444444444444,1.0,0,0.027777777777778,1.0,ReadingArea_rsl0-rcl25-esl100-rsm0-rcm44-esm100-rsr0-rcr2-esr100,exr/ReadingArea_rsl0-rcl25-esl100-rsm0-rcm44-esm100-rsr0-rcr2-esr100.exr,ReadingArea_rsl0-rcl25-esl100-rsm0-rcm44-esm100-rsr0-rcr2-esr100.npz,,,,,0,53,53,3,,left,green,1.46,832.206552028656,832.7538690567017,,1,8,7,lightness,readingArea,realistic,75,2023-03-29_13h46.06.666,tripletExp_regina_11082022,2022.2.4,119.41316979982518,
6,4,2,0,0.027777777777778,1.0,0,0.694444444444444,0.298245614035088,0,0.25,0.298245614035088,ReadingArea_rsl0-rcl2-esl100-rsm0-rcm69-esm29-rsr0-rcr25-esr29,exr/ReadingArea_rsl0-rcl2-esl100-rsm0-rcm69-esm29-rsr0-rcr25-esr29.exr,ReadingArea_rsl0-rcl2-esl100-rsm0-rcm69-esm29-rsr0-rcr25-esr29.npz,,,,,0,54,54,134,,right,red,1.12,834.4431819915771,834.8981330394745,,1,8,7,lightness,readingArea,realistic,75,2023-03-29_13h46.06.666,tripletExp_regina_11082022,2022.2.4,119.41316979982518,
14,7,0,0,0.25,3.10526315789474,0,0.111111111111111,1.0,0,0.027777777777778,0.298245614035088,ReadingArea_rsl0-rcl25-esl310-rsm0-rcm11-esm100-rsr0-rcr2-esr29,exr/ReadingArea_rsl0-rcl25-esl310-rsm0-rcm11-esm100-rsr0-rcr2-esr29.exr,ReadingArea_rsl0-rcl25-esl310-rsm0-rcm11-esm100-rsr0-rcr2-esr29.npz,,,,,0,55,55,412,,right,red,2.33,838.3742661476135,838.8473749160767,,1,8,7,lightness,readingArea,realistic,75,2023-03-29_13h46.06.666,tripletExp_regina_11082022,2022.2.4,119.41316979982518,
11,7,8,0,1.0,1.0,0,0.111111111111111,1.0,0,0.25,1.0,ReadingArea_rsl0-rcl100-esl100-rsm0-rcm11-esm100-rsr0-rcr25-esr100,exr/ReadingArea_rsl0-rcl100-esl100-rsm0-rcm11-esm100-rsr0-rcr25-esr100.exr,ReadingArea_rsl0-rcl100-esl100-rsm0-rcm11-esm100-rsr0-rcr25-esr100.npz,,,,,0,56,56,37,,right,red,0.97,840.5419640541077,841.0122709274292,,1,8,7,lightness,readingArea,realistic,75,2023-03-29_13h46.06.666,tripletExp_regina_11082022,2022.2.4,119.41316979982518,
7,9,3,0,0.111111111111111,1.0,0,0.444444444444444,1.0,0,0.444444444444444,0.298245614035088,ReadingArea_rsl0-rcl11-esl100-rsm0-rcm44-esm100-rsr0-rcr44-esr29,exr/ReadingArea_rsl0-rcl11-esl100-rsm0-rcm44-esm100-rsr0-rcr44-esr29.exr,ReadingArea_rsl0-rcl11-esl100-rsm0-rcm44-esm100-rsr0-rcr44-esr29.npz,,,,,0,57,57,311,,right,red,1.44,842.720696926117,843.1976079940796,,1,8,7,lightness,readingArea,realistic,75,2023-03-29_13h46.06.666,tripletExp_regina_11082022,2022.2.4,119.41316979982518,
13,2,4,0,0.111111111111111,3.10526315789474,0,0.25,0.298245614035088,0,0.694444444444444,0.298245614035088,ReadingArea_rsl0-rcl11-esl310-rsm0-rcm25-esm29-rsr0-rcr69-esr29,exr/ReadingArea_rsl0-rcl11-esl310-rsm0-rcm25-esm29-rsr0-rcr69-esr29.exr,ReadingArea_rsl0-rcl11-esl310-rsm0-rcm25-esm29-rsr0-rcr69-esr29.npz,,,,,0,58,58,307,,right,red,1.29,844.916491985321,845.3770351409912,,1,8,7,lightness,readingArea,realistic,75,2023-03-29_13h46.06.666,tripletExp_regina_11082022,2022.2.4,119.41316979982518,
6,1,14,0,0.027777777777778,1.0,0,0.111111111111111,0.298245614035088,0,0.25,3.10526315789474,ReadingArea_rsl0-rcl2-esl100-rsm0-rcm11-esm29-rsr0-rcr25-esr310,exr/ReadingArea_rsl0-rcl2-esl100-rsm0-rcm11-esm29-rsr0-rcr25-esr310.exr,ReadingArea_rsl0-rcl2-esl100-rsm0-rcm11-esm29-rsr0-rcr25-esr310.npz,,,,,0,59,59,381,,left,green,0.95,847.0937280654907,847.5525939464569,,1,8,7,lightness,readingArea,realistic,75,2023-03-29_13h46.06.666,tripletExp_regina_11082022,2022.2.4,119.41316979982518,
2,11,14,0,0.25,0.298245614035088,0,1.0,1.0,0,0.25,3.10526315789474,ReadingArea_rsl0-rcl25-esl29-rsm0-rcm100-esm100-rsr0-rcr25-esr310,exr/ReadingArea_rsl0-rcl25-esl29-rsm0-rcm100-esm100-rsr0-rcr25-esr310.exr,ReadingArea_rsl0-rcl25-esl29-rsm0-rcm100-esm100-rsr0-rcr25-esr310.npz,,,,,0,60,60,534,,right,red,1.06,849.2696740627289,,,1,8,7,lightness,readingArea,realistic,75,2023-03-29_13h46.06.666,tripletExp_regina_11082022,2022.2.4,119.41316979982518,
3,6,13,0,0.444444444444444,0.298245614035088,0,0.027777777777778,1.0,0,0.111111111111111,3.10526315789474,ReadingArea_rsl0-rcl44-esl29-rsm0-rcm2-esm100-rsr0-rcr11-esr310,exr/ReadingArea_rsl0-rcl44-esl29-rsm0-rcm2-esm100-rsr0-rcr11-esr310.exr,ReadingArea_rsl0-rcl44-esl29-rsm0-rcm2-esm100-rsr0-rcr11-esr310.npz,,,,,0,61,61,449,,left,green,2.9,853.184828042984,853.6400730609894,,1,8,7,lightness,readingArea,realistic,75,2023-03-29_13h46.06.666,tripletExp_regina_11082022,2022.2.4,119.41316979982518,
4,2,5,0,0.694444444444444,0.298245614035088,0,0.25,0.298245614035088,0,1.0,0.298245614035088,ReadingArea_rsl0-rcl69-esl29-rsm0-rcm25-esm29-rsr0-rcr100-esr29,exr/ReadingArea_rsl0-rcl69-esl29-rsm0-rcm25-esm29-rsr0-rcr100-esr29.exr,ReadingArea_rsl0-rcl69-esl29-rsm0-rcm25-esm29-rsr0-rcr100-esr29.npz,,,,,0,62,62,101,,left,green,2.9,857.102823972702,857.6864421367645,,1,8,7,lightness,readingArea,realistic,75,2023-03-29_13h46.06.666,tripletExp_regina_11082022,2022.2.4,119.41316979982518,
12,6,8,0,0.027777777777778,3.10526315789474,0,0.027777777777778,1.0,0,0.25,1.0,ReadingArea_rsl0-rcl2-esl310-rsm0-rcm2-esm100-rsr0-rcr25-esr100,exr/ReadingArea_rsl0-rcl2-esl310-rsm0-rcm2-esm100-rsr0-rcr25-esr100.exr,ReadingArea_rsl0-rcl2-esl310-rsm0-rcm2-esm100-rsr0-rcr25-esr100.npz,,,,,0,63,63,540,,left,green,2.75,861.1556310653687,861.6221971511841,,1,8,7,lightness,readingArea,realistic,75,2023-03-29_13h46.06.666,tripletExp_regina_11082022,2022.2.4,119.41316979982518,
14,6,7,0,0.25,3.10526315789474,0,0.027777777777778,1.0,0,0.111111111111111,1.0,ReadingArea_rsl0-rcl25-esl310-rsm0-rcm2-esm100-rsr0-rcr11-esr100,exr/ReadingArea_rsl0-rcl25-esl310-rsm0-rcm2-esm100-rsr0-rcr11-esr100.exr,ReadingArea_rsl0-rcl25-esl310-rsm0-rcm2-esm100-rsr0-rcr11-esr100.npz,,,,,0,64,64,306,,right,red,2.29,865.0976049900055,865.5723340511322,,1,8,7,lightness,readingArea,realistic,75,2023-03-29_13h46.06.666,tripletExp_regina_11082022,2022.2.4,119.41316979982518,
3,13,6,0,0.444444444444444,0.298245614035088,0,0.111111111111111,3.10526315789474,0,0.027777777777778,1.0,ReadingArea_rsl0-rcl44-esl29-rsm0-rcm11-esm310-rsr0-rcr2-esr100,exr/ReadingArea_rsl0-rcl44-esl29-rsm0-rcm11-esm310-rsr0-rcr2-esr100.exr,ReadingArea_rsl0-rcl44-esl29-rsm0-rcm11-esm310-rsr0-rcr2-esr100.npz,,,,,0,65,65,199,,left,green,1.26,867.2889339923859,,,1,8,7,lightness,readingArea,realistic,75,2023-03-29_13h46.06.666,tripletExp_regina_11082022,2022.2.4,119.41316979982518,
9,13,6,0,0.444444444444444,1.0,0,0.111111111111111,3.10526315789474,0,0.027777777777778,1.0,ReadingArea_rsl0-rcl44-esl100-rsm0-rcm11-esm310-rsr0-rcr2-esr100,exr/ReadingArea_rsl0-rcl44-esl100-rsm0-rcm11-esm310-rsr0-rcr2-esr100.exr,ReadingArea_rsl0-rcl44-esl100-rsm0-rcm11-esm310-rsr0-rcr2-esr100.npz,,,,,0,66,66,13,,left,green,0.98,869.4322979450226,869.8924419879913,,1,8,7,lightness,readingArea,realistic,75,2023-03-29_13h46.06.666,tripletExp_regina_11082022,2022.2.4,119.41316979982518,
14,13,6,0,0.25,3.10526315789474,0,0.111111111111111,3.10526315789474,0,0.027777777777778,1.0,ReadingArea_rsl0-rcl25-esl310-rsm0-rcm11-esm310-rsr0-rcr2-esr100,exr/ReadingArea_rsl0-rcl25-esl310-rsm0-rcm11-esm310-rsr0-rcr2-esr100.exr,ReadingArea_rsl0-rcl25-esl310-rsm0-rcm11-esm310-rsr0-rcr2-esr100.npz,,,,,0,67,67,102,,left,green,1.74,871.5906119346619,872.0866141319275,,1,8,7,lightness,readingArea,realistic,75,2023-03-29_13h46.06.666,tripletExp_regina_11082022,2022.2.4,119.41316979982518,
3,4,5,0,0.444444444444444,0.298245614035088,0,0.694444444444444,0.298245614035088,0,1.0,0.298245614035088,ReadingArea_rsl0-rcl44-esl29-rsm0-rcm69-esm29-rsr0-rcr100-esr29,exr/ReadingArea_rsl0-rcl44-esl29-rsm0-rcm69-esm29-rsr0-rcr100-esr29.exr,ReadingArea_rsl0-rcl44-esl29-rsm0-rcm69-esm29-rsr0-rcr100-esr29.npz,,,,,0,68,68,233,,left,green,2.29,875.5337901115417,875.9980120658875,,1,8,7,lightness,readingArea,realistic,75,2023-03-29_13h46.06.666,tripletExp_regina_11082022,2022.2.4,119.41316979982518,
6,4,10,0,0.027777777777778,1.0,0,0.694444444444444,0.298245614035088,0,0.694444444444444,1.0,ReadingArea_rsl0-rcl2-esl100-rsm0-rcm69-esm29-rsr0-rcr69-esr100,exr/ReadingArea_rsl0-rcl2-esl100-rsm0-rcm69-esm29-rsr0-rcr69-esr100.exr,ReadingArea_rsl0-rcl2-esl100-rsm0-rcm69-esm29-rsr0-rcr69-esr100.npz,,,,,0,69,69,554,,right,red,2.8,879.4712600708008,879.9405090808868,,1,8,7,lightness,readingArea,realistic,75,2023-03-29_13h46.06.666,tripletExp_regina_11082022,2022.2.4,119.41316979982518,
1,13,14,0,0.111111111111111,0.298245614035088,0,0.111111111111111,3.10526315789474,0,0.25,3.10526315789474,ReadingArea_rsl0-rcl11-esl29-rsm0-rcm11-esm310-rsr0-rcr25-esr310,exr/ReadingArea_rsl0-rcl11-esl29-rsm0-rcm11-esm310-rsr0-rcr25-esr310.exr,ReadingArea_rsl0-rcl11-esl29-rsm0-rcm11-esm310-rsr0-rcr25-esr310.npz,,,,,0,70,70,183,,right,red,1.58,881.634859085083,882.2364161014557,,1,8,7,lightness,readingArea,realistic,75,2023-03-29_13h46.06.666,tripletExp_regina_11082022,2022.2.4,119.41316979982518,
1,8,12,0,0.111111111111111,0.298245614035088,0,0.25,1.0,0,0.027777777777778,3.10526315789474,ReadingArea_rsl0-rcl11-esl29-rsm0-rcm25-esm100-rsr0-rcr2-esr310,exr/ReadingArea_rsl0-rcl11-esl29-rsm0-rcm25-esm100-rsr0-rcr2-esr310.exr,ReadingArea_rsl0-rcl11-esl29-rsm0-rcm25-esm100-rsr0-rcr2-esr310.npz,,,,,0,71,71,156,,right,red,3.08,885.700660943985,,,1,8,7,lightness,readingArea,realistic,75,2023-03-29_13h46.06.666,tripletExp_regina_11082022,2022.2.4,119.41316979982518,
6,10,11,0,0.027777777777778,1.0,0,0.694444444444444,1.0,0,1.0,1.0,ReadingArea_rsl0-rcl2-esl100-rsm0-rcm69-esm100-rsr0-rcr100-esr100,exr/ReadingArea_rsl0-rcl2-esl100-rsm0-rcm69-esm100-rsr0-rcr100-esr100.exr,ReadingArea_rsl0-rcl2-esl100-rsm0-rcm69-esm100-rsr0-rcr100-esr100.npz,,,,,0,72,72,116,,right,red,1.21,888.0855181217194,888.5804100036621,,1,8,7,lightness,readingArea,realistic,75,2023-03-29_13h46.06.666,tripletExp_regina_11082022,2022.2.4,119.41316979982518,
9,11,13,0,0.444444444444444,1.0,0,1.0,1.0,0,0.111111111111111,3.10526315789474,ReadingArea_rsl0-rcl44-esl100-rsm0-rcm100-esm100-rsr0-rcr11-esr310,exr/ReadingArea_rsl0-rcl44-esl100-rsm0-rcm100-esm100-rsr0-rcr11-esr310.exr,ReadingArea_rsl0-rcl44-esl100-rsm0-rcm100-esm100-rsr0-rcr11-esr310.npz,,,,,0,73,73,254,,left,green,3.17,892.0447239875793,892.5259871482849,,1,8,7,lightness,readingArea,realistic,75,2023-03-29_13h46.06.666,tripletExp_regina_11082022,2022.2.4,119.41316979982518,
14,0,3,0,0.25,3.10526315789474,0,0.027777777777778,0.298245614035088,0,0.444444444444444,0.298245614035088,ReadingArea_rsl0-rcl25-esl310-rsm0-rcm2-esm29-rsr0-rcr44-esr29,exr/ReadingArea_rsl0-rcl25-esl310-rsm0-rcm2-esm29-rsr0-rcr44-esr29.exr,ReadingArea_rsl0-rcl25-esl310-rsm0-rcm2-esm29-rsr0-rcr44-esr29.npz,,,,,0,74,74,75,,right,red,1.26,894.2158091068268,894.4171631336212,,1,8,7,lightness,readingArea,realistic,75,2023-03-29_13h46.06.666,tripletExp_regina_11082022,2022.2.4,119.41316979982518,
11,3,12,0,1.0,1.0,0,0.444444444444444,0.298245614035088,0,0.027777777777778,3.10526315789474,ReadingArea_rsl0-rcl100-esl100-rsm0-rcm44-esm29-rsr0-rcr2-esr310,exr/ReadingArea_rsl0-rcl100-esl100-rsm0-rcm44-esm29-rsr0-rcr2-esr310.exr,ReadingArea_rsl0-rcl100-esl100-rsm0-rcm44-esm29-rsr0-rcr2-esr310.npz,,,,,0,75,75,355,,right,red,1.43,897.807275056839,898.2996990680695,,2,8,7,lightness,readingArea,realistic,75,2023-03-29_13h46.06.666,tripletExp_regina_11082022,2022.2.4,119.41316979982518,
8,3,12,0,0.25,1.0,0,0.444444444444444,0.298245614035088,0,0.027777777777778,3.10526315789474,ReadingArea_rsl0-rcl25-esl100-rsm0-rcm44-esm29-rsr0-rcr2-esr310,exr/ReadingArea_rsl0-rcl25-esl100-rsm0-rcm44-esm29-rsr0-rcr2-esr310.exr,ReadingArea_rsl0-rcl25-esl100-rsm0-rcm44-esm29-rsr0-rcr2-esr310.npz,,,,,0,76,76,22,,left,green,3.07,901.7700951099396,902.2438559532166,,2,8,7,lightness,readingArea,realistic,75,2023-03-29_13h46.06.666,tripletExp_regina_11082022,2022.2.4,119.41316979982518,
3,14,5,0,0.444444444444444,0.298245614035088,0,0.25,3.10526315789474,0,1.0,0.298245614035088,ReadingArea_rsl0-rcl44-esl29-rsm0-rcm25-esm310-rsr0-rcr100-esr29,exr/ReadingArea_rsl0-rcl44-esl29-rsm0-rcm25-esm310-rsr0-rcr100-esr29.exr,ReadingArea_rsl0-rcl44-esl29-rsm0-rcm25-esm310-rsr0-rcr100-esr29.npz,,,,,0,77,77,131,,right,red,3.02,905.7085709571838,906.1735291481018,,2,8,7,lightness,readingArea,realistic,75,2023-03-29_13h46.06.666,tripletExp_regina_11082022,2022.2.4,119.41316979982518,
13,3,5,0,0.111111111111111,3.10526315789474,0,0.444444444444444,0.298245614035088,0,1.0,0.298245614035088,ReadingArea_rsl0-rcl11-esl310-rsm0-rcm44-esm29-rsr0-rcr100-esr29,exr/ReadingArea_rsl0-rcl11-esl310-rsm0-rcm44-esm29-rsr0-rcr100-esr29.exr,ReadingArea_rsl0-rcl11-esl310-rsm0-rcm44-esm29-rsr0-rcr100-esr29.npz,,,,,0,78,78,398,,left,green,3.01,909.6326379776,910.119796037674,,2,8,7,lightness,readingArea,realistic,75,2023-03-29_13h46.06.666,tripletExp_regina_11082022,2022.2.4,119.41316979982518,
0,14,6,0,0.027777777777778,0.298245614035088,0,0.25,3.10526315789474,0,0.027777777777778,1.0,ReadingArea_rsl0-rcl2-esl29-rsm0-rcm25-esm310-rsr0-rcr2-esr100,exr/ReadingArea_rsl0-rcl2-esl29-rsm0-rcm25-esm310-rsr0-rcr2-esr100.exr,ReadingArea_rsl0-rcl2-esl29-rsm0-rcm25-esm310-rsr0-rcr2-esr100.npz,,,,,0,79,79,499,,right,red,1.7,911.8132600784302,,,2,8,7,lightness,readingArea,realistic,75,2023-03-29_13h46.06.666,tripletExp_regina_11082022,2022.2.4,119.41316979982518,
6,13,8,0,0.027777777777778,1.0,0,0.111111111111111,3.10526315789474,0,0.25,1.0,ReadingArea_rsl0-rcl2-esl100-rsm0-rcm11-esm310-rsr0-rcr25-esr100,exr/ReadingArea_rsl0-rcl2-esl100-rsm0-rcm11-esm310-rsr0-rcr25-esr100.exr,ReadingArea_rsl0-rcl2-esl100-rsm0-rcm11-esm310-rsr0-rcr25-esr100.npz,,,,,0,80,80,535,,right,red,1.19,913.9875519275664,914.4786319732666,,2,8,7,lightness,readingArea,realistic,75,2023-03-29_13h46.06.666,tripletExp_regina_11082022,2022.2.4,119.41316979982518,
2,14,8,0,0.25,0.298245614035088,0,0.25,3.10526315789474,0,0.25,1.0,ReadingArea_rsl0-rcl25-esl29-rsm0-rcm25-esm310-rsr0-rcr25-esr100,exr/ReadingArea_rsl0-rcl25-esl29-rsm0-rcm25-esm310-rsr0-rcr25-esr100.exr,ReadingArea_rsl0-rcl25-esl29-rsm0-rcm25-esm310-rsr0-rcr25-esr100.npz,,,,,0,81,81,255,,right,red,1.35,916.1805369853972,,,2,8,7,lightness,readingArea,realistic,75,2023-03-29_13h46.06.666,tripletExp_regina_11082022,2022.2.4,119.41316979982518,
12,11,6,0,0.027777777777778,3.10526315789474,0,1.0,1.0,0,0.027777777777778,1.0,ReadingArea_rsl0-rcl2-esl310-rsm0-rcm100-esm100-rsr0-rcr2-esr100,exr/ReadingArea_rsl0-rcl2-esl310-rsm0-rcm100-esm100-rsr0-rcr2-esr100.exr,ReadingArea_rsl0-rcl2-esl310-rsm0-rcm100-esm100-rsr0-rcr2-esr100.npz,,,,,0,82,82,163,,left,green,4.41,921.9042060375214,922.3770689964294,,2,8,7,lightness,readingArea,realistic,75,2023-03-29_13h46.06.666,tripletExp_regina_11082022,2022.2.4,119.41316979982518,
0,4,7,0,0.027777777777778,0.298245614035088,0,0.694444444444444,0.298245614035088,0,0.111111111111111,1.0,ReadingArea_rsl0-rcl2-esl29-rsm0-rcm69-esm29-rsr0-rcr11-esr100,exr/ReadingArea_rsl0-rcl2-esl29-rsm0-rcm69-esm29-rsr0-rcr11-esr100.exr,ReadingArea_rsl0-rcl2-esl29-rsm0-rcm69-esm29-rsr0-rcr11-esr100.npz,,,,,0,83,83,200,,right,red,1.08,924.077080965042,924.5245649814606,,2,8,7,lightness,readingArea,realistic,75,2023-03-29_13h46.06.666,tripletExp_regina_11082022,2022.2.4,119.41316979982518,
4,13,2,0,0.694444444444444,0.298245614035088,0,0.111111111111111,3.10526315789474,0,0.25,0.298245614035088,ReadingArea_rsl0-rcl69-esl29-rsm0-rcm11-esm310-rsr0-rcr25-esr29,exr/ReadingArea_rsl0-rcl69-esl29-rsm0-rcm11-esm310-rsr0-rcr25-esr29.exr,ReadingArea_rsl0-rcl69-esl29-rsm0-rcm11-esm310-rsr0-rcr25-esr29.npz,,,,,0,84,84,592,,left,green,1.58,926.2335479259492,926.7646920681,,2,8,7,lightness,readingArea,realistic,75,2023-03-29_13h46.06.666,tripletExp_regina_11082022,2022.2.4,119.41316979982518,
7,0,3,0,0.111111111111111,1.0,0,0.027777777777778,0.298245614035088,0,0.444444444444444,0.298245614035088,ReadingArea_rsl0-rcl11-esl100-rsm0-rcm2-esm29-rsr0-rcr44-esr29,exr/ReadingArea_rsl0-rcl11-esl100-rsm0-rcm2-esm29-rsr0-rcr44-esr29.exr,ReadingArea_rsl0-rcl11-esl100-rsm0-rcm2-esm29-rsr0-rcr44-esr29.npz,,,,,0,85,85,237,,left,green,3.34,930.2670350074768,930.7326669692992,,2,8,7,lightness,readingArea,realistic,75,2023-03-29_13h46.06.666,tripletExp_regina_11082022,2022.2.4,119.41316979982518,
7,4,6,0,0.111111111111111,1.0,0,0.694444444444444,0.298245614035088,0,0.027777777777778,1.0,ReadingArea_rsl0-rcl11-esl100-rsm0-rcm69-esm29-rsr0-rcr2-esr100,exr/ReadingArea_rsl0-rcl11-esl100-rsm0-rcm69-esm29-rsr0-rcr2-esr100.exr,ReadingArea_rsl0-rcl11-esl100-rsm0-rcm69-esm29-rsr0-rcr2-esr100.npz,,,,,0,86,86,528,,left,green,1.52,932.4217700958252,932.9076969623566,,2,8,7,lightness,readingArea,realistic,75,2023-03-29_13h46.06.666,tripletExp_regina_11082022,2022.2.4,119.41316979982518,
12,14,4,0,0.027777777777778,3.10526315789474,0,0.25,3.10526315789474,0,0.694444444444444,0.298245614035088,ReadingArea_rsl0-rcl2-esl310-rsm0-rcm25-esm310-rsr0-rcr69-esr29,exr/ReadingArea_rsl0-rcl2-esl310-rsm0-rcm25-esm310-rsr0-rcr69-esr29.exr,ReadingArea_rsl0-rcl2-esl310-rsm0-rcm25-esm310-rsr0-rcr69-esr29.npz,,,,,0,87,87,315,,right,red,1.47,934.6248409748076,,,2,8,7,lightness,readingArea,realistic,75,2023-03-29_13h46.06.666,tripletExp_regina_11082022,2022.2.4,119.41316979982518,
5,9,12,0,1.0,0.298245614035088,0,0.444444444444444,1.0,0,0.027777777777778,3.10526315789474,ReadingArea_rsl0-rcl100-esl29-rsm0-rcm44-esm100-rsr0-rcr2-esr310,exr/ReadingArea_rsl0-rcl100-esl29-rsm0-rcm44-esm100-rsr0-rcr2-esr310.exr,ReadingArea_rsl0-rcl100-esl29-rsm0-rcm44-esm100-rsr0-rcr2-esr310.npz,,,,,0,88,88,539,,left,green,1.05,936.8123860359192,937.259194135666,,2,8,7,lightness,readingArea,realistic,75,2023-03-29_13h46.06.666,tripletExp_regina_11082022,2022.2.4,119.41316979982518,
12,11,13,0,0.027777777777778,3.10526315789474,0,1.0,1.0,0,0.111111111111111,3.10526315789474,ReadingArea_rsl0-rcl2-esl310-rsm0-rcm100-esm100-rsr0-rcr11-esr310,exr/ReadingArea_rsl0-rcl2-esl310-rsm0-rcm100-esm100-rsr0-rcr11-esr310.exr,ReadingArea_rsl0-rcl2-esl310-rsm0-rcm100-esm100-rsr0-rcr11-esr310.npz,,,,,0,89,89,151,,right,red,2.38,940.7145941257476,941.1762170791626,,2,8,7,lightness,readingArea,realistic,75,2023-03-29_13h46.06.666,tripletExp_regina_11082022,2022.2.4,119.41316979982518,
13,7,6,0,0.111111111111111,3.10526315789474,0,0.111111111111111,1.0,0,0.027777777777778,1.0,ReadingArea_rsl0-rcl11-esl310-rsm0-rcm11-esm100-rsr0-rcr2-esr100,exr/ReadingArea_rsl0-rcl11-esl310-rsm0-rcm11-esm100-rsr0-rcr2-esr100.exr,ReadingArea_rsl0-rcl11-esl310-rsm0-rcm11-esm100-rsr0-rcr2-esr100.npz,,,,,0,90,90,283,,left,green,2.79,944.6363050937651,945.1206800937651,,2,8,7,lightness,readingArea,realistic,75,2023-03-29_13h46.06.666,tripletExp_regina_11082022,2022.2.4,119.41316979982518,
6,11,3,0,0.027777777777778,1.0,0,1.0,1.0,0,0.444444444444444,0.298245614035088,ReadingArea_rsl0-rcl2-esl100-rsm0-rcm100-esm100-rsr0-rcr44-esr29,exr/ReadingArea_rsl0-rcl2-esl100-rsm0-rcm100-esm100-rsr0-rcr44-esr29.exr,ReadingArea_rsl0-rcl2-esl100-rsm0-rcm100-esm100-rsr0-rcr44-esr29.npz,,,,,0,91,91,11,,right,red,1.81,946.8276610374452,947.3098120689392,,2,8,7,lightness,readingArea,realistic,75,2023-03-29_13h46.06.666,tripletExp_regina_11082022,2022.2.4,119.41316979982518,
14,8,9,0,0.25,3.10526315789474,0,0.25,1.0,0,0.444444444444444,1.0,ReadingArea_rsl0-rcl25-esl310-rsm0-rcm25-esm100-rsr0-rcr44-esr100,exr/ReadingArea_rsl0-rcl25-esl310-rsm0-rcm25-esm100-rsr0-rcr44-esr100.exr,ReadingArea_rsl0-rcl25-esl310-rsm0-rcm25-esm100-rsr0-rcr44-esr100.npz,,,,,0,92,92,518,,right,red,2.3,950.778881072998,951.2681739330292,,2,8,7,lightness,readingArea,realistic,75,2023-03-29_13h46.06.666,tripletExp_regina_11082022,2022.2.4,119.41316979982518,
5,11,8,0,1.0,0.298245614035088,0,1.0,1.0,0,0.25,1.0,ReadingArea_rsl0-rcl100-esl29-rsm0-rcm100-esm100-rsr0-rcr25-esr100,exr/ReadingArea_rsl0-rcl100-esl29-rsm0-rcm100-esm100-rsr0-rcr25-esr100.exr,ReadingArea_rsl0-rcl100-esl29-rsm0-rcm100-esm100-rsr0-rcr25-esr100.npz,,,,,0,93,93,548,,left,green,2.96,954.7183151245116,955.1954600811004,,2,8,7,lightness,readingArea,realistic,75,2023-03-29_13h46.06.666,tripletExp_regina_11082022,2022.2.4,119.41316979982518,
11,7,10,0,1.0,1.0,0,0.111111111111111,1.0,0,0.694444444444444,1.0,ReadingArea_rsl0-rcl100-esl100-rsm0-rcm11-esm100-rsr0-rcr69-esr100,exr/ReadingArea_rsl0-rcl100-esl100-rsm0-rcm11-esm100-rsr0-rcr69-esr100.exr,ReadingArea_rsl0-rcl100-esl100-rsm0-rcm11-esm100-rsr0-rcr69-esr100.npz,,,,,0,94,94,411,,right,red,1.81,956.8941440582277,957.376070022583,,2,8,7,lightness,readingArea,realistic,75,2023-03-29_13h46.06.666,tripletExp_regina_11082022,2022.2.4,119.41316979982518,
10,11,5,0,0.694444444444444,1.0,0,1.0,1.0,0,1.0,0.298245614035088,ReadingArea_rsl0-rcl69-esl100-rsm0-rcm100-esm100-rsr0-rcr100-esr29,exr/ReadingArea_rsl0-rcl69-esl100-rsm0-rcm100-esm100-rsr0-rcr100-esr29.exr,ReadingArea_rsl0-rcl69-esl100-rsm0-rcm100-esm100-rsr0-rcr100-esr29.npz,,,,,0,95,95,514,,left,green,1.41,959.0703661441804,,,2,8,7,lightness,readingArea,realistic,75,2023-03-29_13h46.06.666,tripletExp_regina_11082022,2022.2.4,119.41316979982518,
2,11,5,0,0.25,0.298245614035088,0,1.0,1.0,0,1.0,0.298245614035088,ReadingArea_rsl0-rcl25-esl29-rsm0-rcm100-esm100-rsr0-rcr100-esr29,exr/ReadingArea_rsl0-rcl25-esl29-rsm0-rcm100-esm100-rsr0-rcr100-esr29.exr,ReadingArea_rsl0-rcl25-esl29-rsm0-rcm100-esm100-rsr0-rcr100-esr29.npz,,,,,0,96,96,491,,right,red,2.48,963.0351951122284,963.6074590682985,,2,8,7,lightness,readingArea,realistic,75,2023-03-29_13h46.06.666,tripletExp_regina_11082022,2022.2.4,119.41316979982518,
5,10,0,0,1.0,0.298245614035088,0,0.694444444444444,1.0,0,0.027777777777778,0.298245614035088,ReadingArea_rsl0-rcl100-esl29-rsm0-rcm69-esm100-rsr0-rcr2-esr29,exr/ReadingArea_rsl0-rcl100-esl29-rsm0-rcm69-esm100-rsr0-rcr2-esr29.exr,ReadingArea_rsl0-rcl100-esl29-rsm0-rcm69-esm100-rsr0-rcr2-esr29.npz,,,,,0,97,97,293,,left,green,1.15,965.3130631446838,,,2,8,7,lightness,readingArea,realistic,75,2023-03-29_13h46.06.666,tripletExp_regina_11082022,2022.2.4,119.41316979982518,
8,12,13,0,0.25,1.0,0,0.027777777777778,3.10526315789474,0,0.111111111111111,3.10526315789474,ReadingArea_rsl0-rcl25-esl100-rsm0-rcm2-esm310-rsr0-rcr11-esr310,exr/ReadingArea_rsl0-rcl25-esl100-rsm0-rcm2-esm310-rsr0-rcr11-esr310.exr,ReadingArea_rsl0-rcl25-esl100-rsm0-rcm2-esm310-rsr0-rcr11-esr310.npz,,,,,0,98,98,275,,left,green,2.94,969.2581169605256,969.7617809772491,,2,8,7,lightness,readingArea,realistic,75,2023-03-29_13h46.06.666,tripletExp_regina_11082022,2022.2.4,119.41316979982518,
10,13,6,0,0.694444444444444,1.0,0,0.111111111111111,3.10526315789474,0,0.027777777777778,1.0,ReadingArea_rsl0-rcl69-esl100-rsm0-rcm11-esm310-rsr0-rcr2-esr100,exr/ReadingArea_rsl0-rcl69-esl100-rsm0-rcm11-esm310-rsr0-rcr2-esr100.exr,ReadingArea_rsl0-rcl69-esl100-rsm0-rcm11-esm310-rsr0-rcr2-esr100.npz,,,,,0,99,99,351,,left,green,2.75,973.2349569797516,973.8403959274292,,2,8,7,lightness,readingArea,realistic,75,2023-03-29_13h46.06.666,tripletExp_regina_11082022,2022.2.4,119.41316979982518,
1,7,2,0,0.111111111111111,0.298245614035088,0,0.111111111111111,1.0,0,0.25,0.298245614035088,ReadingArea_rsl0-rcl11-esl29-rsm0-rcm11-esm100-rsr0-rcr25-esr29,exr/ReadingArea_rsl0-rcl11-esl29-rsm0-rcm11-esm100-rsr0-rcr25-esr29.exr,ReadingArea_rsl0-rcl11-esl29-rsm0-rcm11-esm100-rsr0-rcr25-esr29.npz,,,,,0,100,100,162,,right,red,2.72,977.3040399551392,977.8062460422516,,2,8,7,lightness,readingArea,realistic,75,2023-03-29_13h46.06.666,tripletExp_regina_11082022,2022.2.4,119.41316979982518,
3,13,12,0,0.444444444444444,0.298245614035088,0,0.111111111111111,3.10526315789474,0,0.027777777777778,3.10526315789474,ReadingArea_rsl0-rcl44-esl29-rsm0-rcm11-esm310-rsr0-rcr2-esr310,exr/ReadingArea_rsl0-rcl44-esl29-rsm0-rcm11-esm310-rsr0-rcr2-esr310.exr,ReadingArea_rsl0-rcl44-esl29-rsm0-rcm11-esm310-rsr0-rcr2-esr310.npz,,,,,0,101,101,34,,left,green,2.66,981.2776079177856,981.7505669593812,,2,8,7,lightness,readingArea,realistic,75,2023-03-29_13h46.06.666,tripletExp_regina_11082022,2022.2.4,119.41316979982518,
8,13,3,0,0.25,1.0,0,0.111111111111111,3.10526315789474,0,0.444444444444444,0.298245614035088,ReadingArea_rsl0-rcl25-esl100-rsm0-rcm11-esm310-rsr0-rcr44-esr29,exr/ReadingArea_rsl0-rcl25-esl100-rsm0-rcm11-esm310-rsr0-rcr44-esr29.exr,ReadingArea_rsl0-rcl25-esl100-rsm0-rcm11-esm310-rsr0-rcr44-esr29.npz,,,,,0,102,102,553,,left,green,2.84,985.238095998764,985.706192970276,,2,8,7,lightness,readingArea,realistic,75,2023-03-29_13h46.06.666,tripletExp_regina_11082022,2022.2.4,119.41316979982518,
10,14,13,0,0.694444444444444,1.0,0,0.25,3.10526315789474,0,0.111111111111111,3.10526315789474,ReadingArea_rsl0-rcl69-esl100-rsm0-rcm25-esm310-rsr0-rcr11-esr310,exr/ReadingArea_rsl0-rcl69-esl100-rsm0-rcm25-esm310-rsr0-rcr11-esr310.exr,ReadingArea_rsl0-rcl69-esl100-rsm0-rcm25-esm310-rsr0-rcr11-esr310.npz,,,,,0,103,103,168,,left,green,1.07,987.4139080047609,988.1451709270476,,2,8,7,lightness,readingArea,realistic,75,2023-03-29_13h46.06.666,tripletExp_regina_11082022,2022.2.4,119.41316979982518,
5,3,2,0,1.0,0.298245614035088,0,0.444444444444444,0.298245614035088,0,0.25,0.298245614035088,ReadingArea_rsl0-rcl100-esl29-rsm0-rcm44-esm29-rsr0-rcr25-esr29,exr/ReadingArea_rsl0-rcl100-esl29-rsm0-rcm44-esm29-rsr0-rcr25-esr29.exr,ReadingArea_rsl0-rcl100-esl29-rsm0-rcm44-esm29-rsr0-rcr25-esr29.npz,,,,,0,104,104,143,,right,red,3.27,991.6269080638884,992.1134369373322,,2,8,7,lightness,readingArea,realistic,75,2023-03-29_13h46.06.666,tripletExp_regina_11082022,2022.2.4,119.41316979982518,
2,1,6,0,0.25,0.298245614035088,0,0.111111111111111,0.298245614035088,0,0.027777777777778,1.0,ReadingArea_rsl0-rcl25-esl29-rsm0-rcm11-esm29-rsr0-rcr2-esr100,exr/ReadingArea_rsl0-rcl25-esl29-rsm0-rcm11-esm29-rsr0-rcr2-esr100.exr,ReadingArea_rsl0-rcl25-esl29-rsm0-rcm11-esm29-rsr0-rcr2-esr100.npz,,,,,0,105,105,171,,right,red,1.17,993.82159614563,994.4310591220856,,2,8,7,lightness,readingArea,realistic,75,2023-03-29_13h46.06.666,tripletExp_regina_11082022,2022.2.4,119.41316979982518,
3,0,8,0,0.444444444444444,0.298245614035088,0,0.027777777777778,0.298245614035088,0,0.25,1.0,ReadingArea_rsl0-rcl44-esl29-rsm0-rcm2-esm29-rsr0-rcr25-esr100,exr/ReadingArea_rsl0-rcl44-esl29-rsm0-rcm2-esm29-rsr0-rcr25-esr100.exr,ReadingArea_rsl0-rcl44-esl29-rsm0-rcm2-esm29-rsr0-rcr25-esr100.npz,,,,,0,106,106,510,,left,green,2.97,997.8929300308228,,,2,8,7,lightness,readingArea,realistic,75,2023-03-29_13h46.06.666,tripletExp_regina_11082022,2022.2.4,119.41316979982518,
4,12,2,0,0.694444444444444,0.298245614035088,0,0.027777777777778,3.10526315789474,0,0.25,0.298245614035088,ReadingArea_rsl0-rcl69-esl29-rsm0-rcm2-esm310-rsr0-rcr25-esr29,exr/ReadingArea_rsl0-rcl69-esl29-rsm0-rcm2-esm310-rsr0-rcr25-esr29.exr,ReadingArea_rsl0-rcl69-esl29-rsm0-rcm2-esm310-rsr0-rcr25-esr29.npz,,,,,0,107,107,543,,right,red,2.78,1001.863037109375,1002.3348021507264,,2,8,7,lightness,readingArea,realistic,75,2023-03-29_13h46.06.666,tripletExp_regina_11082022,2022.2.4,119.41316979982518,
1,9,7,0,0.111111111111111,0.298245614035088,0,0.444444444444444,1.0,0,0.111111111111111,1.0,ReadingArea_rsl0-rcl11-esl29-rsm0-rcm44-esm100-rsr0-rcr11-esr100,exr/ReadingArea_rsl0-rcl11-esl29-rsm0-rcm44-esm100-rsr0-rcr11-esr100.exr,ReadingArea_rsl0-rcl11-esl29-rsm0-rcm44-esm100-rsr0-rcr11-esr100.npz,,,,,0,108,108,397,,right,red,2.62,1005.8178341388702,1006.280643939972,,2,8,7,lightness,readingArea,realistic,75,2023-03-29_13h46.06.666,tripletExp_regina_11082022,2022.2.4,119.41316979982518,
6,0,4,0,0.027777777777778,1.0,0,0.027777777777778,0.298245614035088,0,0.694444444444444,0.298245614035088,ReadingArea_rsl0-rcl2-esl100-rsm0-rcm2-esm29-rsr0-rcr69-esr29,exr/ReadingArea_rsl0-rcl2-esl100-rsm0-rcm2-esm29-rsr0-rcr69-esr29.exr,ReadingArea_rsl0-rcl2-esl100-rsm0-rcm2-esm29-rsr0-rcr69-esr29.npz,,,,,0,109,109,555,,left,green,1.11,1007.9734470844268,1008.4631280899048,,2,8,7,lightness,readingArea,realistic,75,2023-03-29_13h46.06.666,tripletExp_regina_11082022,2022.2.4,119.41316979982518,
4,8,0,0,0.694444444444444,0.298245614035088,0,0.25,1.0,0,0.027777777777778,0.298245614035088,ReadingArea_rsl0-rcl69-esl29-rsm0-rcm25-esm100-rsr0-rcr2-esr29,exr/ReadingArea_rsl0-rcl69-esl29-rsm0-rcm25-esm100-rsr0-rcr2-esr29.exr,ReadingArea_rsl0-rcl69-esl29-rsm0-rcm25-esm100-rsr0-rcr2-esr29.npz,,,,,0,110,110,137,,left,green,0.84,1010.160768032074,1010.6290230751038,,2,8,7,lightness,readingArea,realistic,75,2023-03-29_13h46.06.666,tripletExp_regina_11082022,2022.2.4,119.41316979982518,
10,7,2,0,0.694444444444444,1.0,0,0.111111111111111,1.0,0,0.25,0.298245614035088,ReadingArea_rsl0-rcl69-esl100-rsm0-rcm11-esm100-rsr0-rcr25-esr29,exr/ReadingArea_rsl0-rcl69-esl100-rsm0-rcm11-esm100-rsr0-rcr25-esr29.exr,ReadingArea_rsl0-rcl69-esl100-rsm0-rcm11-esm100-rsr0-rcr25-esr29.npz,,,,,0,111,111,523,,right,red,1.41,1012.3332750797272,1012.8226101398468,,2,8,7,lightness,readingArea,realistic,75,2023-03-29_13h46.06.666,tripletExp_regina_11082022,2022.2.4,119.41316979982518,
11,1,12,0,1.0,1.0,0,0.111111111111111,0.298245614035088,0,0.027777777777778,3.10526315789474,ReadingArea_rsl0-rcl100-esl100-rsm0-rcm11-esm29-rsr0-rcr2-esr310,exr/ReadingArea_rsl0-rcl100-esl100-rsm0-rcm11-esm29-rsr0-rcr2-esr310.exr,ReadingArea_rsl0-rcl100-esl100-rsm0-rcm11-esm29-rsr0-rcr2-esr310.npz,,,,,0,112,112,339,,right,red,0.89,1014.5340781211852,1015.004056930542,,2,8,7,lightness,readingArea,realistic,75,2023-03-29_13h46.06.666,tripletExp_regina_11082022,2022.2.4,119.41316979982518,
4,2,13,0,0.694444444444444,0.298245614035088,0,0.25,0.298245614035088,0,0.111111111111111,3.10526315789474,ReadingArea_rsl0-rcl69-esl29-rsm0-rcm25-esm29-rsr0-rcr11-esr310,exr/ReadingArea_rsl0-rcl69-esl29-rsm0-rcm25-esm29-rsr0-rcr11-esr310.exr,ReadingArea_rsl0-rcl69-esl29-rsm0-rcm25-esm29-rsr0-rcr11-esr310.npz,,,,,0,113,113,304,,left,green,2.94,1018.4795310497284,,,2,8,7,lightness,readingArea,realistic,75,2023-03-29_13h46.06.666,tripletExp_regina_11082022,2022.2.4,119.41316979982518,
12,5,14,0,0.027777777777778,3.10526315789474,0,1.0,0.298245614035088,0,0.25,3.10526315789474,ReadingArea_rsl0-rcl2-esl310-rsm0-rcm100-esm29-rsr0-rcr25-esr310,exr/ReadingArea_rsl0-rcl2-esl310-rsm0-rcm100-esm29-rsr0-rcr25-esr310.exr,ReadingArea_rsl0-rcl2-esl310-rsm0-rcm100-esm29-rsr0-rcr25-esr310.npz,,,,,0,114,114,193,,right,red,3.26,1022.408586025238,1023.0537581443788,,2,8,7,lightness,readingArea,realistic,75,2023-03-29_13h46.06.666,tripletExp_regina_11082022,2022.2.4,119.41316979982518,
2,12,6,0,0.25,0.298245614035088,0,0.027777777777778,3.10526315789474,0,0.027777777777778,1.0,ReadingArea_rsl0-rcl25-esl29-rsm0-rcm2-esm310-rsr0-rcr2-esr100,exr/ReadingArea_rsl0-rcl25-esl29-rsm0-rcm2-esm310-rsr0-rcr2-esr100.exr,ReadingArea_rsl0-rcl25-esl29-rsm0-rcm2-esm310-rsr0-rcr2-esr100.npz,,,,,0,115,115,400,,right,red,1.77,1024.7619559764862,1025.240571975708,,2,8,7,lightness,readingArea,realistic,75,2023-03-29_13h46.06.666,tripletExp_regina_11082022,2022.2.4,119.41316979982518,
7,11,13,0,0.111111111111111,1.0,0,1.0,1.0,0,0.111111111111111,3.10526315789474,ReadingArea_rsl0-rcl11-esl100-rsm0-rcm100-esm100-rsr0-rcr11-esr310,exr/ReadingArea_rsl0-rcl11-esl100-rsm0-rcm100-esm100-rsr0-rcr11-esr310.exr,ReadingArea_rsl0-rcl11-esl100-rsm0-rcm100-esm100-rsr0-rcr11-esr310.npz,,,,,0,116,116,76,,right,red,2.44,1028.7172710895538,1029.3469369411469,,2,8,7,lightness,readingArea,realistic,75,2023-03-29_13h46.06.666,tripletExp_regina_11082022,2022.2.4,119.41316979982518,
13,10,11,0,0.111111111111111,3.10526315789474,0,0.694444444444444,1.0,0,1.0,1.0,ReadingArea_rsl0-rcl11-esl310-rsm0-rcm69-esm100-rsr0-rcr100-esr100,exr/ReadingArea_rsl0-rcl11-esl310-rsm0-rcm69-esm100-rsr0-rcr100-esr100.exr,ReadingArea_rsl0-rcl11-esl310-rsm0-rcm69-esm100-rsr0-rcr100-esr100.npz,,,,,0,117,117,320,,left,green,2.36,1032.833109140396,1033.3646841049194,,2,8,7,lightness,readingArea,realistic,75,2023-03-29_13h46.06.666,tripletExp_regina_11082022,2022.2.4,119.41316979982518,
2,0,13,0,0.25,0.298245614035088,0,0.027777777777778,0.298245614035088,0,0.111111111111111,3.10526315789474,ReadingArea_rsl0-rcl25-esl29-rsm0-rcm2-esm29-rsr0-rcr11-esr310,exr/ReadingArea_rsl0-rcl25-esl29-rsm0-rcm2-esm29-rsr0-rcr11-esr310.exr,ReadingArea_rsl0-rcl25-esl29-rsm0-rcm2-esm29-rsr0-rcr11-esr310.npz,,,,,0,118,118,50,,left,green,2.46,1036.838670015335,1037.316179037094,,2,8,7,lightness,readingArea,realistic,75,2023-03-29_13h46.06.666,tripletExp_regina_11082022,2022.2.4,119.41316979982518,
9,0,14,0,0.444444444444444,1.0,0,0.027777777777778,0.298245614035088,0,0.25,3.10526315789474,ReadingArea_rsl0-rcl44-esl100-rsm0-rcm2-esm29-rsr0-rcr25-esr310,exr/ReadingArea_rsl0-rcl44-esl100-rsm0-rcm2-esm29-rsr0-rcr25-esr310.exr,ReadingArea_rsl0-rcl44-esl100-rsm0-rcm2-esm29-rsr0-rcr25-esr310.npz,,,,,0,119,119,550,,left,green,3.86,1042.5508589744568,1043.218857049942,,2,8,7,lightness,readingArea,realistic,75,2023-03-29_13h46.06.666,tripletExp_regina_11082022,2022.2.4,119.41316979982518,
2,6,10,0,0.25,0.298245614035088,0,0.027777777777778,1.0,0,0.694444444444444,1.0,ReadingArea_rsl0-rcl25-esl29-rsm0-rcm2-esm100-rsr0-rcr69-esr100,exr/ReadingArea_rsl0-rcl25-esl29-rsm0-rcm2-esm100-rsr0-rcr69-esr100.exr,ReadingArea_rsl0-rcl25-esl29-rsm0-rcm2-esm100-rsr0-rcr69-esr100.npz,,,,,0,120,120,42,,left,green,1.62,1044.930515050888,1045.395564079285,,2,8,7,lightness,readingArea,realistic,75,2023-03-29_13h46.06.666,tripletExp_regina_11082022,2022.2.4,119.41316979982518,
3,6,4,0,0.444444444444444,0.298245614035088,0,0.027777777777778,1.0,0,0.694444444444444,0.298245614035088,ReadingArea_rsl0-rcl44-esl29-rsm0-rcm2-esm100-rsr0-rcr69-esr29,exr/ReadingArea_rsl0-rcl44-esl29-rsm0-rcm2-esm100-rsr0-rcr69-esr29.exr,ReadingArea_rsl0-rcl44-esl29-rsm0-rcm2-esm100-rsr0-rcr69-esr29.npz,,,,,0,121,121,154,,left,green,3.19,1048.8740310668943,1049.3843040466309,,2,8,7,lightness,readingArea,realistic,75,2023-03-29_13h46.06.666,tripletExp_regina_11082022,2022.2.4,119.41316979982518,
0,12,7,0,0.027777777777778,0.298245614035088,0,0.027777777777778,3.10526315789474,0,0.111111111111111,1.0,ReadingArea_rsl0-rcl2-esl29-rsm0-rcm2-esm310-rsr0-rcr11-esr100,exr/ReadingArea_rsl0-rcl2-esl29-rsm0-rcm2-esm310-rsr0-rcr11-esr100.exr,ReadingArea_rsl0-rcl2-esl29-rsm0-rcm2-esm310-rsr0-rcr11-esr100.npz,,,,,0,122,122,481,,right,red,1.21,1051.0734040737152,1051.6244311332705,,2,8,7,lightness,readingArea,realistic,75,2023-03-29_13h46.06.666,tripletExp_regina_11082022,2022.2.4,119.41316979982518,
3,9,0,0,0.444444444444444,0.298245614035088,0,0.444444444444444,1.0,0,0.027777777777778,0.298245614035088,ReadingArea_rsl0-rcl44-esl29-rsm0-rcm44-esm100-rsr0-rcr2-esr29,exr/ReadingArea_rsl0-rcl44-esl29-rsm0-rcm44-esm100-rsr0-rcr2-esr29.exr,ReadingArea_rsl0-rcl44-esl29-rsm0-rcm44-esm100-rsr0-rcr2-esr29.npz,,,,,0,123,123,551,,left,green,1.78,1053.3063719272614,1053.7783751487732,,2,8,7,lightness,readingArea,realistic,75,2023-03-29_13h46.06.666,tripletExp_regina_11082022,2022.2.4,119.41316979982518,
10,4,8,0,0.694444444444444,1.0,0,0.694444444444444,0.298245614035088,0,0.25,1.0,ReadingArea_rsl0-rcl69-esl100-rsm0-rcm69-esm29-rsr0-rcr25-esr100,exr/ReadingArea_rsl0-rcl69-esl100-rsm0-rcm69-esm29-rsr0-rcr25-esr100.exr,ReadingArea_rsl0-rcl69-esl100-rsm0-rcm69-esm29-rsr0-rcr25-esr100.npz,,,,,0,124,124,562,,right,red,1.24,1055.503093957901,1055.9717090129852,,2,8,7,lightness,readingArea,realistic,75,2023-03-29_13h46.06.666,tripletExp_regina_11082022,2022.2.4,119.41316979982518,
11,13,1,0,1.0,1.0,0,0.111111111111111,3.10526315789474,0,0.111111111111111,0.298245614035088,ReadingArea_rsl0-rcl100-esl100-rsm0-rcm11-esm310-rsr0-rcr11-esr29,exr/ReadingArea_rsl0-rcl100-esl100-rsm0-rcm11-esm310-rsr0-rcr11-esr29.exr,ReadingArea_rsl0-rcl100-esl100-rsm0-rcm11-esm310-rsr0-rcr11-esr29.npz,,,,,0,125,125,185,,right,red,1.59,1057.669440984726,1058.1515629291534,,2,8,7,lightness,readingArea,realistic,75,2023-03-29_13h46.06.666,tripletExp_regina_11082022,2022.2.4,119.41316979982518,
3,11,14,0,0.444444444444444,0.298245614035088,0,1.0,1.0,0,0.25,3.10526315789474,ReadingArea_rsl0-rcl44-esl29-rsm0-rcm100-esm100-rsr0-rcr25-esr310,exr/ReadingArea_rsl0-rcl44-esl29-rsm0-rcm100-esm100-rsr0-rcr25-esr310.exr,ReadingArea_rsl0-rcl44-esl29-rsm0-rcm100-esm100-rsr0-rcr25-esr310.npz,,,,,0,126,126,570,,right,red,1.24,1059.8647849559784,1060.3123240470886,,2,8,7,lightness,readingArea,realistic,75,2023-03-29_13h46.06.666,tripletExp_regina_11082022,2022.2.4,119.41316979982518,
3,14,4,0,0.444444444444444,0.298245614035088,0,0.25,3.10526315789474,0,0.694444444444444,0.298245614035088,ReadingArea_rsl0-rcl44-esl29-rsm0-rcm25-esm310-rsr0-rcr69-esr29,exr/ReadingArea_rsl0-rcl44-esl29-rsm0-rcm25-esm310-rsr0-rcr69-esr29.exr,ReadingArea_rsl0-rcl44-esl29-rsm0-rcm25-esm310-rsr0-rcr69-esr29.npz,,,,,0,127,127,537,,right,red,3.11,1063.8048169612885,1064.311497926712,,2,8,7,lightness,readingArea,realistic,75,2023-03-29_13h46.06.666,tripletExp_regina_11082022,2022.2.4,119.41316979982518,
14,10,13,0,0.25,3.10526315789474,0,0.694444444444444,1.0,0,0.111111111111111,3.10526315789474,ReadingArea_rsl0-rcl25-esl310-rsm0-rcm69-esm100-rsr0-rcr11-esr310,exr/ReadingArea_rsl0-rcl25-esl310-rsm0-rcm69-esm100-rsr0-rcr11-esr310.exr,ReadingArea_rsl0-rcl25-esl310-rsm0-rcm69-esm100-rsr0-rcr11-esr310.npz,,,,,0,128,128,204,,left,green,1.11,1066.0101571083069,1066.5020840168,,2,8,7,lightness,readingArea,realistic,75,2023-03-29_13h46.06.666,tripletExp_regina_11082022,2022.2.4,119.41316979982518,
1,8,5,0,0.111111111111111,0.298245614035088,0,0.25,1.0,0,1.0,0.298245614035088,ReadingArea_rsl0-rcl11-esl29-rsm0-rcm25-esm100-rsr0-rcr100-esr29,exr/ReadingArea_rsl0-rcl11-esl29-rsm0-rcm25-esm100-rsr0-rcr100-esr29.exr,ReadingArea_rsl0-rcl11-esl29-rsm0-rcm25-esm100-rsr0-rcr100-esr29.npz,,,,,0,129,129,445,,right,red,1.2,1068.2106540203094,1068.7590880393982,,2,8,7,lightness,readingArea,realistic,75,2023-03-29_13h46.06.666,tripletExp_regina_11082022,2022.2.4,119.41316979982518,
6,12,8,0,0.027777777777778,1.0,0,0.027777777777778,3.10526315789474,0,0.25,1.0,ReadingArea_rsl0-rcl2-esl100-rsm0-rcm2-esm310-rsr0-rcr25-esr100,exr/ReadingArea_rsl0-rcl2-esl100-rsm0-rcm2-esm310-rsr0-rcr25-esr100.exr,ReadingArea_rsl0-rcl2-esl100-rsm0-rcm2-esm310-rsr0-rcr25-esr100.npz,,,,,0,130,130,186,,left,green,1.14,1070.4706320762634,1070.937607049942,,2,8,7,lightness,readingArea,realistic,75,2023-03-29_13h46.06.666,tripletExp_regina_11082022,2022.2.4,119.41316979982518,
8,9,1,0,0.25,1.0,0,0.444444444444444,1.0,0,0.111111111111111,0.298245614035088,ReadingArea_rsl0-rcl25-esl100-rsm0-rcm44-esm100-rsr0-rcr11-esr29,exr/ReadingArea_rsl0-rcl25-esl100-rsm0-rcm44-esm100-rsr0-rcr11-esr29.exr,ReadingArea_rsl0-rcl25-esl100-rsm0-rcm44-esm100-rsr0-rcr11-esr29.npz,,,,,0,131,131,266,,left,green,1.23,1072.645735025406,1073.0991790294647,,2,8,7,lightness,readingArea,realistic,75,2023-03-29_13h46.06.666,tripletExp_regina_11082022,2022.2.4,119.41316979982518,
7,14,5,0,0.111111111111111,1.0,0,0.25,3.10526315789474,0,1.0,0.298245614035088,ReadingArea_rsl0-rcl11-esl100-rsm0-rcm25-esm310-rsr0-rcr100-esr29,exr/ReadingArea_rsl0-rcl11-esl100-rsm0-rcm25-esm310-rsr0-rcr100-esr29.exr,ReadingArea_rsl0-rcl11-esl100-rsm0-rcm25-esm310-rsr0-rcr100-esr29.npz,,,,,0,132,132,372,,right,red,0.9,1074.795431137085,1075.272119998932,,2,8,7,lightness,readingArea,realistic,75,2023-03-29_13h46.06.666,tripletExp_regina_11082022,2022.2.4,119.41316979982518,
5,9,10,0,1.0,0.298245614035088,0,0.444444444444444,1.0,0,0.694444444444444,1.0,ReadingArea_rsl0-rcl100-esl29-rsm0-rcm44-esm100-rsr0-rcr69-esr100,exr/ReadingArea_rsl0-rcl100-esl29-rsm0-rcm44-esm100-rsr0-rcr69-esr100.exr,ReadingArea_rsl0-rcl100-esl29-rsm0-rcm44-esm100-rsr0-rcr69-esr100.npz,,,,,0,133,133,322,,left,green,1.22,1076.9775650501251,1077.4541399478912,,2,8,7,lightness,readingArea,realistic,75,2023-03-29_13h46.06.666,tripletExp_regina_11082022,2022.2.4,119.41316979982518,
13,12,5,0,0.111111111111111,3.10526315789474,0,0.027777777777778,3.10526315789474,0,1.0,0.298245614035088,ReadingArea_rsl0-rcl11-esl310-rsm0-rcm2-esm310-rsr0-rcr100-esr29,exr/ReadingArea_rsl0-rcl11-esl310-rsm0-rcm2-esm310-rsr0-rcr100-esr29.exr,ReadingArea_rsl0-rcl11-esl310-rsm0-rcm2-esm310-rsr0-rcr100-esr29.npz,,,,,0,134,134,294,,left,green,4.41,1082.696699142456,1083.1831669807434,,2,8,7,lightness,readingArea,realistic,75,2023-03-29_13h46.06.666,tripletExp_regina_11082022,2022.2.4,119.41316979982518,
11,8,0,0,1.0,1.0,0,0.25,1.0,0,0.027777777777778,0.298245614035088,ReadingArea_rsl0-rcl100-esl100-rsm0-rcm25-esm100-rsr0-rcr2-esr29,exr/ReadingArea_rsl0-rcl100-esl100-rsm0-rcm25-esm100-rsr0-rcr2-esr29.exr,ReadingArea_rsl0-rcl100-esl100-rsm0-rcm25-esm100-rsr0-rcr2-esr29.npz,,,,,0,135,135,81,,left,green,2.01,1086.6363060474396,1087.0958919525146,,2,8,7,lightness,readingArea,realistic,75,2023-03-29_13h46.06.666,tripletExp_regina_11082022,2022.2.4,119.41316979982518,
0,8,7,0,0.027777777777778,0.298245614035088,0,0.25,1.0,0,0.111111111111111,1.0,ReadingArea_rsl0-rcl2-esl29-rsm0-rcm25-esm100-rsr0-rcr11-esr100,exr/ReadingArea_rsl0-rcl2-esl29-rsm0-rcm25-esm100-rsr0-rcr11-esr100.exr,ReadingArea_rsl0-rcl2-esl29-rsm0-rcm25-esm100-rsr0-rcr11-esr100.npz,,,,,0,136,136,9,,right,red,0.85,1088.792993068695,1089.305839061737,,2,8,7,lightness,readingArea,realistic,75,2023-03-29_13h46.06.666,tripletExp_regina_11082022,2022.2.4,119.41316979982518,
14,5,11,0,0.25,3.10526315789474,0,1.0,0.298245614035088,0,1.0,1.0,ReadingArea_rsl0-rcl25-esl310-rsm0-rcm100-esm29-rsr0-rcr100-esr100,exr/ReadingArea_rsl0-rcl25-esl310-rsm0-rcm100-esm29-rsr0-rcr100-esr100.exr,ReadingArea_rsl0-rcl25-esl310-rsm0-rcm100-esm29-rsr0-rcr100-esr100.npz,,,,,0,137,137,161,,right,red,3.23,1092.7932269573212,1093.2747859954834,,2,8,7,lightness,readingArea,realistic,75,2023-03-29_13h46.06.666,tripletExp_regina_11082022,2022.2.4,119.41316979982518,
6,5,13,0,0.027777777777778,1.0,0,1.0,0.298245614035088,0,0.111111111111111,3.10526315789474,ReadingArea_rsl0-rcl2-esl100-rsm0-rcm100-esm29-rsr0-rcr11-esr310,exr/ReadingArea_rsl0-rcl2-esl100-rsm0-rcm100-esm29-rsr0-rcr11-esr310.exr,ReadingArea_rsl0-rcl2-esl100-rsm0-rcm100-esm29-rsr0-rcr11-esr310.npz,,,,,0,138,138,450,,right,red,2.82,1096.7371821403503,1097.241110086441,,2,8,7,lightness,readingArea,realistic,75,2023-03-29_13h46.06.666,tripletExp_regina_11082022,2022.2.4,119.41316979982518,
10,1,6,0,0.694444444444444,1.0,0,0.111111111111111,0.298245614035088,0,0.027777777777778,1.0,ReadingArea_rsl0-rcl69-esl100-rsm0-rcm11-esm29-rsr0-rcr2-esr100,exr/ReadingArea_rsl0-rcl69-esl100-rsm0-rcm11-esm29-rsr0-rcr2-esr100.exr,ReadingArea_rsl0-rcl69-esl100-rsm0-rcm11-esm29-rsr0-rcr2-esr100.npz,,,,,0,139,139,160,,right,red,1.74,1098.938924074173,1099.507574081421,,2,8,7,lightness,readingArea,realistic,75,2023-03-29_13h46.06.666,tripletExp_regina_11082022,2022.2.4,119.41316979982518,
10,9,6,0,0.694444444444444,1.0,0,0.444444444444444,1.0,0,0.027777777777778,1.0,ReadingArea_rsl0-rcl69-esl100-rsm0-rcm44-esm100-rsr0-rcr2-esr100,exr/ReadingArea_rsl0-rcl69-esl100-rsm0-rcm44-esm100-rsr0-rcr2-esr100.exr,ReadingArea_rsl0-rcl69-esl100-rsm0-rcm44-esm100-rsr0-rcr2-esr100.npz,,,,,0,140,140,35,,left,green,3.18,1102.973227977753,1103.4626009464264,,2,8,7,lightness,readingArea,realistic,75,2023-03-29_13h46.06.666,tripletExp_regina_11082022,2022.2.4,119.41316979982518,
14,12,10,0,0.25,3.10526315789474,0,0.027777777777778,3.10526315789474,0,0.694444444444444,1.0,ReadingArea_rsl0-rcl25-esl310-rsm0-rcm2-esm310-rsr0-rcr69-esr100,exr/ReadingArea_rsl0-rcl25-esl310-rsm0-rcm2-esm310-rsr0-rcr69-esr100.exr,ReadingArea_rsl0-rcl25-esl310-rsm0-rcm2-esm310-rsr0-rcr69-esr100.npz,,,,,0,141,141,331,,right,red,3.96,1108.720919132233,1109.1926879882812,,2,8,7,lightness,readingArea,realistic,75,2023-03-29_13h46.06.666,tripletExp_regina_11082022,2022.2.4,119.41316979982518,
0,4,9,0,0.027777777777778,0.298245614035088,0,0.694444444444444,0.298245614035088,0,0.444444444444444,1.0,ReadingArea_rsl0-rcl2-esl29-rsm0-rcm69-esm29-rsr0-rcr44-esr100,exr/ReadingArea_rsl0-rcl2-esl29-rsm0-rcm69-esm29-rsr0-rcr44-esr100.exr,ReadingArea_rsl0-rcl2-esl29-rsm0-rcm69-esm29-rsr0-rcr44-esr100.npz,,,,,0,142,142,21,,right,red,1.12,1110.9151549339294,1111.393695116043,,2,8,7,lightness,readingArea,realistic,75,2023-03-29_13h46.06.666,tripletExp_regina_11082022,2022.2.4,119.41316979982518,
13,10,9,0,0.111111111111111,3.10526315789474,0,0.694444444444444,1.0,0,0.444444444444444,1.0,ReadingArea_rsl0-rcl11-esl310-rsm0-rcm69-esm100-rsr0-rcr44-esr100,exr/ReadingArea_rsl0-rcl11-esl310-rsm0-rcm69-esm100-rsr0-rcr44-esr100.exr,ReadingArea_rsl0-rcl11-esl310-rsm0-rcm69-esm100-rsr0-rcr44-esr100.npz,,,,,0,143,143,330,,right,red,3.48,1114.8522329330444,1115.3364441394806,,2,8,7,lightness,readingArea,realistic,75,2023-03-29_13h46.06.666,tripletExp_regina_11082022,2022.2.4,119.41316979982518,
4,13,1,0,0.694444444444444,0.298245614035088,0,0.111111111111111,3.10526315789474,0,0.111111111111111,0.298245614035088,ReadingArea_rsl0-rcl69-esl29-rsm0-rcm11-esm310-rsr0-rcr11-esr29,exr/ReadingArea_rsl0-rcl69-esl29-rsm0-rcm11-esm310-rsr0-rcr11-esr29.exr,ReadingArea_rsl0-rcl69-esl29-rsm0-rcm11-esm310-rsr0-rcr11-esr29.npz,,,,,0,144,144,192,,left,green,2.16,1118.7843470573423,1119.2556290626526,,2,8,7,lightness,readingArea,realistic,75,2023-03-29_13h46.06.666,tripletExp_regina_11082022,2022.2.4,119.41316979982518,
2,3,13,0,0.25,0.298245614035088,0,0.444444444444444,0.298245614035088,0,0.111111111111111,3.10526315789474,ReadingArea_rsl0-rcl25-esl29-rsm0-rcm44-esm29-rsr0-rcr11-esr310,exr/ReadingArea_rsl0-rcl25-esl29-rsm0-rcm44-esm29-rsr0-rcr11-esr310.exr,ReadingArea_rsl0-rcl25-esl29-rsm0-rcm44-esm29-rsr0-rcr11-esr310.npz,,,,,0,145,145,498,,left,green,1.35,1120.94730591774,1121.421219110489,,2,8,7,lightness,readingArea,realistic,75,2023-03-29_13h46.06.666,tripletExp_regina_11082022,2022.2.4,119.41316979982518,
3,10,4,0,0.444444444444444,0.298245614035088,0,0.694444444444444,1.0,0,0.694444444444444,0.298245614035088,ReadingArea_rsl0-rcl44-esl29-rsm0-rcm69-esm100-rsr0-rcr69-esr29,exr/ReadingArea_rsl0-rcl44-esl29-rsm0-rcm69-esm100-rsr0-rcr69-esr29.exr,ReadingArea_rsl0-rcl44-esl29-rsm0-rcm69-esm100-rsr0-rcr69-esr29.npz,,,,,0,146,146,435,,right,red,2.66,1124.9028301239014,1125.3760211467743,,2,8,7,lightness,readingArea,realistic,75,2023-03-29_13h46.06.666,tripletExp_regina_11082022,2022.2.4,119.41316979982518,
14,8,5,0,0.25,3.10526315789474,0,0.25,1.0,0,1.0,0.298245614035088,ReadingArea_rsl0-rcl25-esl310-rsm0-rcm25-esm100-rsr0-rcr100-esr29,exr/ReadingArea_rsl0-rcl25-esl310-rsm0-rcm25-esm100-rsr0-rcr100-esr29.exr,ReadingArea_rsl0-rcl25-esl310-rsm0-rcm25-esm100-rsr0-rcr100-esr29.npz,,,,,0,147,147,28,,right,red,0.96,1127.0859389305117,1127.5570850372314,,2,8,7,lightness,readingArea,realistic,75,2023-03-29_13h46.06.666,tripletExp_regina_11082022,2022.2.4,119.41316979982518,
10,3,14,0,0.694444444444444,1.0,0,0.444444444444444,0.298245614035088,0,0.25,3.10526315789474,ReadingArea_rsl0-rcl69-esl100-rsm0-rcm44-esm29-rsr0-rcr25-esr310,exr/ReadingArea_rsl0-rcl69-esl100-rsm0-rcm44-esm29-rsr0-rcr25-esr310.exr,ReadingArea_rsl0-rcl69-esl100-rsm0-rcm44-esm29-rsr0-rcr25-esr310.npz,,,,,0,148,148,597,,left,green,4.03,1132.8056271076202,,,2,8,7,lightness,readingArea,realistic,75,2023-03-29_13h46.06.666,tripletExp_regina_11082022,2022.2.4,119.41316979982518,
11,7,13,0,1.0,1.0,0,0.111111111111111,1.0,0,0.111111111111111,3.10526315789474,ReadingArea_rsl0-rcl100-esl100-rsm0-rcm11-esm100-rsr0-rcr11-esr310,exr/ReadingArea_rsl0-rcl100-esl100-rsm0-rcm11-esm100-rsr0-rcr11-esr310.exr,ReadingArea_rsl0-rcl100-esl100-rsm0-rcm11-esm100-rsr0-rcr11-esr310.npz,,,,,0,149,149,431,,right,red,1.23,1135.08526802063,1135.288347005844,,2,8,7,lightness,readingArea,realistic,75,2023-03-29_13h46.06.666,tripletExp_regina_11082022,2022.2.4,119.41316979982518,
8,11,1,0,0.25,1.0,0,1.0,1.0,0,0.111111111111111,0.298245614035088,ReadingArea_rsl0-rcl25-esl100-rsm0-rcm100-esm100-rsr0-rcr11-esr29,exr/ReadingArea_rsl0-rcl25-esl100-rsm0-rcm100-esm100-rsr0-rcr11-esr29.exr,ReadingArea_rsl0-rcl25-esl100-rsm0-rcm100-esm100-rsr0-rcr11-esr29.npz,,,,,0,150,150,132,,left,green,1.37,1138.882532119751,1139.363655090332,,3,8,7,lightness,readingArea,realistic,75,2023-03-29_13h46.06.666,tripletExp_regina_11082022,2022.2.4,119.41316979982518,
14,12,0,0,0.25,3.10526315789474,0,0.027777777777778,3.10526315789474,0,0.027777777777778,0.298245614035088,ReadingArea_rsl0-rcl25-esl310-rsm0-rcm2-esm310-rsr0-rcr2-esr29,exr/ReadingArea_rsl0-rcl25-esl310-rsm0-rcm2-esm310-rsr0-rcr2-esr29.exr,ReadingArea_rsl0-rcl25-esl310-rsm0-rcm2-esm310-rsr0-rcr2-esr29.npz,,,,,0,151,151,409,,right,red,1.15,1141.0646390914917,1141.5426590442655,,3,8,7,lightness,readingArea,realistic,75,2023-03-29_13h46.06.666,tripletExp_regina_11082022,2022.2.4,119.41316979982518,
13,6,2,0,0.111111111111111,3.10526315789474,0,0.027777777777778,1.0,0,0.25,0.298245614035088,ReadingArea_rsl0-rcl11-esl310-rsm0-rcm2-esm100-rsr0-rcr25-esr29,exr/ReadingArea_rsl0-rcl11-esl310-rsm0-rcm2-esm100-rsr0-rcr25-esr29.exr,ReadingArea_rsl0-rcl11-esl310-rsm0-rcm2-esm100-rsr0-rcr25-esr29.npz,,,,,0,152,152,115,,right,red,3.56,1144.988585948944,1145.4692890644071,,3,8,7,lightness,readingArea,realistic,75,2023-03-29_13h46.06.666,tripletExp_regina_11082022,2022.2.4,119.41316979982518,
0,5,1,0,0.027777777777778,0.298245614035088,0,1.0,0.298245614035088,0,0.111111111111111,0.298245614035088,ReadingArea_rsl0-rcl2-esl29-rsm0-rcm100-esm29-rsr0-rcr11-esr29,exr/ReadingArea_rsl0-rcl2-esl29-rsm0-rcm100-esm29-rsr0-rcr11-esr29.exr,ReadingArea_rsl0-rcl2-esl29-rsm0-rcm100-esm29-rsr0-rcr11-esr29.npz,,,,,0,153,153,367,,right,red,3.19,1148.95844912529,,,3,8,7,lightness,readingArea,realistic,75,2023-03-29_13h46.06.666,tripletExp_regina_11082022,2022.2.4,119.41316979982518,
14,7,13,0,0.25,3.10526315789474,0,0.111111111111111,1.0,0,0.111111111111111,3.10526315789474,ReadingArea_rsl0-rcl25-esl310-rsm0-rcm11-esm100-rsr0-rcr11-esr310,exr/ReadingArea_rsl0-rcl25-esl310-rsm0-rcm11-esm100-rsr0-rcr11-esr310.exr,ReadingArea_rsl0-rcl25-esl310-rsm0-rcm11-esm100-rsr0-rcr11-esr310.npz,,,,,0,154,154,358,,right,red,1.29,1151.1535079479218,1151.6311030387878,,3,8,7,lightness,readingArea,realistic,75,2023-03-29_13h46.06.666,tripletExp_regina_11082022,2022.2.4,119.41316979982518,
12,14,8,0,0.027777777777778,3.10526315789474,0,0.25,3.10526315789474,0,0.25,1.0,ReadingArea_rsl0-rcl2-esl310-rsm0-rcm25-esm310-rsr0-rcr25-esr100,exr/ReadingArea_rsl0-rcl2-esl310-rsm0-rcm25-esm310-rsr0-rcr25-esr100.exr,ReadingArea_rsl0-rcl2-esl310-rsm0-rcm25-esm310-rsr0-rcr25-esr100.npz,,,,,0,155,155,466,,right,red,1.73,1153.3299889564514,1153.813528060913,,3,8,7,lightness,readingArea,realistic,75,2023-03-29_13h46.06.666,tripletExp_regina_11082022,2022.2.4,119.41316979982518,
14,13,2,0,0.25,3.10526315789474,0,0.111111111111111,3.10526315789474,0,0.25,0.298245614035088,ReadingArea_rsl0-rcl25-esl310-rsm0-rcm11-esm310-rsr0-rcr25-esr29,exr/ReadingArea_rsl0-rcl25-esl310-rsm0-rcm11-esm310-rsr0-rcr25-esr29.exr,ReadingArea_rsl0-rcl25-esl310-rsm0-rcm11-esm310-rsr0-rcr25-esr29.npz,,,,,0,156,156,377,,right,red,1.12,1155.516142129898,1156.1552801132202,,3,8,7,lightness,readingArea,realistic,75,2023-03-29_13h46.06.666,tripletExp_regina_11082022,2022.2.4,119.41316979982518,
1,13,11,0,0.111111111111111,0.298245614035088,0,0.111111111111111,3.10526315789474,0,1.0,1.0,ReadingArea_rsl0-rcl11-esl29-rsm0-rcm11-esm310-rsr0-rcr100-esr100,exr/ReadingArea_rsl0-rcl11-esl29-rsm0-rcm11-esm310-rsr0-rcr100-esr100.exr,ReadingArea_rsl0-rcl11-esl29-rsm0-rcm11-esm310-rsr0-rcr100-esr100.npz,,,,,0,157,157,333,,left,green,3.36,1159.6291511058807,1160.1195509433746,,3,8,7,lightness,readingArea,realistic,75,2023-03-29_13h46.06.666,tripletExp_regina_11082022,2022.2.4,119.41316979982518,
5,8,2,0,1.0,0.298245614035088,0,0.25,1.0,0,0.25,0.298245614035088,ReadingArea_rsl0-rcl100-esl29-rsm0-rcm25-esm100-rsr0-rcr25-esr29,exr/ReadingArea_rsl0-rcl100-esl29-rsm0-rcm25-esm100-rsr0-rcr25-esr29.exr,ReadingArea_rsl0-rcl100-esl29-rsm0-rcm25-esm100-rsr0-rcr25-esr29.npz,,,,,0,158,158,65,,right,red,1.21,1161.817148923874,1162.2722470760343,,3,8,7,lightness,readingArea,realistic,75,2023-03-29_13h46.06.666,tripletExp_regina_11082022,2022.2.4,119.41316979982518,
11,7,12,0,1.0,1.0,0,0.111111111111111,1.0,0,0.027777777777778,3.10526315789474,ReadingArea_rsl0-rcl100-esl100-rsm0-rcm11-esm100-rsr0-rcr2-esr310,exr/ReadingArea_rsl0-rcl100-esl100-rsm0-rcm11-esm100-rsr0-rcr2-esr310.exr,ReadingArea_rsl0-rcl100-esl100-rsm0-rcm11-esm100-rsr0-rcr2-esr310.npz,,,,,0,159,159,352,,right,red,0.79,1163.9792621135712,1164.4632549285889,,3,8,7,lightness,readingArea,realistic,75,2023-03-29_13h46.06.666,tripletExp_regina_11082022,2022.2.4,119.41316979982518,
13,0,12,0,0.111111111111111,3.10526315789474,0,0.027777777777778,0.298245614035088,0,0.027777777777778,3.10526315789474,ReadingArea_rsl0-rcl11-esl310-rsm0-rcm2-esm29-rsr0-rcr2-esr310,exr/ReadingArea_rsl0-rcl11-esl310-rsm0-rcm2-esm29-rsr0-rcr2-esr310.exr,ReadingArea_rsl0-rcl11-esl310-rsm0-rcm2-esm29-rsr0-rcr2-esr310.npz,,,,,0,160,160,56,,right,red,2.99,1167.9331641197205,1168.4280149936676,,3,8,7,lightness,readingArea,realistic,75,2023-03-29_13h46.06.666,tripletExp_regina_11082022,2022.2.4,119.41316979982518,
14,8,1,0,0.25,3.10526315789474,0,0.25,1.0,0,0.111111111111111,0.298245614035088,ReadingArea_rsl0-rcl25-esl310-rsm0-rcm25-esm100-rsr0-rcr11-esr29,exr/ReadingArea_rsl0-rcl25-esl310-rsm0-rcm25-esm100-rsr0-rcr11-esr29.exr,ReadingArea_rsl0-rcl25-esl310-rsm0-rcm25-esm100-rsr0-rcr11-esr29.npz,,,,,0,161,161,141,,right,red,1.16,1170.1289069652555,,,3,8,7,lightness,readingArea,realistic,75,2023-03-29_13h46.06.666,tripletExp_regina_11082022,2022.2.4,119.41316979982518,
11,5,2,0,1.0,1.0,0,1.0,0.298245614035088,0,0.25,0.298245614035088,ReadingArea_rsl0-rcl100-esl100-rsm0-rcm100-esm29-rsr0-rcr25-esr29,exr/ReadingArea_rsl0-rcl100-esl100-rsm0-rcm100-esm29-rsr0-rcr25-esr29.exr,ReadingArea_rsl0-rcl100-esl100-rsm0-rcm100-esm29-rsr0-rcr25-esr29.npz,,,,,0,162,162,596,,right,red,2.54,1174.0888431072235,1174.5964269638062,,3,8,7,lightness,readingArea,realistic,75,2023-03-29_13h46.06.666,tripletExp_regina_11082022,2022.2.4,119.41316979982518,
13,8,0,0,0.111111111111111,3.10526315789474,0,0.25,1.0,0,0.027777777777778,0.298245614035088,ReadingArea_rsl0-rcl11-esl310-rsm0-rcm25-esm100-rsr0-rcr2-esr29,exr/ReadingArea_rsl0-rcl11-esl310-rsm0-rcm25-esm100-rsr0-rcr2-esr29.exr,ReadingArea_rsl0-rcl11-esl310-rsm0-rcm25-esm100-rsr0-rcr2-esr29.npz,,,,,0,163,163,429,,left,green,1.15,1176.2914440631866,1176.7704849243164,,3,8,7,lightness,readingArea,realistic,75,2023-03-29_13h46.06.666,tripletExp_regina_11082022,2022.2.4,119.41316979982518,
5,9,0,0,1.0,0.298245614035088,0,0.444444444444444,1.0,0,0.027777777777778,0.298245614035088,ReadingArea_rsl0-rcl100-esl29-rsm0-rcm44-esm100-rsr0-rcr2-esr29,exr/ReadingArea_rsl0-rcl100-esl29-rsm0-rcm44-esm100-rsr0-rcr2-esr29.exr,ReadingArea_rsl0-rcl100-esl29-rsm0-rcm44-esm100-rsr0-rcr2-esr29.npz,,,,,0,164,164,575,,left,green,0.84,1178.461662054062,1178.945266008377,,3,8,7,lightness,readingArea,realistic,75,2023-03-29_13h46.06.666,tripletExp_regina_11082022,2022.2.4,119.41316979982518,
12,6,14,0,0.027777777777778,3.10526315789474,0,0.027777777777778,1.0,0,0.25,3.10526315789474,ReadingArea_rsl0-rcl2-esl310-rsm0-rcm2-esm100-rsr0-rcr25-esr310,exr/ReadingArea_rsl0-rcl2-esl310-rsm0-rcm2-esm100-rsr0-rcr25-esr310.exr,ReadingArea_rsl0-rcl2-esl310-rsm0-rcm2-esm100-rsr0-rcr25-esr310.npz,,,,,0,165,165,218,,left,green,1.19,1180.6511659622192,1181.1435210704803,,3,8,7,lightness,readingArea,realistic,75,2023-03-29_13h46.06.666,tripletExp_regina_11082022,2022.2.4,119.41316979982518,
11,5,1,0,1.0,1.0,0,1.0,0.298245614035088,0,0.111111111111111,0.298245614035088,ReadingArea_rsl0-rcl100-esl100-rsm0-rcm100-esm29-rsr0-rcr11-esr29,exr/ReadingArea_rsl0-rcl100-esl100-rsm0-rcm100-esm29-rsr0-rcr11-esr29.exr,ReadingArea_rsl0-rcl100-esl100-rsm0-rcm100-esm29-rsr0-rcr11-esr29.npz,,,,,0,166,166,48,,right,red,3.03,1184.609600067139,1185.0842599868774,,3,8,7,lightness,readingArea,realistic,75,2023-03-29_13h46.06.666,tripletExp_regina_11082022,2022.2.4,119.41316979982518,
12,9,13,0,0.027777777777778,3.10526315789474,0,0.444444444444444,1.0,0,0.111111111111111,3.10526315789474,ReadingArea_rsl0-rcl2-esl310-rsm0-rcm44-esm100-rsr0-rcr11-esr310,exr/ReadingArea_rsl0-rcl2-esl310-rsm0-rcm44-esm100-rsr0-rcr11-esr310.exr,ReadingArea_rsl0-rcl2-esl310-rsm0-rcm44-esm100-rsr0-rcr11-esr310.npz,,,,,0,167,167,529,,right,red,1.31,1186.788183927536,1187.2805280685425,,3,8,7,lightness,readingArea,realistic,75,2023-03-29_13h46.06.666,tripletExp_regina_11082022,2022.2.4,119.41316979982518,
10,6,8,0,0.694444444444444,1.0,0,0.027777777777778,1.0,0,0.25,1.0,ReadingArea_rsl0-rcl69-esl100-rsm0-rcm2-esm100-rsr0-rcr25-esr100,exr/ReadingArea_rsl0-rcl69-esl100-rsm0-rcm2-esm100-rsr0-rcr25-esr100.exr,ReadingArea_rsl0-rcl69-esl100-rsm0-rcm2-esm100-rsr0-rcr25-esr100.npz,,,,,0,168,168,145,,right,red,1.44,1188.980919122696,1189.4601891040802,,3,8,7,lightness,readingArea,realistic,75,2023-03-29_13h46.06.666,tripletExp_regina_11082022,2022.2.4,119.41316979982518,
14,7,8,0,0.25,3.10526315789474,0,0.111111111111111,1.0,0,0.25,1.0,ReadingArea_rsl0-rcl25-esl310-rsm0-rcm11-esm100-rsr0-rcr25-esr100,exr/ReadingArea_rsl0-rcl25-esl310-rsm0-rcm11-esm100-rsr0-rcr25-esr100.exr,ReadingArea_rsl0-rcl25-esl310-rsm0-rcm11-esm100-rsr0-rcr25-esr100.npz,,,,,0,169,169,326,,right,red,1.38,1191.1705241203308,1191.6607429981232,,3,8,7,lightness,readingArea,realistic,75,2023-03-29_13h46.06.666,tripletExp_regina_11082022,2022.2.4,119.41316979982518,
9,12,11,0,0.444444444444444,1.0,0,0.027777777777778,3.10526315789474,0,1.0,1.0,ReadingArea_rsl0-rcl44-esl100-rsm0-rcm2-esm310-rsr0-rcr100-esr100,exr/ReadingArea_rsl0-rcl44-esl100-rsm0-rcm2-esm310-rsr0-rcr100-esr100.exr,ReadingArea_rsl0-rcl44-esl100-rsm0-rcm2-esm310-rsr0-rcr100-esr100.npz,,,,,0,170,170,144,,left,green,2.52,1195.114599943161,1195.5946829319,,3,8,7,lightness,readingArea,realistic,75,2023-03-29_13h46.06.666,tripletExp_regina_11082022,2022.2.4,119.41316979982518,
1,9,11,0,0.111111111111111,0.298245614035088,0,0.444444444444444,1.0,0,1.0,1.0,ReadingArea_rsl0-rcl11-esl29-rsm0-rcm44-esm100-rsr0-rcr100-esr100,exr/ReadingArea_rsl0-rcl11-esl29-rsm0-rcm44-esm100-rsr0-rcr100-esr100.exr,ReadingArea_rsl0-rcl11-esl29-rsm0-rcm44-esm100-rsr0-rcr100-esr100.npz,,,,,0,171,171,215,,right,red,2.91,1199.0586709976196,,,3,8,7,lightness,readingArea,realistic,75,2023-03-29_13h46.06.666,tripletExp_regina_11082022,2022.2.4,119.41316979982518,
9,0,11,0,0.444444444444444,1.0,0,0.027777777777778,0.298245614035088,0,1.0,1.0,ReadingArea_rsl0-rcl44-esl100-rsm0-rcm2-esm29-rsr0-rcr100-esr100,exr/ReadingArea_rsl0-rcl44-esl100-rsm0-rcm2-esm29-rsr0-rcr100-esr100.exr,ReadingArea_rsl0-rcl44-esl100-rsm0-rcm2-esm29-rsr0-rcr100-esr100.npz,,,,,0,172,172,319,,left,green,1.23,1201.2485311031342,1201.7662560939789,,3,8,7,lightness,readingArea,realistic,75,2023-03-29_13h46.06.666,tripletExp_regina_11082022,2022.2.4,119.41316979982518,
2,9,8,0,0.25,0.298245614035088,0,0.444444444444444,1.0,0,0.25,1.0,ReadingArea_rsl0-rcl25-esl29-rsm0-rcm44-esm100-rsr0-rcr25-esr100,exr/ReadingArea_rsl0-rcl25-esl29-rsm0-rcm44-esm100-rsr0-rcr25-esr100.exr,ReadingArea_rsl0-rcl25-esl29-rsm0-rcm44-esm100-rsr0-rcr25-esr100.npz,,,,,0,173,173,407,,right,red,1.1,1203.4667420387268,,,3,8,7,lightness,readingArea,realistic,75,2023-03-29_13h46.06.666,tripletExp_regina_11082022,2022.2.4,119.41316979982518,
14,9,12,0,0.25,3.10526315789474,0,0.444444444444444,1.0,0,0.027777777777778,3.10526315789474,ReadingArea_rsl0-rcl25-esl310-rsm0-rcm44-esm100-rsr0-rcr2-esr310,exr/ReadingArea_rsl0-rcl25-esl310-rsm0-rcm44-esm100-rsr0-rcr2-esr310.exr,ReadingArea_rsl0-rcl25-esl310-rsm0-rcm44-esm100-rsr0-rcr2-esr310.npz,,,,,0,174,174,378,,left,green,4.19,1209.2000601291656,1209.6789240837095,,3,8,7,lightness,readingArea,realistic,75,2023-03-29_13h46.06.666,tripletExp_regina_11082022,2022.2.4,119.41316979982518,
12,6,9,0,0.027777777777778,3.10526315789474,0,0.027777777777778,1.0,0,0.444444444444444,1.0,ReadingArea_rsl0-rcl2-esl310-rsm0-rcm2-esm100-rsr0-rcr44-esr100,exr/ReadingArea_rsl0-rcl2-esl310-rsm0-rcm2-esm100-rsr0-rcr44-esr100.exr,ReadingArea_rsl0-rcl2-esl310-rsm0-rcm2-esm100-rsr0-rcr44-esr100.npz,,,,,0,175,175,177,,left,green,0.93,1211.382847070694,1211.8350751399994,,3,8,7,lightness,readingArea,realistic,75,2023-03-29_13h46.06.666,tripletExp_regina_11082022,2022.2.4,119.41316979982518,
0,13,12,0,0.027777777777778,0.298245614035088,0,0.111111111111111,3.10526315789474,0,0.027777777777778,3.10526315789474,ReadingArea_rsl0-rcl2-esl29-rsm0-rcm11-esm310-rsr0-rcr2-esr310,exr/ReadingArea_rsl0-rcl2-esl29-rsm0-rcm11-esm310-rsr0-rcr2-esr310.exr,ReadingArea_rsl0-rcl2-esl29-rsm0-rcm11-esm310-rsr0-rcr2-esr310.npz,,,,,0,176,176,501,,right,red,1.51,1213.5432300567627,1214.049232006073,,3,8,7,lightness,readingArea,realistic,75,2023-03-29_13h46.06.666,tripletExp_regina_11082022,2022.2.4,119.41316979982518,
6,5,0,0,0.027777777777778,1.0,0,1.0,0.298245614035088,0,0.027777777777778,0.298245614035088,ReadingArea_rsl0-rcl2-esl100-rsm0-rcm100-esm29-rsr0-rcr2-esr29,exr/ReadingArea_rsl0-rcl2-esl100-rsm0-rcm100-esm29-rsr0-rcr2-esr29.exr,ReadingArea_rsl0-rcl2-esl100-rsm0-rcm100-esm29-rsr0-rcr2-esr29.npz,,,,,0,177,177,558,,left,green,3.03,1217.5095620155334,1217.9869000911713,,3,8,7,lightness,readingArea,realistic,75,2023-03-29_13h46.06.666,tripletExp_regina_11082022,2022.2.4,119.41316979982518,
14,0,9,0,0.25,3.10526315789474,0,0.027777777777778,0.298245614035088,0,0.444444444444444,1.0,ReadingArea_rsl0-rcl25-esl310-rsm0-rcm2-esm29-rsr0-rcr44-esr100,exr/ReadingArea_rsl0-rcl25-esl310-rsm0-rcm2-esm29-rsr0-rcr44-esr100.exr,ReadingArea_rsl0-rcl25-esl310-rsm0-rcm2-esm29-rsr0-rcr44-esr100.npz,,,,,0,178,178,90,,right,red,1.61,1219.6866641044617,,,3,8,7,lightness,readingArea,realistic,75,2023-03-29_13h46.06.666,tripletExp_regina_11082022,2022.2.4,119.41316979982518,
9,6,11,0,0.444444444444444,1.0,0,0.027777777777778,1.0,0,1.0,1.0,ReadingArea_rsl0-rcl44-esl100-rsm0-rcm2-esm100-rsr0-rcr100-esr100,exr/ReadingArea_rsl0-rcl44-esl100-rsm0-rcm2-esm100-rsr0-rcr100-esr100.exr,ReadingArea_rsl0-rcl44-esl100-rsm0-rcm2-esm100-rsr0-rcr100-esr100.npz,,,,,0,179,179,572,,left,green,1.34,1221.8710010051727,1222.35684800148,,3,8,7,lightness,readingArea,realistic,75,2023-03-29_13h46.06.666,tripletExp_regina_11082022,2022.2.4,119.41316979982518,
13,6,8,0,0.111111111111111,3.10526315789474,0,0.027777777777778,1.0,0,0.25,1.0,ReadingArea_rsl0-rcl11-esl310-rsm0-rcm2-esm100-rsr0-rcr25-esr100,exr/ReadingArea_rsl0-rcl11-esl310-rsm0-rcm2-esm100-rsr0-rcr25-esr100.exr,ReadingArea_rsl0-rcl11-esl310-rsm0-rcm2-esm100-rsr0-rcr25-esr100.npz,,,,,0,180,180,340,,right,red,2.77,1225.8312101364136,1226.3262350559237,,3,8,7,lightness,readingArea,realistic,75,2023-03-29_13h46.06.666,tripletExp_regina_11082022,2022.2.4,119.41316979982518,
9,11,6,0,0.444444444444444,1.0,0,1.0,1.0,0,0.027777777777778,1.0,ReadingArea_rsl0-rcl44-esl100-rsm0-rcm100-esm100-rsr0-rcr2-esr100,exr/ReadingArea_rsl0-rcl44-esl100-rsm0-rcm100-esm100-rsr0-rcr2-esr100.exr,ReadingArea_rsl0-rcl44-esl100-rsm0-rcm100-esm100-rsr0-rcr2-esr100.npz,,,,,0,181,181,404,,left,green,1.04,1228.033674955368,1228.4825830459597,,3,8,7,lightness,readingArea,realistic,75,2023-03-29_13h46.06.666,tripletExp_regina_11082022,2022.2.4,119.41316979982518,
13,6,12,0,0.111111111111111,3.10526315789474,0,0.027777777777778,1.0,0,0.027777777777778,3.10526315789474,ReadingArea_rsl0-rcl11-esl310-rsm0-rcm2-esm100-rsr0-rcr2-esr310,exr/ReadingArea_rsl0-rcl11-esl310-rsm0-rcm2-esm100-rsr0-rcr2-esr310.exr,ReadingArea_rsl0-rcl11-esl310-rsm0-rcm2-esm100-rsr0-rcr2-esr310.npz,,,,,0,182,182,147,,right,red,2.52,1231.9711389541626,1232.4464099407196,,3,8,7,lightness,readingArea,realistic,75,2023-03-29_13h46.06.666,tripletExp_regina_11082022,2022.2.4,119.41316979982518,
9,0,6,0,0.444444444444444,1.0,0,0.027777777777778,0.298245614035088,0,0.027777777777778,1.0,ReadingArea_rsl0-rcl44-esl100-rsm0-rcm2-esm29-rsr0-rcr2-esr100,exr/ReadingArea_rsl0-rcl44-esl100-rsm0-rcm2-esm29-rsr0-rcr2-esr100.exr,ReadingArea_rsl0-rcl44-esl100-rsm0-rcm2-esm29-rsr0-rcr2-esr100.npz,,,,,0,183,183,362,,right,red,0.95,1234.1531360149384,1234.621761083603,,3,8,7,lightness,readingArea,realistic,75,2023-03-29_13h46.06.666,tripletExp_regina_11082022,2022.2.4,119.41316979982518,
14,8,3,0,0.25,3.10526315789474,0,0.25,1.0,0,0.444444444444444,0.298245614035088,ReadingArea_rsl0-rcl25-esl310-rsm0-rcm25-esm100-rsr0-rcr44-esr29,exr/ReadingArea_rsl0-rcl25-esl310-rsm0-rcm25-esm100-rsr0-rcr44-esr29.exr,ReadingArea_rsl0-rcl25-esl310-rsm0-rcm25-esm100-rsr0-rcr44-esr29.npz,,,,,0,184,184,100,,right,red,0.84,1236.3145809173584,1236.773376941681,,3,8,7,lightness,readingArea,realistic,75,2023-03-29_13h46.06.666,tripletExp_regina_11082022,2022.2.4,119.41316979982518,
5,1,4,0,1.0,0.298245614035088,0,0.111111111111111,0.298245614035088,0,0.694444444444444,0.298245614035088,ReadingArea_rsl0-rcl100-esl29-rsm0-rcm11-esm29-rsr0-rcr69-esr29,exr/ReadingArea_rsl0-rcl100-esl29-rsm0-rcm11-esm29-rsr0-rcr69-esr29.exr,ReadingArea_rsl0-rcl100-esl29-rsm0-rcm11-esm29-rsr0-rcr69-esr29.npz,,,,,0,185,185,287,,right,red,3.06,1240.2606649398804,1240.748253107071,,3,8,7,lightness,readingArea,realistic,75,2023-03-29_13h46.06.666,tripletExp_regina_11082022,2022.2.4,119.41316979982518,
8,6,5,0,0.25,1.0,0,0.027777777777778,1.0,0,1.0,0.298245614035088,ReadingArea_rsl0-rcl25-esl100-rsm0-rcm2-esm100-rsr0-rcr100-esr29,exr/ReadingArea_rsl0-rcl25-esl100-rsm0-rcm2-esm100-rsr0-rcr100-esr29.exr,ReadingArea_rsl0-rcl25-esl100-rsm0-rcm2-esm100-rsr0-rcr100-esr29.npz,,,,,0,186,186,241,,left,green,3.17,1244.2218689918518,1244.710953950882,,3,8,7,lightness,readingArea,realistic,75,2023-03-29_13h46.06.666,tripletExp_regina_11082022,2022.2.4,119.41316979982518,
6,13,0,0,0.027777777777778,1.0,0,0.111111111111111,3.10526315789474,0,0.027777777777778,0.298245614035088,ReadingArea_rsl0-rcl2-esl100-rsm0-rcm11-esm310-rsr0-rcr2-esr29,exr/ReadingArea_rsl0-rcl2-esl100-rsm0-rcm11-esm310-rsr0-rcr2-esr29.exr,ReadingArea_rsl0-rcl2-esl100-rsm0-rcm11-esm310-rsr0-rcr2-esr29.npz,,,,,0,187,187,580,,left,green,3.67,1249.9721629619598,1250.4816751480105,,3,8,7,lightness,readingArea,realistic,75,2023-03-29_13h46.06.666,tripletExp_regina_11082022,2022.2.4,119.41316979982518,
11,13,8,0,1.0,1.0,0,0.111111111111111,3.10526315789474,0,0.25,1.0,ReadingArea_rsl0-rcl100-esl100-rsm0-rcm11-esm310-rsr0-rcr25-esr100,exr/ReadingArea_rsl0-rcl100-esl100-rsm0-rcm11-esm310-rsr0-rcr25-esr100.exr,ReadingArea_rsl0-rcl100-esl100-rsm0-rcm11-esm310-rsr0-rcr25-esr100.npz,,,,,0,188,188,198,,right,red,0.93,1252.1798899173737,1252.665589094162,,3,8,7,lightness,readingArea,realistic,75,2023-03-29_13h46.06.666,tripletExp_regina_11082022,2022.2.4,119.41316979982518,
3,2,11,0,0.444444444444444,0.298245614035088,0,0.25,0.298245614035088,0,1.0,1.0,ReadingArea_rsl0-rcl44-esl29-rsm0-rcm25-esm29-rsr0-rcr100-esr100,exr/ReadingArea_rsl0-rcl44-esl29-rsm0-rcm25-esm29-rsr0-rcr100-esr100.exr,ReadingArea_rsl0-rcl44-esl29-rsm0-rcm25-esm29-rsr0-rcr100-esr100.npz,,,,,0,189,189,257,,left,green,0.82,1254.3694961071014,1254.940053939819,,3,8,7,lightness,readingArea,realistic,75,2023-03-29_13h46.06.666,tripletExp_regina_11082022,2022.2.4,119.41316979982518,
11,0,12,0,1.0,1.0,0,0.027777777777778,0.298245614035088,0,0.027777777777778,3.10526315789474,ReadingArea_rsl0-rcl100-esl100-rsm0-rcm2-esm29-rsr0-rcr2-esr310,exr/ReadingArea_rsl0-rcl100-esl100-rsm0-rcm2-esm29-rsr0-rcr2-esr310.exr,ReadingArea_rsl0-rcl100-esl100-rsm0-rcm2-esm29-rsr0-rcr2-esr310.npz,,,,,0,190,190,166,,right,red,1.02,1256.6389729976654,1257.1231360435486,,3,8,7,lightness,readingArea,realistic,75,2023-03-29_13h46.06.666,tripletExp_regina_11082022,2022.2.4,119.41316979982518,
5,2,8,0,1.0,0.298245614035088,0,0.25,0.298245614035088,0,0.25,1.0,ReadingArea_rsl0-rcl100-esl29-rsm0-rcm25-esm29-rsr0-rcr25-esr100,exr/ReadingArea_rsl0-rcl100-esl29-rsm0-rcm25-esm29-rsr0-rcr25-esr100.exr,ReadingArea_rsl0-rcl100-esl29-rsm0-rcm25-esm29-rsr0-rcr25-esr100.npz,,,,,0,191,191,538,,right,red,2.81,1260.591381072998,1261.2561039924622,,3,8,7,lightness,readingArea,realistic,75,2023-03-29_13h46.06.666,tripletExp_regina_11082022,2022.2.4,119.41316979982518,
11,12,10,0,1.0,1.0,0,0.027777777777778,3.10526315789474,0,0.694444444444444,1.0,ReadingArea_rsl0-rcl100-esl100-rsm0-rcm2-esm310-rsr0-rcr69-esr100,exr/ReadingArea_rsl0-rcl100-esl100-rsm0-rcm2-esm310-rsr0-rcr69-esr100.exr,ReadingArea_rsl0-rcl100-esl100-rsm0-rcm2-esm310-rsr0-rcr69-esr100.npz,,,,,0,192,192,465,,right,red,1.56,1262.9730200767517,1263.460921049118,,3,8,7,lightness,readingArea,realistic,75,2023-03-29_13h46.06.666,tripletExp_regina_11082022,2022.2.4,119.41316979982518,
14,11,0,0,0.25,3.10526315789474,0,1.0,1.0,0,0.027777777777778,0.298245614035088,ReadingArea_rsl0-rcl25-esl310-rsm0-rcm100-esm100-rsr0-rcr2-esr29,exr/ReadingArea_rsl0-rcl25-esl310-rsm0-rcm100-esm100-rsr0-rcr2-esr29.exr,ReadingArea_rsl0-rcl25-esl310-rsm0-rcm100-esm100-rsr0-rcr2-esr29.npz,,,,,0,193,193,227,,left,green,0.89,1265.159852027893,,,3,8,7,lightness,readingArea,realistic,75,2023-03-29_13h46.06.666,tripletExp_regina_11082022,2022.2.4,119.41316979982518,
13,4,7,0,0.111111111111111,3.10526315789474,0,0.694444444444444,0.298245614035088,0,0.111111111111111,1.0,ReadingArea_rsl0-rcl11-esl310-rsm0-rcm69-esm29-rsr0-rcr11-esr100,exr/ReadingArea_rsl0-rcl11-esl310-rsm0-rcm69-esm29-rsr0-rcr11-esr100.exr,ReadingArea_rsl0-rcl11-esl310-rsm0-rcm69-esm29-rsr0-rcr11-esr100.npz,,,,,0,194,194,282,,right,red,0.8,1267.3285710811615,1267.8182809352877,,3,8,7,lightness,readingArea,realistic,75,2023-03-29_13h46.06.666,tripletExp_regina_11082022,2022.2.4,119.41316979982518,
9,6,1,0,0.444444444444444,1.0,0,0.027777777777778,1.0,0,0.111111111111111,0.298245614035088,ReadingArea_rsl0-rcl44-esl100-rsm0-rcm2-esm100-rsr0-rcr11-esr29,exr/ReadingArea_rsl0-rcl44-esl100-rsm0-rcm2-esm100-rsr0-rcr11-esr29.exr,ReadingArea_rsl0-rcl44-esl100-rsm0-rcm2-esm100-rsr0-rcr11-esr29.npz,,,,,0,195,195,526,,right,red,0.79,1269.5203671455383,1269.998136997223,,3,8,7,lightness,readingArea,realistic,75,2023-03-29_13h46.06.666,tripletExp_regina_11082022,2022.2.4,119.41316979982518,
5,2,14,0,1.0,0.298245614035088,0,0.25,0.298245614035088,0,0.25,3.10526315789474,ReadingArea_rsl0-rcl100-esl29-rsm0-rcm25-esm29-rsr0-rcr25-esr310,exr/ReadingArea_rsl0-rcl100-esl29-rsm0-rcm25-esm29-rsr0-rcr25-esr310.exr,ReadingArea_rsl0-rcl100-esl29-rsm0-rcm25-esm29-rsr0-rcr25-esr310.npz,,,,,0,196,196,462,,left,green,2.32,1273.46586894989,1273.964210987091,,3,8,7,lightness,readingArea,realistic,75,2023-03-29_13h46.06.666,tripletExp_regina_11082022,2022.2.4,119.41316979982518,
0,7,13,0,0.027777777777778,0.298245614035088,0,0.111111111111111,1.0,0,0.111111111111111,3.10526315789474,ReadingArea_rsl0-rcl2-esl29-rsm0-rcm11-esm100-rsr0-rcr11-esr310,exr/ReadingArea_rsl0-rcl2-esl29-rsm0-rcm11-esm100-rsr0-rcr11-esr310.exr,ReadingArea_rsl0-rcl2-esl29-rsm0-rcm11-esm100-rsr0-rcr11-esr310.npz,,,,,0,197,197,159,,right,red,0.9,1275.6649560928345,1276.1229560375214,,3,8,7,lightness,readingArea,realistic,75,2023-03-29_13h46.06.666,tripletExp_regina_11082022,2022.2.4,119.41316979982518,
8,0,6,0,0.25,1.0,0,0.027777777777778,0.298245614035088,0,0.027777777777778,1.0,ReadingArea_rsl0-rcl25-esl100-rsm0-rcm2-esm29-rsr0-rcr2-esr100,exr/ReadingArea_rsl0-rcl25-esl100-rsm0-rcm2-esm29-rsr0-rcr2-esr100.exr,ReadingArea_rsl0-rcl25-esl100-rsm0-rcm2-esm29-rsr0-rcr2-esr100.npz,,,,,0,198,198,401,,right,red,0.82,1277.8266661167145,1278.346319913864,,3,8,7,lightness,readingArea,realistic,75,2023-03-29_13h46.06.666,tripletExp_regina_11082022,2022.2.4,119.41316979982518,
7,8,11,0,0.111111111111111,1.0,0,0.25,1.0,0,1.0,1.0,ReadingArea_rsl0-rcl11-esl100-rsm0-rcm25-esm100-rsr0-rcr100-esr100,exr/ReadingArea_rsl0-rcl11-esl100-rsm0-rcm25-esm100-rsr0-rcr100-esr100.exr,ReadingArea_rsl0-rcl11-esl100-rsm0-rcm25-esm100-rsr0-rcr100-esr100.npz,,,,,0,199,199,363,,left,green,0.92,1280.0480360984802,1280.5264999866486,,3,8,7,lightness,readingArea,realistic,75,2023-03-29_13h46.06.666,tripletExp_regina_11082022,2022.2.4,119.41316979982518,
5,3,4,0,1.0,0.298245614035088,0,0.444444444444444,0.298245614035088,0,0.694444444444444,0.298245614035088,ReadingArea_rsl0-rcl100-esl29-rsm0-rcm44-esm29-rsr0-rcr69-esr29,exr/ReadingArea_rsl0-rcl100-esl29-rsm0-rcm44-esm29-rsr0-rcr69-esr29.exr,ReadingArea_rsl0-rcl100-esl29-rsm0-rcm44-esm29-rsr0-rcr69-esr29.npz,,,,,0,200,200,201,,right,red,1.07,1282.2228000164032,1282.7049441337583,,3,8,7,lightness,readingArea,realistic,75,2023-03-29_13h46.06.666,tripletExp_regina_11082022,2022.2.4,119.41316979982518,
10,3,1,0,0.694444444444444,1.0,0,0.444444444444444,0.298245614035088,0,0.111111111111111,0.298245614035088,ReadingArea_rsl0-rcl69-esl100-rsm0-rcm44-esm29-rsr0-rcr11-esr29,exr/ReadingArea_rsl0-rcl69-esl100-rsm0-rcm44-esm29-rsr0-rcr11-esr29.exr,ReadingArea_rsl0-rcl69-esl100-rsm0-rcm44-esm29-rsr0-rcr11-esr29.npz,,,,,0,201,201,420,,right,red,2.24,1286.1892449855804,1286.6823570728302,,3,8,7,lightness,readingArea,realistic,75,2023-03-29_13h46.06.666,tripletExp_regina_11082022,2022.2.4,119.41316979982518,
7,12,2,0,0.111111111111111,1.0,0,0.027777777777778,3.10526315789474,0,0.25,0.298245614035088,ReadingArea_rsl0-rcl11-esl100-rsm0-rcm2-esm310-rsr0-rcr25-esr29,exr/ReadingArea_rsl0-rcl11-esl100-rsm0-rcm2-esm310-rsr0-rcr25-esr29.exr,ReadingArea_rsl0-rcl11-esl100-rsm0-rcm2-esm310-rsr0-rcr25-esr29.npz,,,,,0,202,202,72,,right,red,2.92,1290.1545350551603,1290.5791239738464,,3,8,7,lightness,readingArea,realistic,75,2023-03-29_13h46.06.666,tripletExp_regina_11082022,2022.2.4,119.41316979982518,
8,6,0,0,0.25,1.0,0,0.027777777777778,1.0,0,0.027777777777778,0.298245614035088,ReadingArea_rsl0-rcl25-esl100-rsm0-rcm2-esm100-rsr0-rcr2-esr29,exr/ReadingArea_rsl0-rcl25-esl100-rsm0-rcm2-esm100-rsr0-rcr2-esr29.exr,ReadingArea_rsl0-rcl25-esl100-rsm0-rcm2-esm100-rsr0-rcr2-esr29.npz,,,,,0,203,203,187,,right,red,1.46,1292.2793979644775,1292.791011095047,,3,8,7,lightness,readingArea,realistic,75,2023-03-29_13h46.06.666,tripletExp_regina_11082022,2022.2.4,119.41316979982518,
