index_left,index_middle,index_right,reflectance_surround_left,reflectance_center_left,emission_spot_left,reflectance_surround_middle,reflectance_center_middle,emission_spot_middle,reflectance_surround_right,reflectance_center_right,emission_spot_right,ImageName,ImageExr,ImageNpy,trials_2.thisRepN,trials_2.thisTrialN,trials_2.thisN,trials_2.thisIndex,trials.thisRepN,trials.thisTrialN,trials.thisN,trials.thisIndex,sound_1.started,BB_Trial.resp,BB_Trial.color,BB_Trial.rt,text.started,text.stopped,block,sound_4.started,participant,session,L/B,scene,condition,nTrialsPerBlock,date,expName,psychopyVersion,frameRate,Unnamed: 41
6,0,11,0,0.027777777777778,1.0,0,0.027777777777778,0.298245614035088,0,1.0,1.0,ReadingArea_rsl0-rcl2-esl100-rsm0-rcm2-esm29-rsr0-rcr100-esr100,exr/ReadingArea_rsl0-rcl2-esl100-rsm0-rcm2-esm29-rsr0-rcr100-esr100.exr,ReadingArea_rsl0-rcl2-esl100-rsm0-rcm2-esm29-rsr0-rcr100-esr100.npz,,,,,0,0,0,245,255.0984144210816,left,green,0.87,264.9492847919464,265.4168128967285,1,,4,3,brightness,readingArea,realistic,75,2023-03-22_13h19.33.647,tripletExp_regina_11082022,2022.2.4,119.99599470156237,
8,14,3,0,0.25,1.0,0,0.25,3.10526315789474,0,0.444444444444444,0.298245614035088,ReadingArea_rsl0-rcl25-esl100-rsm0-rcm25-esm310-rsr0-rcr44-esr29,exr/ReadingArea_rsl0-rcl25-esl100-rsm0-rcm25-esm310-rsr0-rcr44-esr29.exr,ReadingArea_rsl0-rcl25-esl100-rsm0-rcm25-esm310-rsr0-rcr44-esr29.npz,,,,,0,1,1,503,,left,green,3.12,268.8946228027344,,1,,4,3,brightness,readingArea,realistic,75,2023-03-22_13h19.33.647,tripletExp_regina_11082022,2022.2.4,119.99599470156237,
0,4,12,0,0.027777777777778,0.298245614035088,0,0.694444444444444,0.298245614035088,0,0.027777777777778,3.10526315789474,ReadingArea_rsl0-rcl2-esl29-rsm0-rcm69-esm29-rsr0-rcr2-esr310,exr/ReadingArea_rsl0-rcl2-esl29-rsm0-rcm69-esm29-rsr0-rcr2-esr310.exr,ReadingArea_rsl0-rcl2-esl29-rsm0-rcm69-esm29-rsr0-rcr2-esr310.npz,,,,,0,2,2,150,,right,red,3.84,278.6814389228821,279.0381457805633,1,,4,3,brightness,readingArea,realistic,75,2023-03-22_13h19.33.647,tripletExp_regina_11082022,2022.2.4,119.99599470156237,
2,11,5,0,0.25,0.298245614035088,0,1.0,1.0,0,1.0,0.298245614035088,ReadingArea_rsl0-rcl25-esl29-rsm0-rcm100-esm100-rsr0-rcr100-esr29,exr/ReadingArea_rsl0-rcl25-esl29-rsm0-rcm100-esm100-rsr0-rcr100-esr29.exr,ReadingArea_rsl0-rcl25-esl29-rsm0-rcm100-esm100-rsr0-rcr100-esr29.npz,,,,,0,3,3,491,,right,red,2.02,282.4921398162842,282.92970299720764,1,,4,3,brightness,readingArea,realistic,75,2023-03-22_13h19.33.647,tripletExp_regina_11082022,2022.2.4,119.99599470156237,
7,10,5,0,0.111111111111111,1.0,0,0.694444444444444,1.0,0,1.0,0.298245614035088,ReadingArea_rsl0-rcl11-esl100-rsm0-rcm69-esm100-rsr0-rcr100-esr29,exr/ReadingArea_rsl0-rcl11-esl100-rsm0-rcm69-esm100-rsr0-rcr100-esr29.exr,ReadingArea_rsl0-rcl11-esl100-rsm0-rcm69-esm100-rsr0-rcr100-esr29.npz,,,,,0,4,4,395,,right,red,2.67,286.3916118144989,286.7504608631134,1,,4,3,brightness,readingArea,realistic,75,2023-03-22_13h19.33.647,tripletExp_regina_11082022,2022.2.4,119.99599470156237,
2,1,6,0,0.25,0.298245614035088,0,0.111111111111111,0.298245614035088,0,0.027777777777778,1.0,ReadingArea_rsl0-rcl25-esl29-rsm0-rcm11-esm29-rsr0-rcr2-esr100,exr/ReadingArea_rsl0-rcl25-esl29-rsm0-rcm11-esm29-rsr0-rcr2-esr100.exr,ReadingArea_rsl0-rcl25-esl29-rsm0-rcm11-esm29-rsr0-rcr2-esr100.npz,,,,,0,5,5,171,,right,red,1.93,290.2106819152832,290.5767979621887,1,,4,3,brightness,readingArea,realistic,75,2023-03-22_13h19.33.647,tripletExp_regina_11082022,2022.2.4,119.99599470156237,
0,14,10,0,0.027777777777778,0.298245614035088,0,0.25,3.10526315789474,0,0.694444444444444,1.0,ReadingArea_rsl0-rcl2-esl29-rsm0-rcm25-esm310-rsr0-rcr69-esr100,exr/ReadingArea_rsl0-rcl2-esl29-rsm0-rcm25-esm310-rsr0-rcr69-esr100.exr,ReadingArea_rsl0-rcl2-esl29-rsm0-rcm25-esm310-rsr0-rcr69-esr100.npz,,,,,0,6,6,128,,right,red,1.17,292.3007779121399,292.673681974411,1,,4,3,brightness,readingArea,realistic,75,2023-03-22_13h19.33.647,tripletExp_regina_11082022,2022.2.4,119.99599470156237,
12,9,11,0,0.027777777777778,3.10526315789474,0,0.444444444444444,1.0,0,1.0,1.0,ReadingArea_rsl0-rcl2-esl310-rsm0-rcm44-esm100-rsr0-rcr100-esr100,exr/ReadingArea_rsl0-rcl2-esl310-rsm0-rcm44-esm100-rsr0-rcr100-esr100.exr,ReadingArea_rsl0-rcl2-esl310-rsm0-rcm44-esm100-rsr0-rcr100-esr100.npz,,,,,0,7,7,18,,right,red,1.18,294.36813282966614,294.72140979766846,1,,4,3,brightness,readingArea,realistic,75,2023-03-22_13h19.33.647,tripletExp_regina_11082022,2022.2.4,119.99599470156237,
3,13,6,0,0.444444444444444,0.298245614035088,0,0.111111111111111,3.10526315789474,0,0.027777777777778,1.0,ReadingArea_rsl0-rcl44-esl29-rsm0-rcm11-esm310-rsr0-rcr2-esr100,exr/ReadingArea_rsl0-rcl44-esl29-rsm0-rcm11-esm310-rsr0-rcr2-esr100.exr,ReadingArea_rsl0-rcl44-esl29-rsm0-rcm11-esm310-rsr0-rcr2-esr100.npz,,,,,0,8,8,199,,left,green,2.08,298.21070981025696,298.55243587493896,1,,4,3,brightness,readingArea,realistic,75,2023-03-22_13h19.33.647,tripletExp_regina_11082022,2022.2.4,119.99599470156237,
2,13,0,0,0.25,0.298245614035088,0,0.111111111111111,3.10526315789474,0,0.027777777777778,0.298245614035088,ReadingArea_rsl0-rcl25-esl29-rsm0-rcm11-esm310-rsr0-rcr2-esr29,exr/ReadingArea_rsl0-rcl25-esl29-rsm0-rcm11-esm310-rsr0-rcr2-esr29.exr,ReadingArea_rsl0-rcl25-esl29-rsm0-rcm11-esm310-rsr0-rcr2-esr29.npz,,,,,0,9,9,454,,left,green,2.03,302.01152896881104,302.3734049797058,1,,4,3,brightness,readingArea,realistic,75,2023-03-22_13h19.33.647,tripletExp_regina_11082022,2022.2.4,119.99599470156237,
1,12,11,0,0.111111111111111,0.298245614035088,0,0.027777777777778,3.10526315789474,0,1.0,1.0,ReadingArea_rsl0-rcl11-esl29-rsm0-rcm2-esm310-rsr0-rcr100-esr100,exr/ReadingArea_rsl0-rcl11-esl29-rsm0-rcm2-esm310-rsr0-rcr100-esr100.exr,ReadingArea_rsl0-rcl11-esl29-rsm0-rcm2-esm310-rsr0-rcr100-esr100.npz,,,,,0,10,10,178,,left,green,1.34,304.0606667995453,304.5099048614502,1,,4,3,brightness,readingArea,realistic,75,2023-03-22_13h19.33.647,tripletExp_regina_11082022,2022.2.4,119.99599470156237,
3,13,12,0,0.444444444444444,0.298245614035088,0,0.111111111111111,3.10526315789474,0,0.027777777777778,3.10526315789474,ReadingArea_rsl0-rcl44-esl29-rsm0-rcm11-esm310-rsr0-rcr2-esr310,exr/ReadingArea_rsl0-rcl44-esl29-rsm0-rcm11-esm310-rsr0-rcr2-esr310.exr,ReadingArea_rsl0-rcl44-esl29-rsm0-rcm11-esm310-rsr0-rcr2-esr310.npz,,,,,0,11,11,34,,left,green,1.99,307.97170090675354,308.37487387657166,1,,4,3,brightness,readingArea,realistic,75,2023-03-22_13h19.33.647,tripletExp_regina_11082022,2022.2.4,119.99599470156237,
12,9,13,0,0.027777777777778,3.10526315789474,0,0.444444444444444,1.0,0,0.111111111111111,3.10526315789474,ReadingArea_rsl0-rcl2-esl310-rsm0-rcm44-esm100-rsr0-rcr11-esr310,exr/ReadingArea_rsl0-rcl2-esl310-rsm0-rcm44-esm100-rsr0-rcr11-esr310.exr,ReadingArea_rsl0-rcl2-esl310-rsm0-rcm44-esm100-rsr0-rcr11-esr310.npz,,,,,0,12,12,529,,right,red,2.04,311.8444678783417,312.20546293258667,1,,4,3,brightness,readingArea,realistic,75,2023-03-22_13h19.33.647,tripletExp_regina_11082022,2022.2.4,119.99599470156237,
13,0,10,0,0.111111111111111,3.10526315789474,0,0.027777777777778,0.298245614035088,0,0.694444444444444,1.0,ReadingArea_rsl0-rcl11-esl310-rsm0-rcm2-esm29-rsr0-rcr69-esr100,exr/ReadingArea_rsl0-rcl11-esl310-rsm0-rcm2-esm29-rsr0-rcr69-esr100.exr,ReadingArea_rsl0-rcl11-esl310-rsm0-rcm2-esm29-rsr0-rcr69-esr100.npz,,,,,0,13,13,505,,left,green,2.1,315.67847895622253,316.0529959201813,1,,4,3,brightness,readingArea,realistic,75,2023-03-22_13h19.33.647,tripletExp_regina_11082022,2022.2.4,119.99599470156237,
2,1,3,0,0.25,0.298245614035088,0,0.111111111111111,0.298245614035088,0,0.444444444444444,0.298245614035088,ReadingArea_rsl0-rcl25-esl29-rsm0-rcm11-esm29-rsr0-rcr44-esr29,exr/ReadingArea_rsl0-rcl25-esl29-rsm0-rcm11-esm29-rsr0-rcr44-esr29.exr,ReadingArea_rsl0-rcl25-esl29-rsm0-rcm11-esm29-rsr0-rcr44-esr29.npz,,,,,0,14,14,85,,left,green,2.03,319.4974298477173,319.86977076530457,1,,4,3,brightness,readingArea,realistic,75,2023-03-22_13h19.33.647,tripletExp_regina_11082022,2022.2.4,119.99599470156237,
2,0,3,0,0.25,0.298245614035088,0,0.027777777777778,0.298245614035088,0,0.444444444444444,0.298245614035088,ReadingArea_rsl0-rcl25-esl29-rsm0-rcm2-esm29-rsr0-rcr44-esr29,exr/ReadingArea_rsl0-rcl25-esl29-rsm0-rcm2-esm29-rsr0-rcr44-esr29.exr,ReadingArea_rsl0-rcl25-esl29-rsm0-rcm2-esm29-rsr0-rcr44-esr29.npz,,,,,0,15,15,338,,left,green,2.05,323.35067677497864,323.7496738433838,1,,4,3,brightness,readingArea,realistic,75,2023-03-22_13h19.33.647,tripletExp_regina_11082022,2022.2.4,119.99599470156237,
9,14,7,0,0.444444444444444,1.0,0,0.25,3.10526315789474,0,0.111111111111111,1.0,ReadingArea_rsl0-rcl44-esl100-rsm0-rcm25-esm310-rsr0-rcr11-esr100,exr/ReadingArea_rsl0-rcl44-esl100-rsm0-rcm25-esm310-rsr0-rcr11-esr100.exr,ReadingArea_rsl0-rcl44-esl100-rsm0-rcm25-esm310-rsr0-rcr11-esr100.npz,,,,,0,16,16,44,,left,green,0.99,325.44837188720703,325.8065159320832,1,,4,3,brightness,readingArea,realistic,75,2023-03-22_13h19.33.647,tripletExp_regina_11082022,2022.2.4,119.99599470156237,
10,7,3,0,0.694444444444444,1.0,0,0.111111111111111,1.0,0,0.444444444444444,0.298245614035088,ReadingArea_rsl0-rcl69-esl100-rsm0-rcm11-esm100-rsr0-rcr44-esr29,exr/ReadingArea_rsl0-rcl69-esl100-rsm0-rcm11-esm100-rsr0-rcr44-esr29.exr,ReadingArea_rsl0-rcl69-esl100-rsm0-rcm11-esm100-rsr0-rcr44-esr29.npz,,,,,0,17,17,582,,right,red,1.28,327.49904799461365,327.8552579879761,1,,4,3,brightness,readingArea,realistic,75,2023-03-22_13h19.33.647,tripletExp_regina_11082022,2022.2.4,119.99599470156237,
1,13,7,0,0.111111111111111,0.298245614035088,0,0.111111111111111,3.10526315789474,0,0.111111111111111,1.0,ReadingArea_rsl0-rcl11-esl29-rsm0-rcm11-esm310-rsr0-rcr11-esr100,exr/ReadingArea_rsl0-rcl11-esl29-rsm0-rcm11-esm310-rsr0-rcr11-esr100.exr,ReadingArea_rsl0-rcl11-esl29-rsm0-rcm11-esm310-rsr0-rcr11-esr100.npz,,,,,0,18,18,158,,right,red,2.58,331.341020822525,331.7010769844055,1,,4,3,brightness,readingArea,realistic,75,2023-03-22_13h19.33.647,tripletExp_regina_11082022,2022.2.4,119.99599470156237,
10,5,4,0,0.694444444444444,1.0,0,1.0,0.298245614035088,0,0.694444444444444,0.298245614035088,ReadingArea_rsl0-rcl69-esl100-rsm0-rcm100-esm29-rsr0-rcr69-esr29,exr/ReadingArea_rsl0-rcl69-esl100-rsm0-rcm100-esm29-rsr0-rcr69-esr29.exr,ReadingArea_rsl0-rcl69-esl100-rsm0-rcm100-esm29-rsr0-rcr69-esr29.npz,,,,,0,19,19,455,,right,red,1.27,333.4207170009613,,1,,4,3,brightness,readingArea,realistic,75,2023-03-22_13h19.33.647,tripletExp_regina_11082022,2022.2.4,119.99599470156237,
0,9,14,0,0.027777777777778,0.298245614035088,0,0.444444444444444,1.0,0,0.25,3.10526315789474,ReadingArea_rsl0-rcl2-esl29-rsm0-rcm44-esm100-rsr0-rcr25-esr310,exr/ReadingArea_rsl0-rcl2-esl29-rsm0-rcm44-esm100-rsr0-rcr25-esr310.exr,ReadingArea_rsl0-rcl2-esl29-rsm0-rcm44-esm100-rsr0-rcr25-esr310.npz,,,,,0,20,20,433,,right,red,1.16,335.5082199573517,335.89497995376587,1,,4,3,brightness,readingArea,realistic,75,2023-03-22_13h19.33.647,tripletExp_regina_11082022,2022.2.4,119.99599470156237,
2,6,0,0,0.25,0.298245614035088,0,0.027777777777778,1.0,0,0.027777777777778,0.298245614035088,ReadingArea_rsl0-rcl25-esl29-rsm0-rcm2-esm100-rsr0-rcr2-esr29,exr/ReadingArea_rsl0-rcl25-esl29-rsm0-rcm2-esm100-rsr0-rcr2-esr29.exr,ReadingArea_rsl0-rcl25-esl29-rsm0-rcm2-esm100-rsr0-rcr2-esr29.npz,,,,,0,21,21,525,,right,red,2.84,339.36084485054016,339.74169182777405,1,,4,3,brightness,readingArea,realistic,75,2023-03-22_13h19.33.647,tripletExp_regina_11082022,2022.2.4,119.99599470156237,
10,4,9,0,0.694444444444444,1.0,0,0.694444444444444,0.298245614035088,0,0.444444444444444,1.0,ReadingArea_rsl0-rcl69-esl100-rsm0-rcm69-esm29-rsr0-rcr44-esr100,exr/ReadingArea_rsl0-rcl69-esl100-rsm0-rcm69-esm29-rsr0-rcr44-esr100.exr,ReadingArea_rsl0-rcl69-esl100-rsm0-rcm69-esm29-rsr0-rcr44-esr100.npz,,,,,0,22,22,452,,right,red,2.68,343.1968188285828,343.55010080337524,1,,4,3,brightness,readingArea,realistic,75,2023-03-22_13h19.33.647,tripletExp_regina_11082022,2022.2.4,119.99599470156237,
6,12,8,0,0.027777777777778,1.0,0,0.027777777777778,3.10526315789474,0,0.25,1.0,ReadingArea_rsl0-rcl2-esl100-rsm0-rcm2-esm310-rsr0-rcr25-esr100,exr/ReadingArea_rsl0-rcl2-esl100-rsm0-rcm2-esm310-rsr0-rcr25-esr100.exr,ReadingArea_rsl0-rcl2-esl100-rsm0-rcm2-esm310-rsr0-rcr25-esr100.npz,,,,,0,23,23,186,,left,green,2.41,347.0329399108887,347.3904149532318,1,,4,3,brightness,readingArea,realistic,75,2023-03-22_13h19.33.647,tripletExp_regina_11082022,2022.2.4,119.99599470156237,
5,13,12,0,1.0,0.298245614035088,0,0.111111111111111,3.10526315789474,0,0.027777777777778,3.10526315789474,ReadingArea_rsl0-rcl100-esl29-rsm0-rcm11-esm310-rsr0-rcr2-esr310,exr/ReadingArea_rsl0-rcl100-esl29-rsm0-rcm11-esm310-rsr0-rcr2-esr310.exr,ReadingArea_rsl0-rcl100-esl29-rsm0-rcm11-esm310-rsr0-rcr2-esr310.npz,,,,,0,24,24,389,,left,green,4.04,352.6136257648468,352.971650838852,1,,4,3,brightness,readingArea,realistic,75,2023-03-22_13h19.33.647,tripletExp_regina_11082022,2022.2.4,119.99599470156237,
2,8,4,0,0.25,0.298245614035088,0,0.25,1.0,0,0.694444444444444,0.298245614035088,ReadingArea_rsl0-rcl25-esl29-rsm0-rcm25-esm100-rsr0-rcr69-esr29,exr/ReadingArea_rsl0-rcl25-esl29-rsm0-rcm25-esm100-rsr0-rcr69-esr29.exr,ReadingArea_rsl0-rcl25-esl29-rsm0-rcm25-esm100-rsr0-rcr69-esr29.npz,,,,,0,25,25,507,,right,red,1.08,354.6714828014374,355.0457398891449,1,,4,3,brightness,readingArea,realistic,75,2023-03-22_13h19.33.647,tripletExp_regina_11082022,2022.2.4,119.99599470156237,
0,5,7,0,0.027777777777778,0.298245614035088,0,1.0,0.298245614035088,0,0.111111111111111,1.0,ReadingArea_rsl0-rcl2-esl29-rsm0-rcm100-esm29-rsr0-rcr11-esr100,exr/ReadingArea_rsl0-rcl2-esl29-rsm0-rcm100-esm29-rsr0-rcr11-esr100.exr,ReadingArea_rsl0-rcl2-esl29-rsm0-rcm100-esm29-rsr0-rcr11-esr100.npz,,,,,0,26,26,217,,right,red,2.52,358.5255558490753,358.90424489974976,1,,4,3,brightness,readingArea,realistic,75,2023-03-22_13h19.33.647,tripletExp_regina_11082022,2022.2.4,119.99599470156237,
5,8,2,0,1.0,0.298245614035088,0,0.25,1.0,0,0.25,0.298245614035088,ReadingArea_rsl0-rcl100-esl29-rsm0-rcm25-esm100-rsr0-rcr25-esr29,exr/ReadingArea_rsl0-rcl100-esl29-rsm0-rcm25-esm100-rsr0-rcr25-esr29.exr,ReadingArea_rsl0-rcl100-esl29-rsm0-rcm25-esm100-rsr0-rcr25-esr29.npz,,,,,0,27,27,65,,left,green,2.04,362.3657658100128,362.7205579280853,1,,4,3,brightness,readingArea,realistic,75,2023-03-22_13h19.33.647,tripletExp_regina_11082022,2022.2.4,119.99599470156237,
10,3,0,0,0.694444444444444,1.0,0,0.444444444444444,0.298245614035088,0,0.027777777777778,0.298245614035088,ReadingArea_rsl0-rcl69-esl100-rsm0-rcm44-esm29-rsr0-rcr2-esr29,exr/ReadingArea_rsl0-rcl69-esl100-rsm0-rcm44-esm29-rsr0-rcr2-esr29.exr,ReadingArea_rsl0-rcl69-esl100-rsm0-rcm44-esm29-rsr0-rcr2-esr29.npz,,,,,0,28,28,203,,right,red,4.55,367.9907248020172,368.3482029438019,1,,4,3,brightness,readingArea,realistic,75,2023-03-22_13h19.33.647,tripletExp_regina_11082022,2022.2.4,119.99599470156237,
11,12,2,0,1.0,1.0,0,0.027777777777778,3.10526315789474,0,0.25,0.298245614035088,ReadingArea_rsl0-rcl100-esl100-rsm0-rcm2-esm310-rsr0-rcr25-esr29,exr/ReadingArea_rsl0-rcl100-esl100-rsm0-rcm2-esm310-rsr0-rcr25-esr29.exr,ReadingArea_rsl0-rcl100-esl100-rsm0-rcm2-esm310-rsr0-rcr25-esr29.npz,,,,,0,29,29,423,,right,red,0.97,370.064532995224,370.4257438182831,1,,4,3,brightness,readingArea,realistic,75,2023-03-22_13h19.33.647,tripletExp_regina_11082022,2022.2.4,119.99599470156237,
13,6,2,0,0.111111111111111,3.10526315789474,0,0.027777777777778,1.0,0,0.25,0.298245614035088,ReadingArea_rsl0-rcl11-esl310-rsm0-rcm2-esm100-rsr0-rcr25-esr29,exr/ReadingArea_rsl0-rcl11-esl310-rsm0-rcm2-esm100-rsr0-rcr25-esr29.exr,ReadingArea_rsl0-rcl11-esl310-rsm0-rcm2-esm100-rsr0-rcr25-esr29.npz,,,,,0,30,30,115,,right,red,2.63,373.90235781669617,,1,,4,3,brightness,readingArea,realistic,75,2023-03-22_13h19.33.647,tripletExp_regina_11082022,2022.2.4,119.99599470156237,
8,11,1,0,0.25,1.0,0,1.0,1.0,0,0.111111111111111,0.298245614035088,ReadingArea_rsl0-rcl25-esl100-rsm0-rcm100-esm100-rsr0-rcr11-esr29,exr/ReadingArea_rsl0-rcl25-esl100-rsm0-rcm100-esm100-rsr0-rcr11-esr29.exr,ReadingArea_rsl0-rcl25-esl100-rsm0-rcm100-esm100-rsr0-rcr11-esr29.npz,,,,,0,31,31,132,,left,green,3.74,379.49873876571655,379.8587648868561,1,,4,3,brightness,readingArea,realistic,75,2023-03-22_13h19.33.647,tripletExp_regina_11082022,2022.2.4,119.99599470156237,
8,9,13,0,0.25,1.0,0,0.444444444444444,1.0,0,0.111111111111111,3.10526315789474,ReadingArea_rsl0-rcl25-esl100-rsm0-rcm44-esm100-rsr0-rcr11-esr310,exr/ReadingArea_rsl0-rcl25-esl100-rsm0-rcm44-esm100-rsr0-rcr11-esr310.exr,ReadingArea_rsl0-rcl25-esl100-rsm0-rcm44-esm100-rsr0-rcr11-esr310.npz,,,,,0,32,32,519,,right,red,1.12,381.57813692092896,,1,,4,3,brightness,readingArea,realistic,75,2023-03-22_13h19.33.647,tripletExp_regina_11082022,2022.2.4,119.99599470156237,
5,12,7,0,1.0,0.298245614035088,0,0.027777777777778,3.10526315789474,0,0.111111111111111,1.0,ReadingArea_rsl0-rcl100-esl29-rsm0-rcm2-esm310-rsr0-rcr11-esr100,exr/ReadingArea_rsl0-rcl100-esl29-rsm0-rcm2-esm310-rsr0-rcr11-esr100.exr,ReadingArea_rsl0-rcl100-esl29-rsm0-rcm2-esm310-rsr0-rcr11-esr100.npz,,,,,0,33,33,447,,right,red,1.99,385.4480798244476,385.84850096702576,1,,4,3,brightness,readingArea,realistic,75,2023-03-22_13h19.33.647,tripletExp_regina_11082022,2022.2.4,119.99599470156237,
13,6,0,0,0.111111111111111,3.10526315789474,0,0.027777777777778,1.0,0,0.027777777777778,0.298245614035088,ReadingArea_rsl0-rcl11-esl310-rsm0-rcm2-esm100-rsr0-rcr2-esr29,exr/ReadingArea_rsl0-rcl11-esl310-rsm0-rcm2-esm100-rsr0-rcr2-esr29.exr,ReadingArea_rsl0-rcl11-esl310-rsm0-rcm2-esm100-rsr0-rcr2-esr29.npz,,,,,0,34,34,309,,right,red,2.07,389.3250517845154,389.6796288490296,1,,4,3,brightness,readingArea,realistic,75,2023-03-22_13h19.33.647,tripletExp_regina_11082022,2022.2.4,119.99599470156237,
7,1,9,0,0.111111111111111,1.0,0,0.111111111111111,0.298245614035088,0,0.444444444444444,1.0,ReadingArea_rsl0-rcl11-esl100-rsm0-rcm11-esm29-rsr0-rcr44-esr100,exr/ReadingArea_rsl0-rcl11-esl100-rsm0-rcm11-esm29-rsr0-rcr44-esr100.exr,ReadingArea_rsl0-rcl11-esl100-rsm0-rcm11-esm29-rsr0-rcr44-esr100.npz,,,,,0,35,35,89,,left,green,2.4,393.183032989502,393.5538318157196,1,,4,3,brightness,readingArea,realistic,75,2023-03-22_13h19.33.647,tripletExp_regina_11082022,2022.2.4,119.99599470156237,
13,2,9,0,0.111111111111111,3.10526315789474,0,0.25,0.298245614035088,0,0.444444444444444,1.0,ReadingArea_rsl0-rcl11-esl310-rsm0-rcm25-esm29-rsr0-rcr44-esr100,exr/ReadingArea_rsl0-rcl11-esl310-rsm0-rcm25-esm29-rsr0-rcr44-esr100.exr,ReadingArea_rsl0-rcl11-esl310-rsm0-rcm25-esm29-rsr0-rcr44-esr100.npz,,,,,0,36,36,457,,left,green,2.0,397.0403349399567,397.4994878768921,1,,4,3,brightness,readingArea,realistic,75,2023-03-22_13h19.33.647,tripletExp_regina_11082022,2022.2.4,119.99599470156237,
4,5,8,0,0.694444444444444,0.298245614035088,0,1.0,0.298245614035088,0,0.25,1.0,ReadingArea_rsl0-rcl69-esl29-rsm0-rcm100-esm29-rsr0-rcr25-esr100,exr/ReadingArea_rsl0-rcl69-esl29-rsm0-rcm100-esm29-rsr0-rcr25-esr100.exr,ReadingArea_rsl0-rcl69-esl29-rsm0-rcm100-esm29-rsr0-rcr25-esr100.npz,,,,,0,37,37,54,,right,red,2.11,400.9716849327088,401.3417589664459,1,,4,3,brightness,readingArea,realistic,75,2023-03-22_13h19.33.647,tripletExp_regina_11082022,2022.2.4,119.99599470156237,
2,8,7,0,0.25,0.298245614035088,0,0.25,1.0,0,0.111111111111111,1.0,ReadingArea_rsl0-rcl25-esl29-rsm0-rcm25-esm100-rsr0-rcr11-esr100,exr/ReadingArea_rsl0-rcl25-esl29-rsm0-rcm25-esm100-rsr0-rcr11-esr100.exr,ReadingArea_rsl0-rcl25-esl29-rsm0-rcm25-esm100-rsr0-rcr11-esr100.npz,,,,,0,38,38,393,,right,red,3.77,406.5772008895874,406.9566237926483,1,,4,3,brightness,readingArea,realistic,75,2023-03-22_13h19.33.647,tripletExp_regina_11082022,2022.2.4,119.99599470156237,
5,10,2,0,1.0,0.298245614035088,0,0.694444444444444,1.0,0,0.25,0.298245614035088,ReadingArea_rsl0-rcl100-esl29-rsm0-rcm69-esm100-rsr0-rcr25-esr29,exr/ReadingArea_rsl0-rcl100-esl29-rsm0-rcm69-esm100-rsr0-rcr25-esr29.exr,ReadingArea_rsl0-rcl100-esl29-rsm0-rcm69-esm100-rsr0-rcr25-esr29.npz,,,,,0,39,39,489,,left,green,1.67,408.670441865921,409.0321989059448,1,,4,3,brightness,readingArea,realistic,75,2023-03-22_13h19.33.647,tripletExp_regina_11082022,2022.2.4,119.99599470156237,
4,0,3,0,0.694444444444444,0.298245614035088,0,0.027777777777778,0.298245614035088,0,0.444444444444444,0.298245614035088,ReadingArea_rsl0-rcl69-esl29-rsm0-rcm2-esm29-rsr0-rcr44-esr29,exr/ReadingArea_rsl0-rcl69-esl29-rsm0-rcm2-esm29-rsr0-rcr44-esr29.exr,ReadingArea_rsl0-rcl69-esl29-rsm0-rcm2-esm29-rsr0-rcr44-esr29.npz,,,,,0,40,40,88,,right,red,3.74,414.2651298046112,414.6261069774628,1,,4,3,brightness,readingArea,realistic,75,2023-03-22_13h19.33.647,tripletExp_regina_11082022,2022.2.4,119.99599470156237,
8,12,13,0,0.25,1.0,0,0.027777777777778,3.10526315789474,0,0.111111111111111,3.10526315789474,ReadingArea_rsl0-rcl25-esl100-rsm0-rcm2-esm310-rsr0-rcr11-esr310,exr/ReadingArea_rsl0-rcl25-esl100-rsm0-rcm2-esm310-rsr0-rcr11-esr310.exr,ReadingArea_rsl0-rcl25-esl100-rsm0-rcm2-esm310-rsr0-rcr11-esr310.npz,,,,,0,41,41,275,,left,green,2.35,418.0891408920288,418.4700038433075,1,,4,3,brightness,readingArea,realistic,75,2023-03-22_13h19.33.647,tripletExp_regina_11082022,2022.2.4,119.99599470156237,
10,3,14,0,0.694444444444444,1.0,0,0.444444444444444,0.298245614035088,0,0.25,3.10526315789474,ReadingArea_rsl0-rcl69-esl100-rsm0-rcm44-esm29-rsr0-rcr25-esr310,exr/ReadingArea_rsl0-rcl69-esl100-rsm0-rcm44-esm29-rsr0-rcr25-esr310.exr,ReadingArea_rsl0-rcl69-esl100-rsm0-rcm44-esm29-rsr0-rcr25-esr310.npz,,,,,0,42,42,597,,left,green,3.06,421.92549180984497,422.2780117988586,1,,4,3,brightness,readingArea,realistic,75,2023-03-22_13h19.33.647,tripletExp_regina_11082022,2022.2.4,119.99599470156237,
6,3,1,0,0.027777777777778,1.0,0,0.444444444444444,0.298245614035088,0,0.111111111111111,0.298245614035088,ReadingArea_rsl0-rcl2-esl100-rsm0-rcm44-esm29-rsr0-rcr11-esr29,exr/ReadingArea_rsl0-rcl2-esl100-rsm0-rcm44-esm29-rsr0-rcr11-esr29.exr,ReadingArea_rsl0-rcl2-esl100-rsm0-rcm44-esm29-rsr0-rcr11-esr29.npz,,,,,0,43,43,430,,right,red,3.6,427.501259803772,427.8845739364624,1,,4,3,brightness,readingArea,realistic,75,2023-03-22_13h19.33.647,tripletExp_regina_11082022,2022.2.4,119.99599470156237,
14,12,10,0,0.25,3.10526315789474,0,0.027777777777778,3.10526315789474,0,0.694444444444444,1.0,ReadingArea_rsl0-rcl25-esl310-rsm0-rcm2-esm310-rsr0-rcr69-esr100,exr/ReadingArea_rsl0-rcl25-esl310-rsm0-rcm2-esm310-rsr0-rcr69-esr100.exr,ReadingArea_rsl0-rcl25-esl310-rsm0-rcm2-esm310-rsr0-rcr69-esr100.npz,,,,,0,44,44,331,,left,green,3.16,431.3613679409027,,1,,4,3,brightness,readingArea,realistic,75,2023-03-22_13h19.33.647,tripletExp_regina_11082022,2022.2.4,119.99599470156237,
4,5,1,0,0.694444444444444,0.298245614035088,0,1.0,0.298245614035088,0,0.111111111111111,0.298245614035088,ReadingArea_rsl0-rcl69-esl29-rsm0-rcm100-esm29-rsr0-rcr11-esr29,exr/ReadingArea_rsl0-rcl69-esl29-rsm0-rcm100-esm29-rsr0-rcr11-esr29.exr,ReadingArea_rsl0-rcl69-esl29-rsm0-rcm100-esm29-rsr0-rcr11-esr29.npz,,,,,0,45,45,240,,left,green,2.71,435.2187898159027,435.5717189311981,1,,4,3,brightness,readingArea,realistic,75,2023-03-22_13h19.33.647,tripletExp_regina_11082022,2022.2.4,119.99599470156237,
14,13,2,0,0.25,3.10526315789474,0,0.111111111111111,3.10526315789474,0,0.25,0.298245614035088,ReadingArea_rsl0-rcl25-esl310-rsm0-rcm11-esm310-rsr0-rcr25-esr29,exr/ReadingArea_rsl0-rcl25-esl310-rsm0-rcm11-esm310-rsr0-rcr25-esr29.exr,ReadingArea_rsl0-rcl25-esl310-rsm0-rcm11-esm310-rsr0-rcr25-esr29.npz,,,,,0,46,46,377,,right,red,3.87,440.8273887634277,441.1899468898773,1,,4,3,brightness,readingArea,realistic,75,2023-03-22_13h19.33.647,tripletExp_regina_11082022,2022.2.4,119.99599470156237,
13,12,11,0,0.111111111111111,3.10526315789474,0,0.027777777777778,3.10526315789474,0,1.0,1.0,ReadingArea_rsl0-rcl11-esl310-rsm0-rcm2-esm310-rsr0-rcr100-esr100,exr/ReadingArea_rsl0-rcl11-esl310-rsm0-rcm2-esm310-rsr0-rcr100-esr100.exr,ReadingArea_rsl0-rcl11-esl310-rsm0-rcm2-esm310-rsr0-rcr100-esr100.npz,,,,,0,47,47,441,,left,green,1.89,444.6915729045868,445.051237821579,1,,4,3,brightness,readingArea,realistic,75,2023-03-22_13h19.33.647,tripletExp_regina_11082022,2022.2.4,119.99599470156237,
5,3,6,0,1.0,0.298245614035088,0,0.444444444444444,0.298245614035088,0,0.027777777777778,1.0,ReadingArea_rsl0-rcl100-esl29-rsm0-rcm44-esm29-rsr0-rcr2-esr100,exr/ReadingArea_rsl0-rcl100-esl29-rsm0-rcm44-esm29-rsr0-rcr2-esr100.exr,ReadingArea_rsl0-rcl100-esl29-rsm0-rcm44-esm29-rsr0-rcr2-esr100.npz,,,,,0,48,48,316,,left,green,1.15,446.7707359790802,447.1538999080658,1,,4,3,brightness,readingArea,realistic,75,2023-03-22_13h19.33.647,tripletExp_regina_11082022,2022.2.4,119.99599470156237,
8,6,0,0,0.25,1.0,0,0.027777777777778,1.0,0,0.027777777777778,0.298245614035088,ReadingArea_rsl0-rcl25-esl100-rsm0-rcm2-esm100-rsr0-rcr2-esr29,exr/ReadingArea_rsl0-rcl25-esl100-rsm0-rcm2-esm100-rsr0-rcr2-esr29.exr,ReadingArea_rsl0-rcl25-esl100-rsm0-rcm2-esm100-rsr0-rcr2-esr29.npz,,,,,0,49,49,187,,right,red,1.47,448.8455679416657,449.1966919898987,1,,4,3,brightness,readingArea,realistic,75,2023-03-22_13h19.33.647,tripletExp_regina_11082022,2022.2.4,119.99599470156237,
14,7,8,0,0.25,3.10526315789474,0,0.111111111111111,1.0,0,0.25,1.0,ReadingArea_rsl0-rcl25-esl310-rsm0-rcm11-esm100-rsr0-rcr25-esr100,exr/ReadingArea_rsl0-rcl25-esl310-rsm0-rcm11-esm100-rsr0-rcr25-esr100.exr,ReadingArea_rsl0-rcl25-esl310-rsm0-rcm11-esm100-rsr0-rcr25-esr100.npz,,,,,0,50,50,326,,right,red,2.16,452.6448497772217,452.9985768795013,1,,4,3,brightness,readingArea,realistic,75,2023-03-22_13h19.33.647,tripletExp_regina_11082022,2022.2.4,119.99599470156237,
5,0,6,0,1.0,0.298245614035088,0,0.027777777777778,0.298245614035088,0,0.027777777777778,1.0,ReadingArea_rsl0-rcl100-esl29-rsm0-rcm2-esm29-rsr0-rcr2-esr100,exr/ReadingArea_rsl0-rcl100-esl29-rsm0-rcm2-esm29-rsr0-rcr2-esr100.exr,ReadingArea_rsl0-rcl100-esl29-rsm0-rcm2-esm29-rsr0-rcr2-esr100.npz,,,,,0,51,51,1,,right,red,2.46,456.4710919857025,456.83017683029175,1,,4,3,brightness,readingArea,realistic,75,2023-03-22_13h19.33.647,tripletExp_regina_11082022,2022.2.4,119.99599470156237,
9,6,13,0,0.444444444444444,1.0,0,0.027777777777778,1.0,0,0.111111111111111,3.10526315789474,ReadingArea_rsl0-rcl44-esl100-rsm0-rcm2-esm100-rsr0-rcr11-esr310,exr/ReadingArea_rsl0-rcl44-esl100-rsm0-rcm2-esm100-rsr0-rcr11-esr310.exr,ReadingArea_rsl0-rcl44-esl100-rsm0-rcm2-esm100-rsr0-rcr11-esr310.npz,,,,,0,52,52,285,,right,red,3.59,462.0809898376465,462.4546988010407,1,,4,3,brightness,readingArea,realistic,75,2023-03-22_13h19.33.647,tripletExp_regina_11082022,2022.2.4,119.99599470156237,
0,8,3,0,0.027777777777778,0.298245614035088,0,0.25,1.0,0,0.444444444444444,0.298245614035088,ReadingArea_rsl0-rcl2-esl29-rsm0-rcm25-esm100-rsr0-rcr44-esr29,exr/ReadingArea_rsl0-rcl2-esl29-rsm0-rcm25-esm100-rsr0-rcr44-esr29.exr,ReadingArea_rsl0-rcl2-esl29-rsm0-rcm25-esm100-rsr0-rcr44-esr29.npz,,,,,0,53,53,301,,right,red,1.7,464.14931297302246,,1,,4,3,brightness,readingArea,realistic,75,2023-03-22_13h19.33.647,tripletExp_regina_11082022,2022.2.4,119.99599470156237,
5,1,13,0,1.0,0.298245614035088,0,0.111111111111111,0.298245614035088,0,0.111111111111111,3.10526315789474,ReadingArea_rsl0-rcl100-esl29-rsm0-rcm11-esm29-rsr0-rcr11-esr310,exr/ReadingArea_rsl0-rcl100-esl29-rsm0-rcm11-esm29-rsr0-rcr11-esr310.exr,ReadingArea_rsl0-rcl100-esl29-rsm0-rcm11-esm29-rsr0-rcr11-esr310.npz,,,,,0,54,54,594,,left,green,4.21,469.7514398097992,470.1190128326416,1,,4,3,brightness,readingArea,realistic,75,2023-03-22_13h19.33.647,tripletExp_regina_11082022,2022.2.4,119.99599470156237,
3,2,8,0,0.444444444444444,0.298245614035088,0,0.25,0.298245614035088,0,0.25,1.0,ReadingArea_rsl0-rcl44-esl29-rsm0-rcm25-esm29-rsr0-rcr25-esr100,exr/ReadingArea_rsl0-rcl44-esl29-rsm0-rcm25-esm29-rsr0-rcr25-esr100.exr,ReadingArea_rsl0-rcl44-esl29-rsm0-rcm25-esm29-rsr0-rcr25-esr100.npz,,,,,0,55,55,181,,left,green,0.97,471.8096008300781,472.19240283966064,1,,4,3,brightness,readingArea,realistic,75,2023-03-22_13h19.33.647,tripletExp_regina_11082022,2022.2.4,119.99599470156237,
7,13,6,0,0.111111111111111,1.0,0,0.111111111111111,3.10526315789474,0,0.027777777777778,1.0,ReadingArea_rsl0-rcl11-esl100-rsm0-rcm11-esm310-rsr0-rcr2-esr100,exr/ReadingArea_rsl0-rcl11-esl100-rsm0-rcm11-esm310-rsr0-rcr2-esr100.exr,ReadingArea_rsl0-rcl11-esl100-rsm0-rcm11-esm310-rsr0-rcr2-esr100.npz,,,,,0,56,56,73,,left,green,2.42,475.636088848114,476.0043849945069,1,,4,3,brightness,readingArea,realistic,75,2023-03-22_13h19.33.647,tripletExp_regina_11082022,2022.2.4,119.99599470156237,
8,9,6,0,0.25,1.0,0,0.444444444444444,1.0,0,0.027777777777778,1.0,ReadingArea_rsl0-rcl25-esl100-rsm0-rcm44-esm100-rsr0-rcr2-esr100,exr/ReadingArea_rsl0-rcl25-esl100-rsm0-rcm44-esm100-rsr0-rcr2-esr100.exr,ReadingArea_rsl0-rcl25-esl100-rsm0-rcm44-esm100-rsr0-rcr2-esr100.npz,,,,,0,57,57,3,,left,green,2.24,479.4767549037933,,1,,4,3,brightness,readingArea,realistic,75,2023-03-22_13h19.33.647,tripletExp_regina_11082022,2022.2.4,119.99599470156237,
6,7,3,0,0.027777777777778,1.0,0,0.111111111111111,1.0,0,0.444444444444444,0.298245614035088,ReadingArea_rsl0-rcl2-esl100-rsm0-rcm11-esm100-rsr0-rcr44-esr29,exr/ReadingArea_rsl0-rcl2-esl100-rsm0-rcm11-esm100-rsr0-rcr44-esr29.exr,ReadingArea_rsl0-rcl2-esl100-rsm0-rcm11-esm100-rsr0-rcr44-esr29.npz,,,,,0,58,58,47,,right,red,0.85,481.5422658920288,481.910267829895,1,,4,3,brightness,readingArea,realistic,75,2023-03-22_13h19.33.647,tripletExp_regina_11082022,2022.2.4,119.99599470156237,
1,13,14,0,0.111111111111111,0.298245614035088,0,0.111111111111111,3.10526315789474,0,0.25,3.10526315789474,ReadingArea_rsl0-rcl11-esl29-rsm0-rcm11-esm310-rsr0-rcr25-esr310,exr/ReadingArea_rsl0-rcl11-esl29-rsm0-rcm11-esm310-rsr0-rcr25-esr310.exr,ReadingArea_rsl0-rcl11-esl29-rsm0-rcm11-esm310-rsr0-rcr25-esr310.npz,,,,,0,59,59,183,,right,red,0.8,483.602992773056,,1,,4,3,brightness,readingArea,realistic,75,2023-03-22_13h19.33.647,tripletExp_regina_11082022,2022.2.4,119.99599470156237,
12,5,14,0,0.027777777777778,3.10526315789474,0,1.0,0.298245614035088,0,0.25,3.10526315789474,ReadingArea_rsl0-rcl2-esl310-rsm0-rcm100-esm29-rsr0-rcr25-esr310,exr/ReadingArea_rsl0-rcl2-esl310-rsm0-rcm100-esm29-rsr0-rcr25-esr310.exr,ReadingArea_rsl0-rcl2-esl310-rsm0-rcm100-esm29-rsr0-rcr25-esr310.npz,,,,,0,60,60,193,,right,red,1.89,487.4601919651032,487.8182067871094,1,,4,3,brightness,readingArea,realistic,75,2023-03-22_13h19.33.647,tripletExp_regina_11082022,2022.2.4,119.99599470156237,
0,12,7,0,0.027777777777778,0.298245614035088,0,0.027777777777778,3.10526315789474,0,0.111111111111111,1.0,ReadingArea_rsl0-rcl2-esl29-rsm0-rcm2-esm310-rsr0-rcr11-esr100,exr/ReadingArea_rsl0-rcl2-esl29-rsm0-rcm2-esm310-rsr0-rcr11-esr100.exr,ReadingArea_rsl0-rcl2-esl29-rsm0-rcm2-esm310-rsr0-rcr11-esr100.npz,,,,,0,61,61,481,,right,red,0.78,489.5222427845001,489.8915288448334,1,,4,3,brightness,readingArea,realistic,75,2023-03-22_13h19.33.647,tripletExp_regina_11082022,2022.2.4,119.99599470156237,
4,5,9,0,0.694444444444444,0.298245614035088,0,1.0,0.298245614035088,0,0.444444444444444,1.0,ReadingArea_rsl0-rcl69-esl29-rsm0-rcm100-esm29-rsr0-rcr44-esr100,exr/ReadingArea_rsl0-rcl69-esl29-rsm0-rcm100-esm29-rsr0-rcr44-esr100.exr,ReadingArea_rsl0-rcl69-esl29-rsm0-rcm100-esm29-rsr0-rcr44-esr100.npz,,,,,0,62,62,211,,left,green,2.02,493.37148690223694,493.74726486206055,1,,4,3,brightness,readingArea,realistic,75,2023-03-22_13h19.33.647,tripletExp_regina_11082022,2022.2.4,119.99599470156237,
2,5,3,0,0.25,0.298245614035088,0,1.0,0.298245614035088,0,0.444444444444444,0.298245614035088,ReadingArea_rsl0-rcl25-esl29-rsm0-rcm100-esm29-rsr0-rcr44-esr29,exr/ReadingArea_rsl0-rcl25-esl29-rsm0-rcm100-esm29-rsr0-rcr44-esr29.exr,ReadingArea_rsl0-rcl25-esl29-rsm0-rcm100-esm29-rsr0-rcr44-esr29.npz,,,,,0,63,63,135,,right,red,2.19,497.2493178844452,497.6112968921661,1,,4,3,brightness,readingArea,realistic,75,2023-03-22_13h19.33.647,tripletExp_regina_11082022,2022.2.4,119.99599470156237,
5,10,0,0,1.0,0.298245614035088,0,0.694444444444444,1.0,0,0.027777777777778,0.298245614035088,ReadingArea_rsl0-rcl100-esl29-rsm0-rcm69-esm100-rsr0-rcr2-esr29,exr/ReadingArea_rsl0-rcl100-esl29-rsm0-rcm69-esm100-rsr0-rcr2-esr29.exr,ReadingArea_rsl0-rcl100-esl29-rsm0-rcm69-esm100-rsr0-rcr2-esr29.npz,,,,,0,64,64,293,,left,green,0.89,499.30225896835327,499.6789538860321,1,,4,3,brightness,readingArea,realistic,75,2023-03-22_13h19.33.647,tripletExp_regina_11082022,2022.2.4,119.99599470156237,
0,13,1,0,0.027777777777778,0.298245614035088,0,0.111111111111111,3.10526315789474,0,0.111111111111111,0.298245614035088,ReadingArea_rsl0-rcl2-esl29-rsm0-rcm11-esm310-rsr0-rcr11-esr29,exr/ReadingArea_rsl0-rcl2-esl29-rsm0-rcm11-esm310-rsr0-rcr11-esr29.exr,ReadingArea_rsl0-rcl2-esl29-rsm0-rcm11-esm310-rsr0-rcr11-esr29.npz,,,,,0,65,65,458,,right,red,2.02,503.1788439750672,503.5353538990021,1,,4,3,brightness,readingArea,realistic,75,2023-03-22_13h19.33.647,tripletExp_regina_11082022,2022.2.4,119.99599470156237,
5,3,2,0,1.0,0.298245614035088,0,0.444444444444444,0.298245614035088,0,0.25,0.298245614035088,ReadingArea_rsl0-rcl100-esl29-rsm0-rcm44-esm29-rsr0-rcr25-esr29,exr/ReadingArea_rsl0-rcl100-esl29-rsm0-rcm44-esm29-rsr0-rcr25-esr29.exr,ReadingArea_rsl0-rcl100-esl29-rsm0-rcm44-esm29-rsr0-rcr25-esr29.npz,,,,,0,66,66,143,,right,red,2.04,507.0063269138336,,1,,4,3,brightness,readingArea,realistic,75,2023-03-22_13h19.33.647,tripletExp_regina_11082022,2022.2.4,119.99599470156237,
10,11,5,0,0.694444444444444,1.0,0,1.0,1.0,0,1.0,0.298245614035088,ReadingArea_rsl0-rcl69-esl100-rsm0-rcm100-esm100-rsr0-rcr100-esr29,exr/ReadingArea_rsl0-rcl69-esl100-rsm0-rcm100-esm100-rsr0-rcr100-esr29.exr,ReadingArea_rsl0-rcl69-esl100-rsm0-rcm100-esm100-rsr0-rcr100-esr29.npz,,,,,0,67,67,514,,left,green,2.0,510.86210894584656,511.2219378948212,1,,4,3,brightness,readingArea,realistic,75,2023-03-22_13h19.33.647,tripletExp_regina_11082022,2022.2.4,119.99599470156237,
2,9,10,0,0.25,0.298245614035088,0,0.444444444444444,1.0,0,0.694444444444444,1.0,ReadingArea_rsl0-rcl25-esl29-rsm0-rcm44-esm100-rsr0-rcr69-esr100,exr/ReadingArea_rsl0-rcl25-esl29-rsm0-rcm44-esm100-rsr0-rcr69-esr100.exr,ReadingArea_rsl0-rcl25-esl29-rsm0-rcm44-esm100-rsr0-rcr69-esr100.npz,,,,,0,68,68,117,,right,red,2.14,514.6815178394318,515.1375458240509,1,,4,3,brightness,readingArea,realistic,75,2023-03-22_13h19.33.647,tripletExp_regina_11082022,2022.2.4,119.99599470156237,
8,1,9,0,0.25,1.0,0,0.111111111111111,0.298245614035088,0,0.444444444444444,1.0,ReadingArea_rsl0-rcl25-esl100-rsm0-rcm11-esm29-rsr0-rcr44-esr100,exr/ReadingArea_rsl0-rcl25-esl100-rsm0-rcm11-esm29-rsr0-rcr44-esr100.exr,ReadingArea_rsl0-rcl25-esl100-rsm0-rcm11-esm29-rsr0-rcr44-esr100.npz,,,,,0,69,69,432,,left,green,2.89,518.606773853302,518.9629337787628,1,,4,3,brightness,readingArea,realistic,75,2023-03-22_13h19.33.647,tripletExp_regina_11082022,2022.2.4,119.99599470156237,
0,2,1,0,0.027777777777778,0.298245614035088,0,0.25,0.298245614035088,0,0.111111111111111,0.298245614035088,ReadingArea_rsl0-rcl2-esl29-rsm0-rcm25-esm29-rsr0-rcr11-esr29,exr/ReadingArea_rsl0-rcl2-esl29-rsm0-rcm25-esm29-rsr0-rcr11-esr29.exr,ReadingArea_rsl0-rcl2-esl29-rsm0-rcm25-esm29-rsr0-rcr11-esr29.npz,,,,,0,70,70,527,,right,red,2.25,522.4325008392334,522.7887649536133,1,,4,3,brightness,readingArea,realistic,75,2023-03-22_13h19.33.647,tripletExp_regina_11082022,2022.2.4,119.99599470156237,
13,4,0,0,0.111111111111111,3.10526315789474,0,0.694444444444444,0.298245614035088,0,0.027777777777778,0.298245614035088,ReadingArea_rsl0-rcl11-esl310-rsm0-rcm69-esm29-rsr0-rcr2-esr29,exr/ReadingArea_rsl0-rcl11-esl310-rsm0-rcm69-esm29-rsr0-rcr2-esr29.exr,ReadingArea_rsl0-rcl11-esl310-rsm0-rcm69-esm29-rsr0-rcr2-esr29.npz,,,,,0,71,71,269,,left,green,1.0,524.4868779182434,524.8522489070892,1,,4,3,brightness,readingArea,realistic,75,2023-03-22_13h19.33.647,tripletExp_regina_11082022,2022.2.4,119.99599470156237,
4,2,0,0,0.694444444444444,0.298245614035088,0,0.25,0.298245614035088,0,0.027777777777778,0.298245614035088,ReadingArea_rsl0-rcl69-esl29-rsm0-rcm25-esm29-rsr0-rcr2-esr29,exr/ReadingArea_rsl0-rcl69-esl29-rsm0-rcm25-esm29-rsr0-rcr2-esr29.exr,ReadingArea_rsl0-rcl69-esl29-rsm0-rcm25-esm29-rsr0-rcr2-esr29.npz,,,,,0,72,72,71,,left,green,1.02,526.5412108898163,526.8990769386292,1,,4,3,brightness,readingArea,realistic,75,2023-03-22_13h19.33.647,tripletExp_regina_11082022,2022.2.4,119.99599470156237,
14,6,5,0,0.25,3.10526315789474,0,0.027777777777778,1.0,0,1.0,0.298245614035088,ReadingArea_rsl0-rcl25-esl310-rsm0-rcm2-esm100-rsr0-rcr100-esr29,exr/ReadingArea_rsl0-rcl25-esl310-rsm0-rcm2-esm100-rsr0-rcr100-esr29.exr,ReadingArea_rsl0-rcl25-esl310-rsm0-rcm2-esm100-rsr0-rcr100-esr29.npz,,,,,0,73,73,297,,right,red,2.41,530.368085861206,,1,,4,3,brightness,readingArea,realistic,75,2023-03-22_13h19.33.647,tripletExp_regina_11082022,2022.2.4,119.99599470156237,
2,1,14,0,0.25,0.298245614035088,0,0.111111111111111,0.298245614035088,0,0.25,3.10526315789474,ReadingArea_rsl0-rcl25-esl29-rsm0-rcm11-esm29-rsr0-rcr25-esr310,exr/ReadingArea_rsl0-rcl25-esl29-rsm0-rcm11-esm29-rsr0-rcr25-esr310.exr,ReadingArea_rsl0-rcl25-esl29-rsm0-rcm11-esm29-rsr0-rcr25-esr310.npz,,,,,0,74,74,59,,left,green,1.12,532.4278819561005,532.6340878009796,1,,4,3,brightness,readingArea,realistic,75,2023-03-22_13h19.33.647,tripletExp_regina_11082022,2022.2.4,119.99599470156237,
8,7,13,0,0.25,1.0,0,0.111111111111111,1.0,0,0.111111111111111,3.10526315789474,ReadingArea_rsl0-rcl25-esl100-rsm0-rcm11-esm100-rsr0-rcr11-esr310,exr/ReadingArea_rsl0-rcl25-esl100-rsm0-rcm11-esm100-rsr0-rcr11-esr310.exr,ReadingArea_rsl0-rcl25-esl100-rsm0-rcm11-esm100-rsr0-rcr11-esr310.npz,,,,,0,75,75,512,,left,green,2.08,571.8568799495697,572.2582128047943,2,,4,3,brightness,readingArea,realistic,75,2023-03-22_13h19.33.647,tripletExp_regina_11082022,2022.2.4,119.99599470156237,
8,6,5,0,0.25,1.0,0,0.027777777777778,1.0,0,1.0,0.298245614035088,ReadingArea_rsl0-rcl25-esl100-rsm0-rcm2-esm100-rsr0-rcr100-esr29,exr/ReadingArea_rsl0-rcl25-esl100-rsm0-rcm2-esm100-rsr0-rcr100-esr29.exr,ReadingArea_rsl0-rcl25-esl100-rsm0-rcm2-esm100-rsr0-rcr100-esr29.npz,,,,,0,76,76,241,,left,green,1.93,575.7321708202362,576.0779838562012,2,,4,3,brightness,readingArea,realistic,75,2023-03-22_13h19.33.647,tripletExp_regina_11082022,2022.2.4,119.99599470156237,
2,14,7,0,0.25,0.298245614035088,0,0.25,3.10526315789474,0,0.111111111111111,1.0,ReadingArea_rsl0-rcl25-esl29-rsm0-rcm25-esm310-rsr0-rcr11-esr100,exr/ReadingArea_rsl0-rcl25-esl29-rsm0-rcm25-esm310-rsr0-rcr11-esr100.exr,ReadingArea_rsl0-rcl25-esl29-rsm0-rcm25-esm310-rsr0-rcr11-esr100.npz,,,,,0,77,77,310,,right,red,2.64,579.5575199127197,579.9266428947449,2,,4,3,brightness,readingArea,realistic,75,2023-03-22_13h19.33.647,tripletExp_regina_11082022,2022.2.4,119.99599470156237,
13,9,6,0,0.111111111111111,3.10526315789474,0,0.444444444444444,1.0,0,0.027777777777778,1.0,ReadingArea_rsl0-rcl11-esl310-rsm0-rcm44-esm100-rsr0-rcr2-esr100,exr/ReadingArea_rsl0-rcl11-esl310-rsm0-rcm44-esm100-rsr0-rcr2-esr100.exr,ReadingArea_rsl0-rcl11-esl310-rsm0-rcm44-esm100-rsr0-rcr2-esr100.npz,,,,,0,78,78,19,,left,green,1.05,581.6260039806366,,2,,4,3,brightness,readingArea,realistic,75,2023-03-22_13h19.33.647,tripletExp_regina_11082022,2022.2.4,119.99599470156237,
9,8,7,0,0.444444444444444,1.0,0,0.25,1.0,0,0.111111111111111,1.0,ReadingArea_rsl0-rcl44-esl100-rsm0-rcm25-esm100-rsr0-rcr11-esr100,exr/ReadingArea_rsl0-rcl44-esl100-rsm0-rcm25-esm100-rsr0-rcr11-esr100.exr,ReadingArea_rsl0-rcl44-esl100-rsm0-rcm25-esm100-rsr0-rcr11-esr100.npz,,,,,0,79,79,368,,right,red,2.7,585.5431709289551,585.9175748825073,2,,4,3,brightness,readingArea,realistic,75,2023-03-22_13h19.33.647,tripletExp_regina_11082022,2022.2.4,119.99599470156237,
5,0,11,0,1.0,0.298245614035088,0,0.027777777777778,0.298245614035088,0,1.0,1.0,ReadingArea_rsl0-rcl100-esl29-rsm0-rcm2-esm29-rsr0-rcr100-esr100,exr/ReadingArea_rsl0-rcl100-esl29-rsm0-rcm2-esm29-rsr0-rcr100-esr100.exr,ReadingArea_rsl0-rcl100-esl29-rsm0-rcm2-esm29-rsr0-rcr100-esr100.npz,,,,,0,80,80,547,,left,green,2.07,589.3729779720306,589.7338938713074,2,,4,3,brightness,readingArea,realistic,75,2023-03-22_13h19.33.647,tripletExp_regina_11082022,2022.2.4,119.99599470156237,
11,2,8,0,1.0,1.0,0,0.25,0.298245614035088,0,0.25,1.0,ReadingArea_rsl0-rcl100-esl100-rsm0-rcm25-esm29-rsr0-rcr25-esr100,exr/ReadingArea_rsl0-rcl100-esl100-rsm0-rcm25-esm29-rsr0-rcr25-esr100.exr,ReadingArea_rsl0-rcl100-esl100-rsm0-rcm25-esm29-rsr0-rcr25-esr100.npz,,,,,0,81,81,214,,right,red,1.42,591.4571118354797,591.8181519508362,2,,4,3,brightness,readingArea,realistic,75,2023-03-22_13h19.33.647,tripletExp_regina_11082022,2022.2.4,119.99599470156237,
9,0,11,0,0.444444444444444,1.0,0,0.027777777777778,0.298245614035088,0,1.0,1.0,ReadingArea_rsl0-rcl44-esl100-rsm0-rcm2-esm29-rsr0-rcr100-esr100,exr/ReadingArea_rsl0-rcl44-esl100-rsm0-rcm2-esm29-rsr0-rcr100-esr100.exr,ReadingArea_rsl0-rcl44-esl100-rsm0-rcm2-esm29-rsr0-rcr100-esr100.npz,,,,,0,82,82,319,,left,green,1.94,595.2913987636566,595.6661388874054,2,,4,3,brightness,readingArea,realistic,75,2023-03-22_13h19.33.647,tripletExp_regina_11082022,2022.2.4,119.99599470156237,
0,7,13,0,0.027777777777778,0.298245614035088,0,0.111111111111111,1.0,0,0.111111111111111,3.10526315789474,ReadingArea_rsl0-rcl2-esl29-rsm0-rcm11-esm100-rsr0-rcr11-esr310,exr/ReadingArea_rsl0-rcl2-esl29-rsm0-rcm11-esm100-rsr0-rcr11-esr310.exr,ReadingArea_rsl0-rcl2-esl29-rsm0-rcm11-esm100-rsr0-rcr11-esr310.npz,,,,,0,83,83,159,,right,red,1.93,599.1143589019775,599.4815208911896,2,,4,3,brightness,readingArea,realistic,75,2023-03-22_13h19.33.647,tripletExp_regina_11082022,2022.2.4,119.99599470156237,
10,6,3,0,0.694444444444444,1.0,0,0.027777777777778,1.0,0,0.444444444444444,0.298245614035088,ReadingArea_rsl0-rcl69-esl100-rsm0-rcm2-esm100-rsr0-rcr44-esr29,exr/ReadingArea_rsl0-rcl69-esl100-rsm0-rcm2-esm100-rsr0-rcr44-esr29.exr,ReadingArea_rsl0-rcl69-esl100-rsm0-rcm2-esm100-rsr0-rcr44-esr29.npz,,,,,0,84,84,0,,right,red,1.85,602.9603807926178,603.3285148143768,2,,4,3,brightness,readingArea,realistic,75,2023-03-22_13h19.33.647,tripletExp_regina_11082022,2022.2.4,119.99599470156237,
13,1,3,0,0.111111111111111,3.10526315789474,0,0.111111111111111,0.298245614035088,0,0.444444444444444,0.298245614035088,ReadingArea_rsl0-rcl11-esl310-rsm0-rcm11-esm29-rsr0-rcr44-esr29,exr/ReadingArea_rsl0-rcl11-esl310-rsm0-rcm11-esm29-rsr0-rcr44-esr29.exr,ReadingArea_rsl0-rcl11-esl310-rsm0-rcm11-esm29-rsr0-rcr44-esr29.npz,,,,,0,85,85,588,,right,red,2.08,606.7955639362335,607.1698579788208,2,,4,3,brightness,readingArea,realistic,75,2023-03-22_13h19.33.647,tripletExp_regina_11082022,2022.2.4,119.99599470156237,
14,8,9,0,0.25,3.10526315789474,0,0.25,1.0,0,0.444444444444444,1.0,ReadingArea_rsl0-rcl25-esl310-rsm0-rcm25-esm100-rsr0-rcr44-esr100,exr/ReadingArea_rsl0-rcl25-esl310-rsm0-rcm25-esm100-rsr0-rcr44-esr100.exr,ReadingArea_rsl0-rcl25-esl310-rsm0-rcm25-esm100-rsr0-rcr44-esr100.npz,,,,,0,86,86,518,,right,red,2.06,610.6402049064636,611.0064249038696,2,,4,3,brightness,readingArea,realistic,75,2023-03-22_13h19.33.647,tripletExp_regina_11082022,2022.2.4,119.99599470156237,
8,12,4,0,0.25,1.0,0,0.027777777777778,3.10526315789474,0,0.694444444444444,0.298245614035088,ReadingArea_rsl0-rcl25-esl100-rsm0-rcm2-esm310-rsr0-rcr69-esr29,exr/ReadingArea_rsl0-rcl25-esl100-rsm0-rcm2-esm310-rsr0-rcr69-esr29.exr,ReadingArea_rsl0-rcl25-esl100-rsm0-rcm2-esm310-rsr0-rcr69-esr29.npz,,,,,0,87,87,30,,left,green,2.87,614.5054588317871,614.8678879737854,2,,4,3,brightness,readingArea,realistic,75,2023-03-22_13h19.33.647,tripletExp_regina_11082022,2022.2.4,119.99599470156237,
5,13,6,0,1.0,0.298245614035088,0,0.111111111111111,3.10526315789474,0,0.027777777777778,1.0,ReadingArea_rsl0-rcl100-esl29-rsm0-rcm11-esm310-rsr0-rcr2-esr100,exr/ReadingArea_rsl0-rcl100-esl29-rsm0-rcm11-esm310-rsr0-rcr2-esr100.exr,ReadingArea_rsl0-rcl100-esl29-rsm0-rcm11-esm310-rsr0-rcr2-esr100.npz,,,,,0,88,88,263,,left,green,1.09,616.5625898838043,616.926332950592,2,,4,3,brightness,readingArea,realistic,75,2023-03-22_13h19.33.647,tripletExp_regina_11082022,2022.2.4,119.99599470156237,
8,6,11,0,0.25,1.0,0,0.027777777777778,1.0,0,1.0,1.0,ReadingArea_rsl0-rcl25-esl100-rsm0-rcm2-esm100-rsr0-rcr100-esr100,exr/ReadingArea_rsl0-rcl25-esl100-rsm0-rcm2-esm100-rsr0-rcr100-esr100.exr,ReadingArea_rsl0-rcl25-esl100-rsm0-rcm2-esm100-rsr0-rcr100-esr100.npz,,,,,0,89,89,236,,left,green,1.34,618.624794960022,618.9931259155273,2,,4,3,brightness,readingArea,realistic,75,2023-03-22_13h19.33.647,tripletExp_regina_11082022,2022.2.4,119.99599470156237,
10,11,4,0,0.694444444444444,1.0,0,1.0,1.0,0,0.694444444444444,0.298245614035088,ReadingArea_rsl0-rcl69-esl100-rsm0-rcm100-esm100-rsr0-rcr69-esr29,exr/ReadingArea_rsl0-rcl69-esl100-rsm0-rcm100-esm100-rsr0-rcr69-esr29.exr,ReadingArea_rsl0-rcl69-esl100-rsm0-rcm100-esm100-rsr0-rcr69-esr29.npz,,,,,0,90,90,239,,left,green,2.06,622.4671239852905,622.8456587791443,2,,4,3,brightness,readingArea,realistic,75,2023-03-22_13h19.33.647,tripletExp_regina_11082022,2022.2.4,119.99599470156237,
3,6,10,0,0.444444444444444,0.298245614035088,0,0.027777777777778,1.0,0,0.694444444444444,1.0,ReadingArea_rsl0-rcl44-esl29-rsm0-rcm2-esm100-rsr0-rcr69-esr100,exr/ReadingArea_rsl0-rcl44-esl29-rsm0-rcm2-esm100-rsr0-rcr69-esr100.exr,ReadingArea_rsl0-rcl44-esl29-rsm0-rcm2-esm100-rsr0-rcr69-esr100.npz,,,,,0,91,91,138,,left,green,1.36,624.5407898426056,624.8978247642517,2,,4,3,brightness,readingArea,realistic,75,2023-03-22_13h19.33.647,tripletExp_regina_11082022,2022.2.4,119.99599470156237,
8,14,6,0,0.25,1.0,0,0.25,3.10526315789474,0,0.027777777777778,1.0,ReadingArea_rsl0-rcl25-esl100-rsm0-rcm25-esm310-rsr0-rcr2-esr100,exr/ReadingArea_rsl0-rcl25-esl100-rsm0-rcm25-esm310-rsr0-rcr2-esr100.exr,ReadingArea_rsl0-rcl25-esl100-rsm0-rcm25-esm310-rsr0-rcr2-esr100.npz,,,,,0,92,92,469,,left,green,2.63,628.3674259185791,,2,,4,3,brightness,readingArea,realistic,75,2023-03-22_13h19.33.647,tripletExp_regina_11082022,2022.2.4,119.99599470156237,
1,5,8,0,0.111111111111111,0.298245614035088,0,1.0,0.298245614035088,0,0.25,1.0,ReadingArea_rsl0-rcl11-esl29-rsm0-rcm100-esm29-rsr0-rcr25-esr100,exr/ReadingArea_rsl0-rcl11-esl29-rsm0-rcm100-esm29-rsr0-rcr25-esr100.exr,ReadingArea_rsl0-rcl11-esl29-rsm0-rcm100-esm29-rsr0-rcr25-esr100.npz,,,,,0,93,93,238,,right,red,1.83,632.1945607662201,632.5630419254303,2,,4,3,brightness,readingArea,realistic,75,2023-03-22_13h19.33.647,tripletExp_regina_11082022,2022.2.4,119.99599470156237,
4,12,5,0,0.694444444444444,0.298245614035088,0,0.027777777777778,3.10526315789474,0,1.0,0.298245614035088,ReadingArea_rsl0-rcl69-esl29-rsm0-rcm2-esm310-rsr0-rcr100-esr29,exr/ReadingArea_rsl0-rcl69-esl29-rsm0-rcm2-esm310-rsr0-rcr100-esr29.exr,ReadingArea_rsl0-rcl69-esl29-rsm0-rcm2-esm310-rsr0-rcr100-esr29.npz,,,,,0,94,94,296,,left,green,1.82,636.0628907680511,636.4283838272095,2,,4,3,brightness,readingArea,realistic,75,2023-03-22_13h19.33.647,tripletExp_regina_11082022,2022.2.4,119.99599470156237,
11,8,10,0,1.0,1.0,0,0.25,1.0,0,0.694444444444444,1.0,ReadingArea_rsl0-rcl100-esl100-rsm0-rcm25-esm100-rsr0-rcr69-esr100,exr/ReadingArea_rsl0-rcl100-esl100-rsm0-rcm25-esm100-rsr0-rcr69-esr100.exr,ReadingArea_rsl0-rcl100-esl100-rsm0-rcm25-esm100-rsr0-rcr69-esr100.npz,,,,,0,95,95,67,,right,red,1.95,639.9251627922058,640.3041369915009,2,,4,3,brightness,readingArea,realistic,75,2023-03-22_13h19.33.647,tripletExp_regina_11082022,2022.2.4,119.99599470156237,
4,3,10,0,0.694444444444444,0.298245614035088,0,0.444444444444444,0.298245614035088,0,0.694444444444444,1.0,ReadingArea_rsl0-rcl69-esl29-rsm0-rcm44-esm29-rsr0-rcr69-esr100,exr/ReadingArea_rsl0-rcl69-esl29-rsm0-rcm44-esm29-rsr0-rcr69-esr100.exr,ReadingArea_rsl0-rcl69-esl29-rsm0-rcm44-esm29-rsr0-rcr69-esr100.npz,,,,,0,96,96,371,,left,green,1.03,642.0081307888031,642.3708717823029,2,,4,3,brightness,readingArea,realistic,75,2023-03-22_13h19.33.647,tripletExp_regina_11082022,2022.2.4,119.99599470156237,
1,10,7,0,0.111111111111111,0.298245614035088,0,0.694444444444444,1.0,0,0.111111111111111,1.0,ReadingArea_rsl0-rcl11-esl29-rsm0-rcm69-esm100-rsr0-rcr11-esr100,exr/ReadingArea_rsl0-rcl11-esl29-rsm0-rcm69-esm100-rsr0-rcr11-esr100.exr,ReadingArea_rsl0-rcl11-esl29-rsm0-rcm69-esm100-rsr0-rcr11-esr100.npz,,,,,0,97,97,94,,right,red,2.57,645.8700048923492,,2,,4,3,brightness,readingArea,realistic,75,2023-03-22_13h19.33.647,tripletExp_regina_11082022,2022.2.4,119.99599470156237,
5,13,7,0,1.0,0.298245614035088,0,0.111111111111111,3.10526315789474,0,0.111111111111111,1.0,ReadingArea_rsl0-rcl100-esl29-rsm0-rcm11-esm310-rsr0-rcr11-esr100,exr/ReadingArea_rsl0-rcl100-esl29-rsm0-rcm11-esm310-rsr0-rcr11-esr100.exr,ReadingArea_rsl0-rcl100-esl29-rsm0-rcm11-esm310-rsr0-rcr11-esr100.npz,,,,,0,98,98,189,,left,green,0.8,647.9952309131622,,2,,4,3,brightness,readingArea,realistic,75,2023-03-22_13h19.33.647,tripletExp_regina_11082022,2022.2.4,119.99599470156237,
1,8,12,0,0.111111111111111,0.298245614035088,0,0.25,1.0,0,0.027777777777778,3.10526315789474,ReadingArea_rsl0-rcl11-esl29-rsm0-rcm25-esm100-rsr0-rcr2-esr310,exr/ReadingArea_rsl0-rcl11-esl29-rsm0-rcm25-esm100-rsr0-rcr2-esr310.exr,ReadingArea_rsl0-rcl11-esl29-rsm0-rcm25-esm100-rsr0-rcr2-esr310.npz,,,,,0,99,99,156,,right,red,2.2,651.8774099349976,652.3363699913025,2,,4,3,brightness,readingArea,realistic,75,2023-03-22_13h19.33.647,tripletExp_regina_11082022,2022.2.4,119.99599470156237,
10,12,9,0,0.694444444444444,1.0,0,0.027777777777778,3.10526315789474,0,0.444444444444444,1.0,ReadingArea_rsl0-rcl69-esl100-rsm0-rcm2-esm310-rsr0-rcr44-esr100,exr/ReadingArea_rsl0-rcl69-esl100-rsm0-rcm2-esm310-rsr0-rcr44-esr100.exr,ReadingArea_rsl0-rcl69-esl100-rsm0-rcm2-esm310-rsr0-rcr44-esr100.npz,,,,,0,100,100,405,,right,red,2.08,655.8012068271637,656.1660549640656,2,,4,3,brightness,readingArea,realistic,75,2023-03-22_13h19.33.647,tripletExp_regina_11082022,2022.2.4,119.99599470156237,
3,4,13,0,0.444444444444444,0.298245614035088,0,0.694444444444444,0.298245614035088,0,0.111111111111111,3.10526315789474,ReadingArea_rsl0-rcl44-esl29-rsm0-rcm69-esm29-rsr0-rcr11-esr310,exr/ReadingArea_rsl0-rcl44-esl29-rsm0-rcm69-esm29-rsr0-rcr11-esr310.exr,ReadingArea_rsl0-rcl44-esl29-rsm0-rcm69-esm29-rsr0-rcr11-esr310.npz,,,,,0,101,101,63,,right,red,1.92,659.6324579715729,659.9985659122467,2,,4,3,brightness,readingArea,realistic,75,2023-03-22_13h19.33.647,tripletExp_regina_11082022,2022.2.4,119.99599470156237,
11,5,3,0,1.0,1.0,0,1.0,0.298245614035088,0,0.444444444444444,0.298245614035088,ReadingArea_rsl0-rcl100-esl100-rsm0-rcm100-esm29-rsr0-rcr44-esr29,exr/ReadingArea_rsl0-rcl100-esl100-rsm0-rcm100-esm29-rsr0-rcr44-esr29.exr,ReadingArea_rsl0-rcl100-esl100-rsm0-rcm100-esm29-rsr0-rcr44-esr29.npz,,,,,0,102,102,172,,right,red,1.97,663.4736568927765,663.8516979217529,2,,4,3,brightness,readingArea,realistic,75,2023-03-22_13h19.33.647,tripletExp_regina_11082022,2022.2.4,119.99599470156237,
13,9,4,0,0.111111111111111,3.10526315789474,0,0.444444444444444,1.0,0,0.694444444444444,0.298245614035088,ReadingArea_rsl0-rcl11-esl310-rsm0-rcm44-esm100-rsr0-rcr69-esr29,exr/ReadingArea_rsl0-rcl11-esl310-rsm0-rcm44-esm100-rsr0-rcr69-esr29.exr,ReadingArea_rsl0-rcl11-esl310-rsm0-rcm44-esm100-rsr0-rcr69-esr29.npz,,,,,0,103,103,444,,left,green,3.77,669.0861868858337,669.4563598632812,2,,4,3,brightness,readingArea,realistic,75,2023-03-22_13h19.33.647,tripletExp_regina_11082022,2022.2.4,119.99599470156237,
3,14,4,0,0.444444444444444,0.298245614035088,0,0.25,3.10526315789474,0,0.694444444444444,0.298245614035088,ReadingArea_rsl0-rcl44-esl29-rsm0-rcm25-esm310-rsr0-rcr69-esr29,exr/ReadingArea_rsl0-rcl44-esl29-rsm0-rcm25-esm310-rsr0-rcr69-esr29.exr,ReadingArea_rsl0-rcl44-esl29-rsm0-rcm25-esm310-rsr0-rcr69-esr29.npz,,,,,0,104,104,537,,right,red,1.87,672.9268839359283,673.2952768802643,2,,4,3,brightness,readingArea,realistic,75,2023-03-22_13h19.33.647,tripletExp_regina_11082022,2022.2.4,119.99599470156237,
4,9,13,0,0.694444444444444,0.298245614035088,0,0.444444444444444,1.0,0,0.111111111111111,3.10526315789474,ReadingArea_rsl0-rcl69-esl29-rsm0-rcm44-esm100-rsr0-rcr11-esr310,exr/ReadingArea_rsl0-rcl69-esl29-rsm0-rcm44-esm100-rsr0-rcr11-esr310.exr,ReadingArea_rsl0-rcl69-esl29-rsm0-rcm44-esm100-rsr0-rcr11-esr310.npz,,,,,0,105,105,488,,right,red,1.85,676.754056930542,677.1150648593903,2,,4,3,brightness,readingArea,realistic,75,2023-03-22_13h19.33.647,tripletExp_regina_11082022,2022.2.4,119.99599470156237,
13,6,12,0,0.111111111111111,3.10526315789474,0,0.027777777777778,1.0,0,0.027777777777778,3.10526315789474,ReadingArea_rsl0-rcl11-esl310-rsm0-rcm2-esm100-rsr0-rcr2-esr310,exr/ReadingArea_rsl0-rcl11-esl310-rsm0-rcm2-esm100-rsr0-rcr2-esr310.exr,ReadingArea_rsl0-rcl11-esl310-rsm0-rcm2-esm100-rsr0-rcr2-esr310.npz,,,,,0,106,106,147,,right,red,0.96,678.8090918064117,679.1745059490204,2,,4,3,brightness,readingArea,realistic,75,2023-03-22_13h19.33.647,tripletExp_regina_11082022,2022.2.4,119.99599470156237,
11,1,12,0,1.0,1.0,0,0.111111111111111,0.298245614035088,0,0.027777777777778,3.10526315789474,ReadingArea_rsl0-rcl100-esl100-rsm0-rcm11-esm29-rsr0-rcr2-esr310,exr/ReadingArea_rsl0-rcl100-esl100-rsm0-rcm11-esm29-rsr0-rcr2-esr310.exr,ReadingArea_rsl0-rcl100-esl100-rsm0-rcm11-esm29-rsr0-rcr2-esr310.npz,,,,,0,107,107,339,,right,red,0.7,680.8707048892975,681.2435538768768,2,,4,3,brightness,readingArea,realistic,75,2023-03-22_13h19.33.647,tripletExp_regina_11082022,2022.2.4,119.99599470156237,
11,7,14,0,1.0,1.0,0,0.111111111111111,1.0,0,0.25,3.10526315789474,ReadingArea_rsl0-rcl100-esl100-rsm0-rcm11-esm100-rsr0-rcr25-esr310,exr/ReadingArea_rsl0-rcl100-esl100-rsm0-rcm11-esm100-rsr0-rcr25-esr310.exr,ReadingArea_rsl0-rcl100-esl100-rsm0-rcm11-esm100-rsr0-rcr25-esr310.npz,,,,,0,108,108,119,,right,red,2.06,684.720556974411,685.0900239944458,2,,4,3,brightness,readingArea,realistic,75,2023-03-22_13h19.33.647,tripletExp_regina_11082022,2022.2.4,119.99599470156237,
11,6,14,0,1.0,1.0,0,0.027777777777778,1.0,0,0.25,3.10526315789474,ReadingArea_rsl0-rcl100-esl100-rsm0-rcm2-esm100-rsr0-rcr25-esr310,exr/ReadingArea_rsl0-rcl100-esl100-rsm0-rcm2-esm100-rsr0-rcr25-esr310.exr,ReadingArea_rsl0-rcl100-esl100-rsm0-rcm2-esm100-rsr0-rcr25-esr310.npz,,,,,0,109,109,305,,right,red,2.19,688.5539088249207,688.9320769309998,2,,4,3,brightness,readingArea,realistic,75,2023-03-22_13h19.33.647,tripletExp_regina_11082022,2022.2.4,119.99599470156237,
14,6,12,0,0.25,3.10526315789474,0,0.027777777777778,1.0,0,0.027777777777778,3.10526315789474,ReadingArea_rsl0-rcl25-esl310-rsm0-rcm2-esm100-rsr0-rcr2-esr310,exr/ReadingArea_rsl0-rcl25-esl310-rsm0-rcm2-esm100-rsr0-rcr2-esr310.exr,ReadingArea_rsl0-rcl25-esl310-rsm0-rcm2-esm100-rsr0-rcr2-esr310.npz,,,,,0,110,110,242,,right,red,1.01,690.6353938579559,,2,,4,3,brightness,readingArea,realistic,75,2023-03-22_13h19.33.647,tripletExp_regina_11082022,2022.2.4,119.99599470156237,
4,6,3,0,0.694444444444444,0.298245614035088,0,0.027777777777778,1.0,0,0.444444444444444,0.298245614035088,ReadingArea_rsl0-rcl69-esl29-rsm0-rcm2-esm100-rsr0-rcr44-esr29,exr/ReadingArea_rsl0-rcl69-esl29-rsm0-rcm2-esm100-rsr0-rcr44-esr29.exr,ReadingArea_rsl0-rcl69-esl29-rsm0-rcm2-esm100-rsr0-rcr44-esr29.npz,,,,,0,111,111,344,,right,red,2.29,694.4736378192902,694.841050863266,2,,4,3,brightness,readingArea,realistic,75,2023-03-22_13h19.33.647,tripletExp_regina_11082022,2022.2.4,119.99599470156237,
11,7,10,0,1.0,1.0,0,0.111111111111111,1.0,0,0.694444444444444,1.0,ReadingArea_rsl0-rcl100-esl100-rsm0-rcm11-esm100-rsr0-rcr69-esr100,exr/ReadingArea_rsl0-rcl100-esl100-rsm0-rcm11-esm100-rsr0-rcr69-esr100.exr,ReadingArea_rsl0-rcl100-esl100-rsm0-rcm11-esm100-rsr0-rcr69-esr100.npz,,,,,0,112,112,411,,right,red,2.07,698.3412499427795,698.7194759845734,2,,4,3,brightness,readingArea,realistic,75,2023-03-22_13h19.33.647,tripletExp_regina_11082022,2022.2.4,119.99599470156237,
5,8,7,0,1.0,0.298245614035088,0,0.25,1.0,0,0.111111111111111,1.0,ReadingArea_rsl0-rcl100-esl29-rsm0-rcm25-esm100-rsr0-rcr11-esr100,exr/ReadingArea_rsl0-rcl100-esl29-rsm0-rcm25-esm100-rsr0-rcr11-esr100.exr,ReadingArea_rsl0-rcl100-esl29-rsm0-rcm25-esm100-rsr0-rcr11-esr100.npz,,,,,0,113,113,36,,left,green,1.14,700.4387028217316,700.9024169445038,2,,4,3,brightness,readingArea,realistic,75,2023-03-22_13h19.33.647,tripletExp_regina_11082022,2022.2.4,119.99599470156237,
13,8,14,0,0.111111111111111,3.10526315789474,0,0.25,1.0,0,0.25,3.10526315789474,ReadingArea_rsl0-rcl11-esl310-rsm0-rcm25-esm100-rsr0-rcr25-esr310,exr/ReadingArea_rsl0-rcl11-esl310-rsm0-rcm25-esm100-rsr0-rcr25-esr310.exr,ReadingArea_rsl0-rcl11-esl310-rsm0-rcm25-esm100-rsr0-rcr25-esr310.npz,,,,,0,114,114,345,,left,green,0.95,702.5979290008545,702.9673538208008,2,,4,3,brightness,readingArea,realistic,75,2023-03-22_13h19.33.647,tripletExp_regina_11082022,2022.2.4,119.99599470156237,
4,8,14,0,0.694444444444444,0.298245614035088,0,0.25,1.0,0,0.25,3.10526315789474,ReadingArea_rsl0-rcl69-esl29-rsm0-rcm25-esm100-rsr0-rcr25-esr310,exr/ReadingArea_rsl0-rcl69-esl29-rsm0-rcm25-esm100-rsr0-rcr25-esr310.exr,ReadingArea_rsl0-rcl69-esl29-rsm0-rcm25-esm100-rsr0-rcr25-esr310.npz,,,,,0,115,115,234,,left,green,0.7,704.6707479953766,,2,,4,3,brightness,readingArea,realistic,75,2023-03-22_13h19.33.647,tripletExp_regina_11082022,2022.2.4,119.99599470156237,
10,4,8,0,0.694444444444444,1.0,0,0.694444444444444,0.298245614035088,0,0.25,1.0,ReadingArea_rsl0-rcl69-esl100-rsm0-rcm69-esm29-rsr0-rcr25-esr100,exr/ReadingArea_rsl0-rcl69-esl100-rsm0-rcm69-esm29-rsr0-rcr25-esr100.exr,ReadingArea_rsl0-rcl69-esl100-rsm0-rcm69-esm29-rsr0-rcr25-esr100.npz,,,,,0,116,116,562,,right,red,0.72,706.7664229869843,707.1308817863464,2,,4,3,brightness,readingArea,realistic,75,2023-03-22_13h19.33.647,tripletExp_regina_11082022,2022.2.4,119.99599470156237,
4,1,3,0,0.694444444444444,0.298245614035088,0,0.111111111111111,0.298245614035088,0,0.444444444444444,0.298245614035088,ReadingArea_rsl0-rcl69-esl29-rsm0-rcm11-esm29-rsr0-rcr44-esr29,exr/ReadingArea_rsl0-rcl69-esl29-rsm0-rcm11-esm29-rsr0-rcr44-esr29.exr,ReadingArea_rsl0-rcl69-esl29-rsm0-rcm11-esm29-rsr0-rcr44-esr29.npz,,,,,0,117,117,70,,right,red,1.96,710.6213669776917,,2,,4,3,brightness,readingArea,realistic,75,2023-03-22_13h19.33.647,tripletExp_regina_11082022,2022.2.4,119.99599470156237,
4,8,3,0,0.694444444444444,0.298245614035088,0,0.25,1.0,0,0.444444444444444,0.298245614035088,ReadingArea_rsl0-rcl69-esl29-rsm0-rcm25-esm100-rsr0-rcr44-esr29,exr/ReadingArea_rsl0-rcl69-esl29-rsm0-rcm25-esm100-rsr0-rcr44-esr29.exr,ReadingArea_rsl0-rcl69-esl29-rsm0-rcm25-esm100-rsr0-rcr44-esr29.npz,,,,,0,118,118,292,,left,green,2.24,714.453418970108,714.8311100006104,2,,4,3,brightness,readingArea,realistic,75,2023-03-22_13h19.33.647,tripletExp_regina_11082022,2022.2.4,119.99599470156237,
10,7,8,0,0.694444444444444,1.0,0,0.111111111111111,1.0,0,0.25,1.0,ReadingArea_rsl0-rcl69-esl100-rsm0-rcm11-esm100-rsr0-rcr25-esr100,exr/ReadingArea_rsl0-rcl69-esl100-rsm0-rcm11-esm100-rsr0-rcr25-esr100.exr,ReadingArea_rsl0-rcl69-esl100-rsm0-rcm11-esm100-rsr0-rcr25-esr100.npz,,,,,0,119,119,57,,right,red,2.52,718.2828757762909,718.6474258899689,2,,4,3,brightness,readingArea,realistic,75,2023-03-22_13h19.33.647,tripletExp_regina_11082022,2022.2.4,119.99599470156237,
12,1,2,0,0.027777777777778,3.10526315789474,0,0.111111111111111,0.298245614035088,0,0.25,0.298245614035088,ReadingArea_rsl0-rcl2-esl310-rsm0-rcm11-esm29-rsr0-rcr25-esr29,exr/ReadingArea_rsl0-rcl2-esl310-rsm0-rcm11-esm29-rsr0-rcr25-esr29.exr,ReadingArea_rsl0-rcl2-esl310-rsm0-rcm11-esm29-rsr0-rcr25-esr29.npz,,,,,0,120,120,231,,right,red,4.55,723.9013588428497,724.3592088222504,2,,4,3,brightness,readingArea,realistic,75,2023-03-22_13h19.33.647,tripletExp_regina_11082022,2022.2.4,119.99599470156237,
8,12,7,0,0.25,1.0,0,0.027777777777778,3.10526315789474,0,0.111111111111111,1.0,ReadingArea_rsl0-rcl25-esl100-rsm0-rcm2-esm310-rsr0-rcr11-esr100,exr/ReadingArea_rsl0-rcl25-esl100-rsm0-rcm2-esm310-rsr0-rcr11-esr100.exr,ReadingArea_rsl0-rcl25-esl100-rsm0-rcm2-esm310-rsr0-rcr11-esr100.npz,,,,,0,121,121,467,,right,red,2.28,727.8196649551392,728.1957218647003,2,,4,3,brightness,readingArea,realistic,75,2023-03-22_13h19.33.647,tripletExp_regina_11082022,2022.2.4,119.99599470156237,
10,11,0,0,0.694444444444444,1.0,0,1.0,1.0,0,0.027777777777778,0.298245614035088,ReadingArea_rsl0-rcl69-esl100-rsm0-rcm100-esm100-rsr0-rcr2-esr29,exr/ReadingArea_rsl0-rcl69-esl100-rsm0-rcm100-esm100-rsr0-rcr2-esr29.exr,ReadingArea_rsl0-rcl69-esl100-rsm0-rcm100-esm100-rsr0-rcr2-esr29.npz,,,,,0,122,122,58,,left,green,0.72,729.9059448242188,730.2739748954773,2,,4,3,brightness,readingArea,realistic,75,2023-03-22_13h19.33.647,tripletExp_regina_11082022,2022.2.4,119.99599470156237,
4,7,5,0,0.694444444444444,0.298245614035088,0,0.111111111111111,1.0,0,1.0,0.298245614035088,ReadingArea_rsl0-rcl69-esl29-rsm0-rcm11-esm100-rsr0-rcr100-esr29,exr/ReadingArea_rsl0-rcl69-esl29-rsm0-rcm11-esm100-rsr0-rcr100-esr29.exr,ReadingArea_rsl0-rcl69-esl29-rsm0-rcm11-esm100-rsr0-rcr100-esr29.npz,,,,,0,123,123,195,,left,green,1.07,731.9809668064117,732.3458018302917,2,,4,3,brightness,readingArea,realistic,75,2023-03-22_13h19.33.647,tripletExp_regina_11082022,2022.2.4,119.99599470156237,
11,12,4,0,1.0,1.0,0,0.027777777777778,3.10526315789474,0,0.694444444444444,0.298245614035088,ReadingArea_rsl0-rcl100-esl100-rsm0-rcm2-esm310-rsr0-rcr69-esr29,exr/ReadingArea_rsl0-rcl100-esl100-rsm0-rcm2-esm310-rsr0-rcr69-esr29.exr,ReadingArea_rsl0-rcl100-esl100-rsm0-rcm2-esm310-rsr0-rcr69-esr29.npz,,,,,0,124,124,250,,right,red,2.42,735.8330039978027,736.1974427700043,2,,4,3,brightness,readingArea,realistic,75,2023-03-22_13h19.33.647,tripletExp_regina_11082022,2022.2.4,119.99599470156237,
14,2,6,0,0.25,3.10526315789474,0,0.25,0.298245614035088,0,0.027777777777778,1.0,ReadingArea_rsl0-rcl25-esl310-rsm0-rcm25-esm29-rsr0-rcr2-esr100,exr/ReadingArea_rsl0-rcl25-esl310-rsm0-rcm25-esm29-rsr0-rcr2-esr100.exr,ReadingArea_rsl0-rcl25-esl310-rsm0-rcm25-esm29-rsr0-rcr2-esr100.npz,,,,,0,125,125,350,,right,red,1.24,737.9187409877777,738.2833647727966,2,,4,3,brightness,readingArea,realistic,75,2023-03-22_13h19.33.647,tripletExp_regina_11082022,2022.2.4,119.99599470156237,
13,11,7,0,0.111111111111111,3.10526315789474,0,1.0,1.0,0,0.111111111111111,1.0,ReadingArea_rsl0-rcl11-esl310-rsm0-rcm100-esm100-rsr0-rcr11-esr100,exr/ReadingArea_rsl0-rcl11-esl310-rsm0-rcm100-esm100-rsr0-rcr11-esr100.exr,ReadingArea_rsl0-rcl11-esl310-rsm0-rcm100-esm100-rsr0-rcr11-esr100.npz,,,,,0,126,126,590,,left,green,1.92,741.752781867981,742.119218826294,2,,4,3,brightness,readingArea,realistic,75,2023-03-22_13h19.33.647,tripletExp_regina_11082022,2022.2.4,119.99599470156237,
4,0,1,0,0.694444444444444,0.298245614035088,0,0.027777777777778,0.298245614035088,0,0.111111111111111,0.298245614035088,ReadingArea_rsl0-rcl69-esl29-rsm0-rcm2-esm29-rsr0-rcr11-esr29,exr/ReadingArea_rsl0-rcl69-esl29-rsm0-rcm2-esm29-rsr0-rcr11-esr29.exr,ReadingArea_rsl0-rcl69-esl29-rsm0-rcm2-esm29-rsr0-rcr11-esr29.npz,,,,,0,127,127,173,,right,red,0.73,743.8368508815765,744.2063779830933,2,,4,3,brightness,readingArea,realistic,75,2023-03-22_13h19.33.647,tripletExp_regina_11082022,2022.2.4,119.99599470156237,
14,11,3,0,0.25,3.10526315789474,0,1.0,1.0,0,0.444444444444444,0.298245614035088,ReadingArea_rsl0-rcl25-esl310-rsm0-rcm100-esm100-rsr0-rcr44-esr29,exr/ReadingArea_rsl0-rcl25-esl310-rsm0-rcm100-esm100-rsr0-rcr44-esr29.exr,ReadingArea_rsl0-rcl25-esl310-rsm0-rcm100-esm100-rsr0-rcr44-esr29.npz,,,,,0,128,128,78,,left,green,0.8,745.9125688076019,746.2829508781433,2,,4,3,brightness,readingArea,realistic,75,2023-03-22_13h19.33.647,tripletExp_regina_11082022,2022.2.4,119.99599470156237,
12,8,10,0,0.027777777777778,3.10526315789474,0,0.25,1.0,0,0.694444444444444,1.0,ReadingArea_rsl0-rcl2-esl310-rsm0-rcm25-esm100-rsr0-rcr69-esr100,exr/ReadingArea_rsl0-rcl2-esl310-rsm0-rcm25-esm100-rsr0-rcr69-esr100.exr,ReadingArea_rsl0-rcl2-esl310-rsm0-rcm25-esm100-rsr0-rcr69-esr100.npz,,,,,0,129,129,216,,left,green,4.61,751.5143818855286,751.9703369140625,2,,4,3,brightness,readingArea,realistic,75,2023-03-22_13h19.33.647,tripletExp_regina_11082022,2022.2.4,119.99599470156237,
3,9,0,0,0.444444444444444,0.298245614035088,0,0.444444444444444,1.0,0,0.027777777777778,0.298245614035088,ReadingArea_rsl0-rcl44-esl29-rsm0-rcm44-esm100-rsr0-rcr2-esr29,exr/ReadingArea_rsl0-rcl44-esl29-rsm0-rcm44-esm100-rsr0-rcr2-esr29.exr,ReadingArea_rsl0-rcl44-esl29-rsm0-rcm44-esm100-rsr0-rcr2-esr29.npz,,,,,0,130,130,551,,left,green,2.01,755.4327988624573,755.8125607967377,2,,4,3,brightness,readingArea,realistic,75,2023-03-22_13h19.33.647,tripletExp_regina_11082022,2022.2.4,119.99599470156237,
3,2,11,0,0.444444444444444,0.298245614035088,0,0.25,0.298245614035088,0,1.0,1.0,ReadingArea_rsl0-rcl44-esl29-rsm0-rcm25-esm29-rsr0-rcr100-esr100,exr/ReadingArea_rsl0-rcl44-esl29-rsm0-rcm25-esm29-rsr0-rcr100-esr100.exr,ReadingArea_rsl0-rcl44-esl29-rsm0-rcm25-esm29-rsr0-rcr100-esr100.npz,,,,,0,131,131,257,,left,green,1.0,757.5020248889923,757.8878588676453,2,,4,3,brightness,readingArea,realistic,75,2023-03-22_13h19.33.647,tripletExp_regina_11082022,2022.2.4,119.99599470156237,
3,8,7,0,0.444444444444444,0.298245614035088,0,0.25,1.0,0,0.111111111111111,1.0,ReadingArea_rsl0-rcl44-esl29-rsm0-rcm25-esm100-rsr0-rcr11-esr100,exr/ReadingArea_rsl0-rcl44-esl29-rsm0-rcm25-esm100-rsr0-rcr11-esr100.exr,ReadingArea_rsl0-rcl44-esl29-rsm0-rcm25-esm100-rsr0-rcr11-esr100.npz,,,,,0,132,132,484,,left,green,2.01,761.3748049736023,761.7432389259338,2,,4,3,brightness,readingArea,realistic,75,2023-03-22_13h19.33.647,tripletExp_regina_11082022,2022.2.4,119.99599470156237,
2,8,3,0,0.25,0.298245614035088,0,0.25,1.0,0,0.444444444444444,0.298245614035088,ReadingArea_rsl0-rcl25-esl29-rsm0-rcm25-esm100-rsr0-rcr44-esr29,exr/ReadingArea_rsl0-rcl25-esl29-rsm0-rcm25-esm100-rsr0-rcr44-esr29.exr,ReadingArea_rsl0-rcl25-esl29-rsm0-rcm25-esm100-rsr0-rcr44-esr29.npz,,,,,0,133,133,568,,right,red,2.59,765.2445278167725,765.6315579414368,2,,4,3,brightness,readingArea,realistic,75,2023-03-22_13h19.33.647,tripletExp_regina_11082022,2022.2.4,119.99599470156237,
13,8,0,0,0.111111111111111,3.10526315789474,0,0.25,1.0,0,0.027777777777778,0.298245614035088,ReadingArea_rsl0-rcl11-esl310-rsm0-rcm25-esm100-rsr0-rcr2-esr29,exr/ReadingArea_rsl0-rcl11-esl310-rsm0-rcm25-esm100-rsr0-rcr2-esr29.exr,ReadingArea_rsl0-rcl11-esl310-rsm0-rcm25-esm100-rsr0-rcr2-esr29.npz,,,,,0,134,134,429,,left,green,0.78,767.348965883255,767.7318217754364,2,,4,3,brightness,readingArea,realistic,75,2023-03-22_13h19.33.647,tripletExp_regina_11082022,2022.2.4,119.99599470156237,
6,4,10,0,0.027777777777778,1.0,0,0.694444444444444,0.298245614035088,0,0.694444444444444,1.0,ReadingArea_rsl0-rcl2-esl100-rsm0-rcm69-esm29-rsr0-rcr69-esr100,exr/ReadingArea_rsl0-rcl2-esl100-rsm0-rcm69-esm29-rsr0-rcr69-esr100.exr,ReadingArea_rsl0-rcl2-esl100-rsm0-rcm69-esm29-rsr0-rcr69-esr100.npz,,,,,0,135,135,554,,right,red,2.48,771.202399969101,771.5731828212738,2,,4,3,brightness,readingArea,realistic,75,2023-03-22_13h19.33.647,tripletExp_regina_11082022,2022.2.4,119.99599470156237,
6,11,1,0,0.027777777777778,1.0,0,1.0,1.0,0,0.111111111111111,0.298245614035088,ReadingArea_rsl0-rcl2-esl100-rsm0-rcm100-esm100-rsr0-rcr11-esr29,exr/ReadingArea_rsl0-rcl2-esl100-rsm0-rcm100-esm100-rsr0-rcr11-esr29.exr,ReadingArea_rsl0-rcl2-esl100-rsm0-rcm100-esm100-rsr0-rcr11-esr29.npz,,,,,0,136,136,436,,left,green,2.35,775.0427148342133,775.4025008678436,2,,4,3,brightness,readingArea,realistic,75,2023-03-22_13h19.33.647,tripletExp_regina_11082022,2022.2.4,119.99599470156237,
1,12,10,0,0.111111111111111,0.298245614035088,0,0.027777777777778,3.10526315789474,0,0.694444444444444,1.0,ReadingArea_rsl0-rcl11-esl29-rsm0-rcm2-esm310-rsr0-rcr69-esr100,exr/ReadingArea_rsl0-rcl11-esl29-rsm0-rcm2-esm310-rsr0-rcr69-esr100.exr,ReadingArea_rsl0-rcl11-esl29-rsm0-rcm2-esm310-rsr0-rcr69-esr100.npz,,,,,0,137,137,567,,left,green,1.69,777.0999119281769,777.4827709197998,2,,4,3,brightness,readingArea,realistic,75,2023-03-22_13h19.33.647,tripletExp_regina_11082022,2022.2.4,119.99599470156237,
9,12,6,0,0.444444444444444,1.0,0,0.027777777777778,3.10526315789474,0,0.027777777777778,1.0,ReadingArea_rsl0-rcl44-esl100-rsm0-rcm2-esm310-rsr0-rcr2-esr100,exr/ReadingArea_rsl0-rcl44-esl100-rsm0-rcm2-esm310-rsr0-rcr2-esr100.exr,ReadingArea_rsl0-rcl44-esl100-rsm0-rcm2-esm310-rsr0-rcr2-esr100.npz,,,,,0,138,138,5,,left,green,4.79,782.7357239723206,783.1462218761444,2,,4,3,brightness,readingArea,realistic,75,2023-03-22_13h19.33.647,tripletExp_regina_11082022,2022.2.4,119.99599470156237,
1,4,7,0,0.111111111111111,0.298245614035088,0,0.694444444444444,0.298245614035088,0,0.111111111111111,1.0,ReadingArea_rsl0-rcl11-esl29-rsm0-rcm69-esm29-rsr0-rcr11-esr100,exr/ReadingArea_rsl0-rcl11-esl29-rsm0-rcm69-esm29-rsr0-rcr11-esr100.exr,ReadingArea_rsl0-rcl11-esl29-rsm0-rcm69-esm29-rsr0-rcr11-esr100.npz,,,,,0,139,139,522,,right,red,2.0,786.6137268543243,786.985426902771,2,,4,3,brightness,readingArea,realistic,75,2023-03-22_13h19.33.647,tripletExp_regina_11082022,2022.2.4,119.99599470156237,
12,7,1,0,0.027777777777778,3.10526315789474,0,0.111111111111111,1.0,0,0.111111111111111,0.298245614035088,ReadingArea_rsl0-rcl2-esl310-rsm0-rcm11-esm100-rsr0-rcr11-esr29,exr/ReadingArea_rsl0-rcl2-esl310-rsm0-rcm11-esm100-rsr0-rcr11-esr29.exr,ReadingArea_rsl0-rcl2-esl310-rsm0-rcm11-esm100-rsr0-rcr11-esr29.npz,,,,,0,140,140,264,,left,green,0.75,788.6844429969788,789.1508989334106,2,,4,3,brightness,readingArea,realistic,75,2023-03-22_13h19.33.647,tripletExp_regina_11082022,2022.2.4,119.99599470156237,
11,6,8,0,1.0,1.0,0,0.027777777777778,1.0,0,0.25,1.0,ReadingArea_rsl0-rcl100-esl100-rsm0-rcm2-esm100-rsr0-rcr25-esr100,exr/ReadingArea_rsl0-rcl100-esl100-rsm0-rcm2-esm100-rsr0-rcr25-esr100.exr,ReadingArea_rsl0-rcl100-esl100-rsm0-rcm2-esm100-rsr0-rcr25-esr100.npz,,,,,0,141,141,599,,right,red,2.19,792.6330108642578,793.0476868152618,2,,4,3,brightness,readingArea,realistic,75,2023-03-22_13h19.33.647,tripletExp_regina_11082022,2022.2.4,119.99599470156237,
2,14,9,0,0.25,0.298245614035088,0,0.25,3.10526315789474,0,0.444444444444444,1.0,ReadingArea_rsl0-rcl25-esl29-rsm0-rcm25-esm310-rsr0-rcr44-esr100,exr/ReadingArea_rsl0-rcl25-esl29-rsm0-rcm25-esm310-rsr0-rcr44-esr100.exr,ReadingArea_rsl0-rcl25-esl29-rsm0-rcm25-esm310-rsr0-rcr44-esr100.npz,,,,,0,142,142,51,,right,red,1.98,796.5268068313599,,2,,4,3,brightness,readingArea,realistic,75,2023-03-22_13h19.33.647,tripletExp_regina_11082022,2022.2.4,119.99599470156237,
10,13,1,0,0.694444444444444,1.0,0,0.111111111111111,3.10526315789474,0,0.111111111111111,0.298245614035088,ReadingArea_rsl0-rcl69-esl100-rsm0-rcm11-esm310-rsr0-rcr11-esr29,exr/ReadingArea_rsl0-rcl69-esl100-rsm0-rcm11-esm310-rsr0-rcr11-esr29.exr,ReadingArea_rsl0-rcl69-esl100-rsm0-rcm11-esm310-rsr0-rcr11-esr29.npz,,,,,0,143,143,149,,left,green,0.93,798.6092829704285,798.9740529060364,2,,4,3,brightness,readingArea,realistic,75,2023-03-22_13h19.33.647,tripletExp_regina_11082022,2022.2.4,119.99599470156237,
10,5,2,0,0.694444444444444,1.0,0,1.0,0.298245614035088,0,0.25,0.298245614035088,ReadingArea_rsl0-rcl69-esl100-rsm0-rcm100-esm29-rsr0-rcr25-esr29,exr/ReadingArea_rsl0-rcl69-esl100-rsm0-rcm100-esm29-rsr0-rcr25-esr29.exr,ReadingArea_rsl0-rcl69-esl100-rsm0-rcm100-esm29-rsr0-rcr25-esr29.npz,,,,,0,144,144,299,,right,red,4.68,804.2318248748779,804.613517999649,2,,4,3,brightness,readingArea,realistic,75,2023-03-22_13h19.33.647,tripletExp_regina_11082022,2022.2.4,119.99599470156237,
0,8,9,0,0.027777777777778,0.298245614035088,0,0.25,1.0,0,0.444444444444444,1.0,ReadingArea_rsl0-rcl2-esl29-rsm0-rcm25-esm100-rsr0-rcr44-esr100,exr/ReadingArea_rsl0-rcl2-esl29-rsm0-rcm25-esm100-rsr0-rcr44-esr100.exr,ReadingArea_rsl0-rcl2-esl29-rsm0-rcm25-esm100-rsr0-rcr44-esr100.npz,,,,,0,145,145,541,,right,red,3.8,809.8704957962036,,2,,4,3,brightness,readingArea,realistic,75,2023-03-22_13h19.33.647,tripletExp_regina_11082022,2022.2.4,119.99599470156237,
10,0,14,0,0.694444444444444,1.0,0,0.027777777777778,0.298245614035088,0,0.25,3.10526315789474,ReadingArea_rsl0-rcl69-esl100-rsm0-rcm2-esm29-rsr0-rcr25-esr310,exr/ReadingArea_rsl0-rcl69-esl100-rsm0-rcm2-esm29-rsr0-rcr25-esr310.exr,ReadingArea_rsl0-rcl69-esl100-rsm0-rcm2-esm29-rsr0-rcr25-esr310.npz,,,,,0,146,146,95,,left,green,2.08,813.738716840744,814.2167868614197,2,,4,3,brightness,readingArea,realistic,75,2023-03-22_13h19.33.647,tripletExp_regina_11082022,2022.2.4,119.99599470156237,
1,12,6,0,0.111111111111111,0.298245614035088,0,0.027777777777778,3.10526315789474,0,0.027777777777778,1.0,ReadingArea_rsl0-rcl11-esl29-rsm0-rcm2-esm310-rsr0-rcr2-esr100,exr/ReadingArea_rsl0-rcl11-esl29-rsm0-rcm2-esm310-rsr0-rcr2-esr100.exr,ReadingArea_rsl0-rcl11-esl29-rsm0-rcm2-esm310-rsr0-rcr2-esr100.npz,,,,,0,147,147,277,,left,green,2.74,817.691330909729,818.0622627735138,2,,4,3,brightness,readingArea,realistic,75,2023-03-22_13h19.33.647,tripletExp_regina_11082022,2022.2.4,119.99599470156237,
7,3,0,0,0.111111111111111,1.0,0,0.444444444444444,0.298245614035088,0,0.027777777777778,0.298245614035088,ReadingArea_rsl0-rcl11-esl100-rsm0-rcm44-esm29-rsr0-rcr2-esr29,exr/ReadingArea_rsl0-rcl11-esl100-rsm0-rcm44-esm29-rsr0-rcr2-esr29.exr,ReadingArea_rsl0-rcl11-esl100-rsm0-rcm44-esm29-rsr0-rcr2-esr29.npz,,,,,0,148,148,318,,left,green,0.9,819.7784509658813,820.1660878658295,2,,4,3,brightness,readingArea,realistic,75,2023-03-22_13h19.33.647,tripletExp_regina_11082022,2022.2.4,119.99599470156237,
1,14,6,0,0.111111111111111,0.298245614035088,0,0.25,3.10526315789474,0,0.027777777777778,1.0,ReadingArea_rsl0-rcl11-esl29-rsm0-rcm25-esm310-rsr0-rcr2-esr100,exr/ReadingArea_rsl0-rcl11-esl29-rsm0-rcm25-esm310-rsr0-rcr2-esr100.exr,ReadingArea_rsl0-rcl11-esl29-rsm0-rcm25-esm310-rsr0-rcr2-esr100.npz,,,,,0,149,149,475,,left,green,1.62,821.8577859401703,822.0627059936523,2,,4,3,brightness,readingArea,realistic,75,2023-03-22_13h19.33.647,tripletExp_regina_11082022,2022.2.4,119.99599470156237,
7,9,3,0,0.111111111111111,1.0,0,0.444444444444444,1.0,0,0.444444444444444,0.298245614035088,ReadingArea_rsl0-rcl11-esl100-rsm0-rcm44-esm100-rsr0-rcr44-esr29,exr/ReadingArea_rsl0-rcl11-esl100-rsm0-rcm44-esm100-rsr0-rcr44-esr29.exr,ReadingArea_rsl0-rcl11-esl100-rsm0-rcm44-esm100-rsr0-rcr44-esr29.npz,,,,,0,150,150,311,,right,red,2.98,864.0076279640198,864.3838489055634,3,,4,3,brightness,readingArea,realistic,75,2023-03-22_13h19.33.647,tripletExp_regina_11082022,2022.2.4,119.99599470156237,
11,13,1,0,1.0,1.0,0,0.111111111111111,3.10526315789474,0,0.111111111111111,0.298245614035088,ReadingArea_rsl0-rcl100-esl100-rsm0-rcm11-esm310-rsr0-rcr11-esr29,exr/ReadingArea_rsl0-rcl100-esl100-rsm0-rcm11-esm310-rsr0-rcr11-esr29.exr,ReadingArea_rsl0-rcl100-esl100-rsm0-rcm11-esm310-rsr0-rcr11-esr29.npz,,,,,0,151,151,185,,left,green,4.65,869.6350269317627,870.0953788757324,3,,4,3,brightness,readingArea,realistic,75,2023-03-22_13h19.33.647,tripletExp_regina_11082022,2022.2.4,119.99599470156237,
1,11,14,0,0.111111111111111,0.298245614035088,0,1.0,1.0,0,0.25,3.10526315789474,ReadingArea_rsl0-rcl11-esl29-rsm0-rcm100-esm100-rsr0-rcr25-esr310,exr/ReadingArea_rsl0-rcl11-esl29-rsm0-rcm100-esm100-rsr0-rcr25-esr310.exr,ReadingArea_rsl0-rcl11-esl29-rsm0-rcm100-esm100-rsr0-rcr25-esr310.npz,,,,,0,152,152,399,,right,red,1.53,871.7963538169861,872.1652028560638,3,,4,3,brightness,readingArea,realistic,75,2023-03-22_13h19.33.647,tripletExp_regina_11082022,2022.2.4,119.99599470156237,
13,10,12,0,0.111111111111111,3.10526315789474,0,0.694444444444444,1.0,0,0.027777777777778,3.10526315789474,ReadingArea_rsl0-rcl11-esl310-rsm0-rcm69-esm100-rsr0-rcr2-esr310,exr/ReadingArea_rsl0-rcl11-esl310-rsm0-rcm69-esm100-rsr0-rcr2-esr310.exr,ReadingArea_rsl0-rcl11-esl310-rsm0-rcm69-esm100-rsr0-rcr2-esr310.npz,,,,,0,153,153,384,,left,green,1.66,873.8723278045654,,3,,4,3,brightness,readingArea,realistic,75,2023-03-22_13h19.33.647,tripletExp_regina_11082022,2022.2.4,119.99599470156237,
2,4,14,0,0.25,0.298245614035088,0,0.694444444444444,0.298245614035088,0,0.25,3.10526315789474,ReadingArea_rsl0-rcl25-esl29-rsm0-rcm69-esm29-rsr0-rcr25-esr310,exr/ReadingArea_rsl0-rcl25-esl29-rsm0-rcm69-esm29-rsr0-rcr25-esr310.exr,ReadingArea_rsl0-rcl25-esl29-rsm0-rcm69-esm29-rsr0-rcr25-esr310.npz,,,,,0,154,154,356,,left,green,2.89,877.7135689258575,878.0824937820435,3,,4,3,brightness,readingArea,realistic,75,2023-03-22_13h19.33.647,tripletExp_regina_11082022,2022.2.4,119.99599470156237,
4,1,9,0,0.694444444444444,0.298245614035088,0,0.111111111111111,0.298245614035088,0,0.444444444444444,1.0,ReadingArea_rsl0-rcl69-esl29-rsm0-rcm11-esm29-rsr0-rcr44-esr100,exr/ReadingArea_rsl0-rcl69-esl29-rsm0-rcm11-esm29-rsr0-rcr44-esr100.exr,ReadingArea_rsl0-rcl69-esl29-rsm0-rcm11-esm29-rsr0-rcr44-esr100.npz,,,,,0,155,155,7,,left,green,2.36,881.5625879764557,881.9328198432922,3,,4,3,brightness,readingArea,realistic,75,2023-03-22_13h19.33.647,tripletExp_regina_11082022,2022.2.4,119.99599470156237,
12,6,3,0,0.027777777777778,3.10526315789474,0,0.027777777777778,1.0,0,0.444444444444444,0.298245614035088,ReadingArea_rsl0-rcl2-esl310-rsm0-rcm2-esm100-rsr0-rcr44-esr29,exr/ReadingArea_rsl0-rcl2-esl310-rsm0-rcm2-esm100-rsr0-rcr44-esr29.exr,ReadingArea_rsl0-rcl2-esl310-rsm0-rcm2-esm100-rsr0-rcr44-esr29.npz,,,,,0,156,156,139,,left,green,2.68,885.4069049358368,885.8127608299255,3,,4,3,brightness,readingArea,realistic,75,2023-03-22_13h19.33.647,tripletExp_regina_11082022,2022.2.4,119.99599470156237,
10,14,13,0,0.694444444444444,1.0,0,0.25,3.10526315789474,0,0.111111111111111,3.10526315789474,ReadingArea_rsl0-rcl69-esl100-rsm0-rcm25-esm310-rsr0-rcr11-esr310,exr/ReadingArea_rsl0-rcl69-esl100-rsm0-rcm25-esm310-rsr0-rcr11-esr310.exr,ReadingArea_rsl0-rcl69-esl100-rsm0-rcm25-esm310-rsr0-rcr11-esr310.npz,,,,,0,157,157,168,,left,green,1.54,887.5155589580536,887.8815109729767,3,,4,3,brightness,readingArea,realistic,75,2023-03-22_13h19.33.647,tripletExp_regina_11082022,2022.2.4,119.99599470156237,
6,13,8,0,0.027777777777778,1.0,0,0.111111111111111,3.10526315789474,0,0.25,1.0,ReadingArea_rsl0-rcl2-esl100-rsm0-rcm11-esm310-rsr0-rcr25-esr100,exr/ReadingArea_rsl0-rcl2-esl100-rsm0-rcm11-esm310-rsr0-rcr25-esr100.exr,ReadingArea_rsl0-rcl2-esl100-rsm0-rcm11-esm310-rsr0-rcr25-esr100.npz,,,,,0,158,158,535,,right,red,1.92,891.3527479171753,891.7258348464966,3,,4,3,brightness,readingArea,realistic,75,2023-03-22_13h19.33.647,tripletExp_regina_11082022,2022.2.4,119.99599470156237,
9,11,2,0,0.444444444444444,1.0,0,1.0,1.0,0,0.25,0.298245614035088,ReadingArea_rsl0-rcl44-esl100-rsm0-rcm100-esm100-rsr0-rcr25-esr29,exr/ReadingArea_rsl0-rcl44-esl100-rsm0-rcm100-esm100-rsr0-rcr25-esr29.exr,ReadingArea_rsl0-rcl44-esl100-rsm0-rcm100-esm100-rsr0-rcr25-esr29.npz,,,,,0,159,159,329,,left,green,1.24,893.4230749607086,893.7934818267822,3,,4,3,brightness,readingArea,realistic,75,2023-03-22_13h19.33.647,tripletExp_regina_11082022,2022.2.4,119.99599470156237,
12,6,9,0,0.027777777777778,3.10526315789474,0,0.027777777777778,1.0,0,0.444444444444444,1.0,ReadingArea_rsl0-rcl2-esl310-rsm0-rcm2-esm100-rsr0-rcr44-esr100,exr/ReadingArea_rsl0-rcl2-esl310-rsm0-rcm2-esm100-rsr0-rcr44-esr100.exr,ReadingArea_rsl0-rcl2-esl310-rsm0-rcm2-esm100-rsr0-rcr44-esr100.npz,,,,,0,160,160,177,,left,green,0.99,895.4981517791748,895.8548288345337,3,,4,3,brightness,readingArea,realistic,75,2023-03-22_13h19.33.647,tripletExp_regina_11082022,2022.2.4,119.99599470156237,
14,9,12,0,0.25,3.10526315789474,0,0.444444444444444,1.0,0,0.027777777777778,3.10526315789474,ReadingArea_rsl0-rcl25-esl310-rsm0-rcm44-esm100-rsr0-rcr2-esr310,exr/ReadingArea_rsl0-rcl25-esl310-rsm0-rcm44-esm100-rsr0-rcr2-esr310.exr,ReadingArea_rsl0-rcl25-esl310-rsm0-rcm44-esm100-rsr0-rcr2-esr310.npz,,,,,0,161,161,378,,left,green,3.5,899.3303859233856,899.7141308784485,3,,4,3,brightness,readingArea,realistic,75,2023-03-22_13h19.33.647,tripletExp_regina_11082022,2022.2.4,119.99599470156237,
4,3,1,0,0.694444444444444,0.298245614035088,0,0.444444444444444,0.298245614035088,0,0.111111111111111,0.298245614035088,ReadingArea_rsl0-rcl69-esl29-rsm0-rcm44-esm29-rsr0-rcr11-esr29,exr/ReadingArea_rsl0-rcl69-esl29-rsm0-rcm44-esm29-rsr0-rcr11-esr29.exr,ReadingArea_rsl0-rcl69-esl29-rsm0-rcm44-esm29-rsr0-rcr11-esr29.npz,,,,,0,162,162,60,,left,green,1.17,901.4154939651488,901.798539876938,3,,4,3,brightness,readingArea,realistic,75,2023-03-22_13h19.33.647,tripletExp_regina_11082022,2022.2.4,119.99599470156237,
8,4,2,0,0.25,1.0,0,0.694444444444444,0.298245614035088,0,0.25,0.298245614035088,ReadingArea_rsl0-rcl25-esl100-rsm0-rcm69-esm29-rsr0-rcr25-esr29,exr/ReadingArea_rsl0-rcl25-esl100-rsm0-rcm69-esm29-rsr0-rcr25-esr29.exr,ReadingArea_rsl0-rcl25-esl100-rsm0-rcm69-esm29-rsr0-rcr25-esr29.npz,,,,,0,163,163,184,,left,green,2.07,905.2695519924164,905.6471889019012,3,,4,3,brightness,readingArea,realistic,75,2023-03-22_13h19.33.647,tripletExp_regina_11082022,2022.2.4,119.99599470156237,
0,1,6,0,0.027777777777778,0.298245614035088,0,0.111111111111111,0.298245614035088,0,0.027777777777778,1.0,ReadingArea_rsl0-rcl2-esl29-rsm0-rcm11-esm29-rsr0-rcr2-esr100,exr/ReadingArea_rsl0-rcl2-esl29-rsm0-rcm11-esm29-rsr0-rcr2-esr100.exr,ReadingArea_rsl0-rcl2-esl29-rsm0-rcm11-esm29-rsr0-rcr2-esr100.npz,,,,,0,164,164,375,,right,red,1.82,909.1301488876344,909.5054759979248,3,,4,3,brightness,readingArea,realistic,75,2023-03-22_13h19.33.647,tripletExp_regina_11082022,2022.2.4,119.99599470156237,
11,5,4,0,1.0,1.0,0,1.0,0.298245614035088,0,0.694444444444444,0.298245614035088,ReadingArea_rsl0-rcl100-esl100-rsm0-rcm100-esm29-rsr0-rcr69-esr29,exr/ReadingArea_rsl0-rcl100-esl100-rsm0-rcm100-esm29-rsr0-rcr69-esr29.exr,ReadingArea_rsl0-rcl100-esl100-rsm0-rcm100-esm29-rsr0-rcr69-esr29.npz,,,,,0,165,165,564,,right,red,0.95,911.2126097679138,911.587614774704,3,,4,3,brightness,readingArea,realistic,75,2023-03-22_13h19.33.647,tripletExp_regina_11082022,2022.2.4,119.99599470156237,
9,2,12,0,0.444444444444444,1.0,0,0.25,0.298245614035088,0,0.027777777777778,3.10526315789474,ReadingArea_rsl0-rcl44-esl100-rsm0-rcm25-esm29-rsr0-rcr2-esr310,exr/ReadingArea_rsl0-rcl44-esl100-rsm0-rcm25-esm29-rsr0-rcr2-esr310.exr,ReadingArea_rsl0-rcl44-esl100-rsm0-rcm25-esm29-rsr0-rcr2-esr310.npz,,,,,0,166,166,391,,right,red,0.83,913.2933099269868,913.6635959148408,3,,4,3,brightness,readingArea,realistic,75,2023-03-22_13h19.33.647,tripletExp_regina_11082022,2022.2.4,119.99599470156237,
13,10,9,0,0.111111111111111,3.10526315789474,0,0.694444444444444,1.0,0,0.444444444444444,1.0,ReadingArea_rsl0-rcl11-esl310-rsm0-rcm69-esm100-rsr0-rcr44-esr100,exr/ReadingArea_rsl0-rcl11-esl310-rsm0-rcm69-esm100-rsr0-rcr44-esr100.exr,ReadingArea_rsl0-rcl11-esl310-rsm0-rcm69-esm100-rsr0-rcr44-esr100.npz,,,,,0,167,167,330,,right,red,1.87,917.131413936615,917.5095357894896,3,,4,3,brightness,readingArea,realistic,75,2023-03-22_13h19.33.647,tripletExp_regina_11082022,2022.2.4,119.99599470156237,
11,8,7,0,1.0,1.0,0,0.25,1.0,0,0.111111111111111,1.0,ReadingArea_rsl0-rcl100-esl100-rsm0-rcm25-esm100-rsr0-rcr11-esr100,exr/ReadingArea_rsl0-rcl100-esl100-rsm0-rcm25-esm100-rsr0-rcr11-esr100.exr,ReadingArea_rsl0-rcl100-esl100-rsm0-rcm25-esm100-rsr0-rcr11-esr100.npz,,,,,0,168,168,105,,right,red,0.86,919.2169408798218,919.5869209766388,3,,4,3,brightness,readingArea,realistic,75,2023-03-22_13h19.33.647,tripletExp_regina_11082022,2022.2.4,119.99599470156237,
0,5,11,0,0.027777777777778,0.298245614035088,0,1.0,0.298245614035088,0,1.0,1.0,ReadingArea_rsl0-rcl2-esl29-rsm0-rcm100-esm29-rsr0-rcr100-esr100,exr/ReadingArea_rsl0-rcl2-esl29-rsm0-rcm100-esm29-rsr0-rcr100-esr100.exr,ReadingArea_rsl0-rcl2-esl29-rsm0-rcm100-esm29-rsr0-rcr100-esr100.npz,,,,,0,169,169,422,,right,red,2.78,923.0446078777312,923.4145488739014,3,,4,3,brightness,readingArea,realistic,75,2023-03-22_13h19.33.647,tripletExp_regina_11082022,2022.2.4,119.99599470156237,
3,14,10,0,0.444444444444444,0.298245614035088,0,0.25,3.10526315789474,0,0.694444444444444,1.0,ReadingArea_rsl0-rcl44-esl29-rsm0-rcm25-esm310-rsr0-rcr69-esr100,exr/ReadingArea_rsl0-rcl44-esl29-rsm0-rcm25-esm310-rsr0-rcr69-esr100.exr,ReadingArea_rsl0-rcl44-esl29-rsm0-rcm25-esm310-rsr0-rcr69-esr100.npz,,,,,0,170,170,279,,right,red,2.04,926.8890719413756,,3,,4,3,brightness,readingArea,realistic,75,2023-03-22_13h19.33.647,tripletExp_regina_11082022,2022.2.4,119.99599470156237,
2,6,12,0,0.25,0.298245614035088,0,0.027777777777778,1.0,0,0.027777777777778,3.10526315789474,ReadingArea_rsl0-rcl25-esl29-rsm0-rcm2-esm100-rsr0-rcr2-esr310,exr/ReadingArea_rsl0-rcl25-esl29-rsm0-rcm2-esm100-rsr0-rcr2-esr310.exr,ReadingArea_rsl0-rcl25-esl29-rsm0-rcm2-esm100-rsr0-rcr2-esr310.npz,,,,,0,171,171,97,,right,red,4.5,932.5506238937378,932.9294888973236,3,,4,3,brightness,readingArea,realistic,75,2023-03-22_13h19.33.647,tripletExp_regina_11082022,2022.2.4,119.99599470156237,
7,14,3,0,0.111111111111111,1.0,0,0.25,3.10526315789474,0,0.444444444444444,0.298245614035088,ReadingArea_rsl0-rcl11-esl100-rsm0-rcm25-esm310-rsr0-rcr44-esr29,exr/ReadingArea_rsl0-rcl11-esl100-rsm0-rcm25-esm310-rsr0-rcr44-esr29.exr,ReadingArea_rsl0-rcl11-esl100-rsm0-rcm25-esm310-rsr0-rcr44-esr29.npz,,,,,0,172,172,103,,right,red,2.62,936.3919007778168,936.7702617645264,3,,4,3,brightness,readingArea,realistic,75,2023-03-22_13h19.33.647,tripletExp_regina_11082022,2022.2.4,119.99599470156237,
4,10,6,0,0.694444444444444,0.298245614035088,0,0.694444444444444,1.0,0,0.027777777777778,1.0,ReadingArea_rsl0-rcl69-esl29-rsm0-rcm69-esm100-rsr0-rcr2-esr100,exr/ReadingArea_rsl0-rcl69-esl29-rsm0-rcm69-esm100-rsr0-rcr2-esr100.exr,ReadingArea_rsl0-rcl69-esl29-rsm0-rcm69-esm100-rsr0-rcr2-esr100.npz,,,,,0,173,173,468,,left,green,0.96,938.4816358089448,938.8582618236542,3,,4,3,brightness,readingArea,realistic,75,2023-03-22_13h19.33.647,tripletExp_regina_11082022,2022.2.4,119.99599470156237,
5,6,0,0,1.0,0.298245614035088,0,0.027777777777778,1.0,0,0.027777777777778,0.298245614035088,ReadingArea_rsl0-rcl100-esl29-rsm0-rcm2-esm100-rsr0-rcr2-esr29,exr/ReadingArea_rsl0-rcl100-esl29-rsm0-rcm2-esm100-rsr0-rcr2-esr29.exr,ReadingArea_rsl0-rcl100-esl29-rsm0-rcm2-esm100-rsr0-rcr2-esr29.npz,,,,,0,174,174,511,,right,red,1.89,942.3139488697052,942.6886608600616,3,,4,3,brightness,readingArea,realistic,75,2023-03-22_13h19.33.647,tripletExp_regina_11082022,2022.2.4,119.99599470156237,
8,2,0,0,0.25,1.0,0,0.25,0.298245614035088,0,0.027777777777778,0.298245614035088,ReadingArea_rsl0-rcl25-esl100-rsm0-rcm25-esm29-rsr0-rcr2-esr29,exr/ReadingArea_rsl0-rcl25-esl100-rsm0-rcm25-esm29-rsr0-rcr2-esr29.exr,ReadingArea_rsl0-rcl25-esl100-rsm0-rcm25-esm29-rsr0-rcr2-esr29.npz,,,,,0,175,175,574,,left,green,4.35,947.9645249843596,948.3255739212036,3,,4,3,brightness,readingArea,realistic,75,2023-03-22_13h19.33.647,tripletExp_regina_11082022,2022.2.4,119.99599470156237,
12,3,11,0,0.027777777777778,3.10526315789474,0,0.444444444444444,0.298245614035088,0,1.0,1.0,ReadingArea_rsl0-rcl2-esl310-rsm0-rcm44-esm29-rsr0-rcr100-esr100,exr/ReadingArea_rsl0-rcl2-esl310-rsm0-rcm44-esm29-rsr0-rcr100-esr100.exr,ReadingArea_rsl0-rcl2-esl310-rsm0-rcm44-esm29-rsr0-rcr100-esr100.npz,,,,,0,176,176,83,,left,green,1.86,951.8056108951567,952.1812357902528,3,,4,3,brightness,readingArea,realistic,75,2023-03-22_13h19.33.647,tripletExp_regina_11082022,2022.2.4,119.99599470156237,
1,7,2,0,0.111111111111111,0.298245614035088,0,0.111111111111111,1.0,0,0.25,0.298245614035088,ReadingArea_rsl0-rcl11-esl29-rsm0-rcm11-esm100-rsr0-rcr25-esr29,exr/ReadingArea_rsl0-rcl11-esl29-rsm0-rcm11-esm100-rsr0-rcr25-esr29.exr,ReadingArea_rsl0-rcl11-esl29-rsm0-rcm11-esm100-rsr0-rcr25-esr29.npz,,,,,0,177,177,162,,right,red,1.06,953.8820638656616,954.2672038078308,3,,4,3,brightness,readingArea,realistic,75,2023-03-22_13h19.33.647,tripletExp_regina_11082022,2022.2.4,119.99599470156237,
2,14,8,0,0.25,0.298245614035088,0,0.25,3.10526315789474,0,0.25,1.0,ReadingArea_rsl0-rcl25-esl29-rsm0-rcm25-esm310-rsr0-rcr25-esr100,exr/ReadingArea_rsl0-rcl25-esl29-rsm0-rcm25-esm310-rsr0-rcr25-esr100.exr,ReadingArea_rsl0-rcl25-esl29-rsm0-rcm25-esm310-rsr0-rcr25-esr100.npz,,,,,0,178,178,255,,right,red,2.13,957.7419929504396,958.1032538414,3,,4,3,brightness,readingArea,realistic,75,2023-03-22_13h19.33.647,tripletExp_regina_11082022,2022.2.4,119.99599470156237,
6,10,11,0,0.027777777777778,1.0,0,0.694444444444444,1.0,0,1.0,1.0,ReadingArea_rsl0-rcl2-esl100-rsm0-rcm69-esm100-rsr0-rcr100-esr100,exr/ReadingArea_rsl0-rcl2-esl100-rsm0-rcm69-esm100-rsr0-rcr100-esr100.exr,ReadingArea_rsl0-rcl2-esl100-rsm0-rcm69-esm100-rsr0-rcr100-esr100.npz,,,,,0,179,179,116,,right,red,1.53,959.8055288791656,960.1822757720948,3,,4,3,brightness,readingArea,realistic,75,2023-03-22_13h19.33.647,tripletExp_regina_11082022,2022.2.4,119.99599470156237,
14,7,13,0,0.25,3.10526315789474,0,0.111111111111111,1.0,0,0.111111111111111,3.10526315789474,ReadingArea_rsl0-rcl25-esl310-rsm0-rcm11-esm100-rsr0-rcr11-esr310,exr/ReadingArea_rsl0-rcl25-esl310-rsm0-rcm11-esm100-rsr0-rcr11-esr310.exr,ReadingArea_rsl0-rcl25-esl310-rsm0-rcm11-esm100-rsr0-rcr11-esr310.npz,,,,,0,180,180,358,,right,red,1.48,961.8720808029176,962.2602179050446,3,,4,3,brightness,readingArea,realistic,75,2023-03-22_13h19.33.647,tripletExp_regina_11082022,2022.2.4,119.99599470156237,
6,9,2,0,0.027777777777778,1.0,0,0.444444444444444,1.0,0,0.25,0.298245614035088,ReadingArea_rsl0-rcl2-esl100-rsm0-rcm44-esm100-rsr0-rcr25-esr29,exr/ReadingArea_rsl0-rcl2-esl100-rsm0-rcm44-esm100-rsr0-rcr25-esr29.exr,ReadingArea_rsl0-rcl2-esl100-rsm0-rcm44-esm100-rsr0-rcr25-esr29.npz,,,,,0,181,181,182,,right,red,2.23,965.7531559467316,,3,,4,3,brightness,readingArea,realistic,75,2023-03-22_13h19.33.647,tripletExp_regina_11082022,2022.2.4,119.99599470156237,
1,14,5,0,0.111111111111111,0.298245614035088,0,0.25,3.10526315789474,0,1.0,0.298245614035088,ReadingArea_rsl0-rcl11-esl29-rsm0-rcm25-esm310-rsr0-rcr100-esr29,exr/ReadingArea_rsl0-rcl11-esl29-rsm0-rcm25-esm310-rsr0-rcr100-esr29.exr,ReadingArea_rsl0-rcl11-esl29-rsm0-rcm25-esm310-rsr0-rcr100-esr29.npz,,,,,0,182,182,509,,right,red,0.9,967.8330187797546,968.21328997612,3,,4,3,brightness,readingArea,realistic,75,2023-03-22_13h19.33.647,tripletExp_regina_11082022,2022.2.4,119.99599470156237,
10,3,11,0,0.694444444444444,1.0,0,0.444444444444444,0.298245614035088,0,1.0,1.0,ReadingArea_rsl0-rcl69-esl100-rsm0-rcm44-esm29-rsr0-rcr100-esr100,exr/ReadingArea_rsl0-rcl69-esl100-rsm0-rcm44-esm29-rsr0-rcr100-esr100.exr,ReadingArea_rsl0-rcl69-esl100-rsm0-rcm44-esm29-rsr0-rcr100-esr100.npz,,,,,0,183,183,485,,left,green,2.0,971.6772408485411,972.044618844986,3,,4,3,brightness,readingArea,realistic,75,2023-03-22_13h19.33.647,tripletExp_regina_11082022,2022.2.4,119.99599470156237,
1,10,11,0,0.111111111111111,0.298245614035088,0,0.694444444444444,1.0,0,1.0,1.0,ReadingArea_rsl0-rcl11-esl29-rsm0-rcm69-esm100-rsr0-rcr100-esr100,exr/ReadingArea_rsl0-rcl11-esl29-rsm0-rcm69-esm100-rsr0-rcr100-esr100.exr,ReadingArea_rsl0-rcl11-esl29-rsm0-rcm69-esm100-rsr0-rcr100-esr100.npz,,,,,0,184,184,483,,right,red,0.82,973.7612159252168,974.1199309825896,3,,4,3,brightness,readingArea,realistic,75,2023-03-22_13h19.33.647,tripletExp_regina_11082022,2022.2.4,119.99599470156237,
13,11,8,0,0.111111111111111,3.10526315789474,0,1.0,1.0,0,0.25,1.0,ReadingArea_rsl0-rcl11-esl310-rsm0-rcm100-esm100-rsr0-rcr25-esr100,exr/ReadingArea_rsl0-rcl11-esl310-rsm0-rcm100-esm100-rsr0-rcr25-esr100.exr,ReadingArea_rsl0-rcl11-esl310-rsm0-rcm100-esm100-rsr0-rcr25-esr100.npz,,,,,0,185,185,410,,left,green,3.56,979.3853747844696,979.7777919769288,3,,4,3,brightness,readingArea,realistic,75,2023-03-22_13h19.33.647,tripletExp_regina_11082022,2022.2.4,119.99599470156237,
0,9,11,0,0.027777777777778,0.298245614035088,0,0.444444444444444,1.0,0,1.0,1.0,ReadingArea_rsl0-rcl2-esl29-rsm0-rcm44-esm100-rsr0-rcr100-esr100,exr/ReadingArea_rsl0-rcl2-esl29-rsm0-rcm44-esm100-rsr0-rcr100-esr100.exr,ReadingArea_rsl0-rcl2-esl29-rsm0-rcm44-esm100-rsr0-rcr100-esr100.npz,,,,,0,186,186,448,,right,red,0.97,981.4700269699096,981.8361599445344,3,,4,3,brightness,readingArea,realistic,75,2023-03-22_13h19.33.647,tripletExp_regina_11082022,2022.2.4,119.99599470156237,
6,14,10,0,0.027777777777778,1.0,0,0.25,3.10526315789474,0,0.694444444444444,1.0,ReadingArea_rsl0-rcl2-esl100-rsm0-rcm25-esm310-rsr0-rcr69-esr100,exr/ReadingArea_rsl0-rcl2-esl100-rsm0-rcm25-esm310-rsr0-rcr69-esr100.exr,ReadingArea_rsl0-rcl2-esl100-rsm0-rcm25-esm310-rsr0-rcr69-esr100.npz,,,,,0,187,187,413,,right,red,0.74,983.5559368133544,,3,,4,3,brightness,readingArea,realistic,75,2023-03-22_13h19.33.647,tripletExp_regina_11082022,2022.2.4,119.99599470156237,
0,14,11,0,0.027777777777778,0.298245614035088,0,0.25,3.10526315789474,0,1.0,1.0,ReadingArea_rsl0-rcl2-esl29-rsm0-rcm25-esm310-rsr0-rcr100-esr100,exr/ReadingArea_rsl0-rcl2-esl29-rsm0-rcm25-esm310-rsr0-rcr100-esr100.exr,ReadingArea_rsl0-rcl2-esl29-rsm0-rcm25-esm310-rsr0-rcr100-esr100.npz,,,,,0,188,188,557,,right,red,0.75,985.6584208011628,986.0451099872588,3,,4,3,brightness,readingArea,realistic,75,2023-03-22_13h19.33.647,tripletExp_regina_11082022,2022.2.4,119.99599470156237,
14,11,4,0,0.25,3.10526315789474,0,1.0,1.0,0,0.694444444444444,0.298245614035088,ReadingArea_rsl0-rcl25-esl310-rsm0-rcm100-esm100-rsr0-rcr69-esr29,exr/ReadingArea_rsl0-rcl25-esl310-rsm0-rcm100-esm100-rsr0-rcr69-esr29.exr,ReadingArea_rsl0-rcl25-esl310-rsm0-rcm100-esm100-rsr0-rcr69-esr29.npz,,,,,0,189,189,370,,left,green,2.39,989.5078837871552,989.8909788131714,3,,4,3,brightness,readingArea,realistic,75,2023-03-22_13h19.33.647,tripletExp_regina_11082022,2022.2.4,119.99599470156237,
1,14,8,0,0.111111111111111,0.298245614035088,0,0.25,3.10526315789474,0,0.25,1.0,ReadingArea_rsl0-rcl11-esl29-rsm0-rcm25-esm310-rsr0-rcr25-esr100,exr/ReadingArea_rsl0-rcl11-esl29-rsm0-rcm25-esm310-rsr0-rcr25-esr100.exr,ReadingArea_rsl0-rcl11-esl29-rsm0-rcm25-esm310-rsr0-rcr25-esr100.npz,,,,,0,190,190,108,,right,red,2.38,993.3683309555054,993.744616985321,3,,4,3,brightness,readingArea,realistic,75,2023-03-22_13h19.33.647,tripletExp_regina_11082022,2022.2.4,119.99599470156237,
13,3,7,0,0.111111111111111,3.10526315789474,0,0.444444444444444,0.298245614035088,0,0.111111111111111,1.0,ReadingArea_rsl0-rcl11-esl310-rsm0-rcm44-esm29-rsr0-rcr11-esr100,exr/ReadingArea_rsl0-rcl11-esl310-rsm0-rcm44-esm29-rsr0-rcr11-esr100.exr,ReadingArea_rsl0-rcl11-esl310-rsm0-rcm44-esm29-rsr0-rcr11-esr100.npz,,,,,0,191,191,497,,right,red,2.01,997.2220268249512,997.5969309806824,3,,4,3,brightness,readingArea,realistic,75,2023-03-22_13h19.33.647,tripletExp_regina_11082022,2022.2.4,119.99599470156237,
0,13,12,0,0.027777777777778,0.298245614035088,0,0.111111111111111,3.10526315789474,0,0.027777777777778,3.10526315789474,ReadingArea_rsl0-rcl2-esl29-rsm0-rcm11-esm310-rsr0-rcr2-esr310,exr/ReadingArea_rsl0-rcl2-esl29-rsm0-rcm11-esm310-rsr0-rcr2-esr310.exr,ReadingArea_rsl0-rcl2-esl29-rsm0-rcm11-esm310-rsr0-rcr2-esr310.npz,,,,,0,192,192,501,,right,red,4.08,1002.8317070007324,1003.2174577713012,3,,4,3,brightness,readingArea,realistic,75,2023-03-22_13h19.33.647,tripletExp_regina_11082022,2022.2.4,119.99599470156237,
5,14,8,0,1.0,0.298245614035088,0,0.25,3.10526315789474,0,0.25,1.0,ReadingArea_rsl0-rcl100-esl29-rsm0-rcm25-esm310-rsr0-rcr25-esr100,exr/ReadingArea_rsl0-rcl100-esl29-rsm0-rcm25-esm310-rsr0-rcr25-esr100.exr,ReadingArea_rsl0-rcl100-esl29-rsm0-rcm25-esm310-rsr0-rcr25-esr100.npz,,,,,0,193,193,14,,left,green,3.72,1008.464287996292,1008.848530769348,3,,4,3,brightness,readingArea,realistic,75,2023-03-22_13h19.33.647,tripletExp_regina_11082022,2022.2.4,119.99599470156237,
13,6,8,0,0.111111111111111,3.10526315789474,0,0.027777777777778,1.0,0,0.25,1.0,ReadingArea_rsl0-rcl11-esl310-rsm0-rcm2-esm100-rsr0-rcr25-esr100,exr/ReadingArea_rsl0-rcl11-esl310-rsm0-rcm2-esm100-rsr0-rcr25-esr100.exr,ReadingArea_rsl0-rcl11-esl310-rsm0-rcm2-esm100-rsr0-rcr25-esr100.npz,,,,,0,194,194,340,,right,red,2.78,1012.2885928153992,1012.659325838089,3,,4,3,brightness,readingArea,realistic,75,2023-03-22_13h19.33.647,tripletExp_regina_11082022,2022.2.4,119.99599470156237,
13,14,7,0,0.111111111111111,3.10526315789474,0,0.25,3.10526315789474,0,0.111111111111111,1.0,ReadingArea_rsl0-rcl11-esl310-rsm0-rcm25-esm310-rsr0-rcr11-esr100,exr/ReadingArea_rsl0-rcl11-esl310-rsm0-rcm25-esm310-rsr0-rcr11-esr100.exr,ReadingArea_rsl0-rcl11-esl310-rsm0-rcm25-esm310-rsr0-rcr11-esr100.npz,,,,,0,195,195,324,,left,green,2.26,1016.1605479717256,1016.5332038402556,3,,4,3,brightness,readingArea,realistic,75,2023-03-22_13h19.33.647,tripletExp_regina_11082022,2022.2.4,119.99599470156237,
12,3,13,0,0.027777777777778,3.10526315789474,0,0.444444444444444,0.298245614035088,0,0.111111111111111,3.10526315789474,ReadingArea_rsl0-rcl2-esl310-rsm0-rcm44-esm29-rsr0-rcr11-esr310,exr/ReadingArea_rsl0-rcl2-esl310-rsm0-rcm44-esm29-rsr0-rcr11-esr310.exr,ReadingArea_rsl0-rcl2-esl310-rsm0-rcm44-esm29-rsr0-rcr11-esr310.npz,,,,,0,196,196,383,,left,green,0.83,1018.2204937934875,,3,,4,3,brightness,readingArea,realistic,75,2023-03-22_13h19.33.647,tripletExp_regina_11082022,2022.2.4,119.99599470156237,
7,13,12,0,0.111111111111111,1.0,0,0.111111111111111,3.10526315789474,0,0.027777777777778,3.10526315789474,ReadingArea_rsl0-rcl11-esl100-rsm0-rcm11-esm310-rsr0-rcr2-esr310,exr/ReadingArea_rsl0-rcl11-esl100-rsm0-rcm11-esm310-rsr0-rcr2-esr310.exr,ReadingArea_rsl0-rcl11-esl100-rsm0-rcm11-esm310-rsr0-rcr2-esr310.npz,,,,,0,197,197,438,,left,green,2.03,1022.073457956314,1022.4511458873748,3,,4,3,brightness,readingArea,realistic,75,2023-03-22_13h19.33.647,tripletExp_regina_11082022,2022.2.4,119.99599470156237,
8,12,3,0,0.25,1.0,0,0.027777777777778,3.10526315789474,0,0.444444444444444,0.298245614035088,ReadingArea_rsl0-rcl25-esl100-rsm0-rcm2-esm310-rsr0-rcr44-esr29,exr/ReadingArea_rsl0-rcl25-esl100-rsm0-rcm2-esm310-rsr0-rcr44-esr29.exr,ReadingArea_rsl0-rcl25-esl100-rsm0-rcm2-esm310-rsr0-rcr44-esr29.npz,,,,,0,198,198,6,,right,red,1.58,1024.156795978546,1024.6250629425049,3,,4,3,brightness,readingArea,realistic,75,2023-03-22_13h19.33.647,tripletExp_regina_11082022,2022.2.4,119.99599470156237,
9,13,5,0,0.444444444444444,1.0,0,0.111111111111111,3.10526315789474,0,1.0,0.298245614035088,ReadingArea_rsl0-rcl44-esl100-rsm0-rcm11-esm310-rsr0-rcr100-esr29,exr/ReadingArea_rsl0-rcl44-esl100-rsm0-rcm11-esm310-rsr0-rcr100-esr29.exr,ReadingArea_rsl0-rcl44-esl100-rsm0-rcm11-esm310-rsr0-rcr100-esr29.npz,,,,,0,199,199,349,,right,red,2.77,1028.0836369991302,1028.4576709270475,3,,4,3,brightness,readingArea,realistic,75,2023-03-22_13h19.33.647,tripletExp_regina_11082022,2022.2.4,119.99599470156237,
6,11,7,0,0.027777777777778,1.0,0,1.0,1.0,0,0.111111111111111,1.0,ReadingArea_rsl0-rcl2-esl100-rsm0-rcm100-esm100-rsr0-rcr11-esr100,exr/ReadingArea_rsl0-rcl2-esl100-rsm0-rcm100-esm100-rsr0-rcr11-esr100.exr,ReadingArea_rsl0-rcl2-esl100-rsm0-rcm100-esm100-rsr0-rcr11-esr100.npz,,,,,0,200,200,571,,right,red,2.08,1031.9343447685242,1032.3091838359833,3,,4,3,brightness,readingArea,realistic,75,2023-03-22_13h19.33.647,tripletExp_regina_11082022,2022.2.4,119.99599470156237,
10,1,6,0,0.694444444444444,1.0,0,0.111111111111111,0.298245614035088,0,0.027777777777778,1.0,ReadingArea_rsl0-rcl69-esl100-rsm0-rcm11-esm29-rsr0-rcr2-esr100,exr/ReadingArea_rsl0-rcl69-esl100-rsm0-rcm11-esm29-rsr0-rcr2-esr100.exr,ReadingArea_rsl0-rcl69-esl100-rsm0-rcm11-esm29-rsr0-rcr2-esr100.npz,,,,,0,201,201,160,,right,red,0.86,1034.020183801651,1034.3951199054718,3,,4,3,brightness,readingArea,realistic,75,2023-03-22_13h19.33.647,tripletExp_regina_11082022,2022.2.4,119.99599470156237,
7,8,6,0,0.111111111111111,1.0,0,0.25,1.0,0,0.027777777777778,1.0,ReadingArea_rsl0-rcl11-esl100-rsm0-rcm25-esm100-rsr0-rcr2-esr100,exr/ReadingArea_rsl0-rcl11-esl100-rsm0-rcm25-esm100-rsr0-rcr2-esr100.exr,ReadingArea_rsl0-rcl11-esl100-rsm0-rcm25-esm100-rsr0-rcr2-esr100.npz,,,,,0,202,202,387,,left,green,0.91,1036.0977637767792,,3,,4,3,brightness,readingArea,realistic,75,2023-03-22_13h19.33.647,tripletExp_regina_11082022,2022.2.4,119.99599470156237,
10,3,1,0,0.694444444444444,1.0,0,0.444444444444444,0.298245614035088,0,0.111111111111111,0.298245614035088,ReadingArea_rsl0-rcl69-esl100-rsm0-rcm44-esm29-rsr0-rcr11-esr29,exr/ReadingArea_rsl0-rcl69-esl100-rsm0-rcm44-esm29-rsr0-rcr11-esr29.exr,ReadingArea_rsl0-rcl69-esl100-rsm0-rcm44-esm29-rsr0-rcr11-esr29.npz,,,,,0,203,203,420,,right,red,3.8,1041.709482908249,1042.1006088256836,3,,4,3,brightness,readingArea,realistic,75,2023-03-22_13h19.33.647,tripletExp_regina_11082022,2022.2.4,119.99599470156237,
