index_left,index_middle,index_right,reflectance_surround_left,reflectance_center_left,emission_spot_left,reflectance_surround_middle,reflectance_center_middle,emission_spot_middle,reflectance_surround_right,reflectance_center_right,emission_spot_right,ImageName,ImageExr,ImageNpy,trials_2.thisRepN,trials_2.thisTrialN,trials_2.thisN,trials_2.thisIndex,trials.thisRepN,trials.thisTrialN,trials.thisN,trials.thisIndex,sound_1.started,BB_Trial.resp,BB_Trial.color,BB_Trial.rt,text.started,text.stopped,sound_2.started,block,participant,session,L/B,scene,condition,nTrialsPerBlock,date,expName,psychopyVersion,frameRate,Unnamed: 41
5,2,10,0,1.0,0.298245614035088,0,0.25,0.298245614035088,0,0.694444444444444,1.0,ReadingArea_rsl0-rcl100-esl29-rsm0-rcm25-esm29-rsr0-rcr69-esr100,exr/ReadingArea_rsl0-rcl100-esl29-rsm0-rcm25-esm29-rsr0-rcr69-esr100.exr,ReadingArea_rsl0-rcl100-esl29-rsm0-rcm25-esm29-rsr0-rcr69-esr100.npz,,,,,0,0,0,595,105.65169544219972,left,green,1.76,117.22879195213318,117.7678279876709,60.39908332824707,1,6,3,lightness,readingArea,realistic,75,2023-03-22_17h36.25.451,tripletExp_regina_11082022,2022.2.4,120.2485070369234,
14,3,6,0,0.25,3.10526315789474,0,0.444444444444444,0.298245614035088,0,0.027777777777778,1.0,ReadingArea_rsl0-rcl25-esl310-rsm0-rcm44-esm29-rsr0-rcr2-esr100,exr/ReadingArea_rsl0-rcl25-esl310-rsm0-rcm44-esm29-rsr0-rcr2-esr100.exr,ReadingArea_rsl0-rcl25-esl310-rsm0-rcm44-esm29-rsr0-rcr2-esr100.npz,,,,,0,1,1,244,,left,green,1.38,119.45087194442748,120.01545405387878,,1,6,3,lightness,readingArea,realistic,75,2023-03-22_17h36.25.451,tripletExp_regina_11082022,2022.2.4,120.2485070369234,
2,4,14,0,0.25,0.298245614035088,0,0.694444444444444,0.298245614035088,0,0.25,3.10526315789474,ReadingArea_rsl0-rcl25-esl29-rsm0-rcm69-esm29-rsr0-rcr25-esr310,exr/ReadingArea_rsl0-rcl25-esl29-rsm0-rcm69-esm29-rsr0-rcr25-esr310.exr,ReadingArea_rsl0-rcl25-esl29-rsm0-rcm69-esm29-rsr0-rcr25-esr310.npz,,,,,0,2,2,356,,left,green,1.23,121.69983983039856,122.1284818649292,,1,6,3,lightness,readingArea,realistic,75,2023-03-22_17h36.25.451,tripletExp_regina_11082022,2022.2.4,120.2485070369234,
9,6,13,0,0.444444444444444,1.0,0,0.027777777777778,1.0,0,0.111111111111111,3.10526315789474,ReadingArea_rsl0-rcl44-esl100-rsm0-rcm2-esm100-rsr0-rcr11-esr310,exr/ReadingArea_rsl0-rcl44-esl100-rsm0-rcm2-esm100-rsr0-rcr11-esr310.exr,ReadingArea_rsl0-rcl44-esl100-rsm0-rcm2-esm100-rsr0-rcr11-esr310.npz,,,,,0,3,3,285,,right,red,1.28,123.83719396591188,124.2809100151062,,1,6,3,lightness,readingArea,realistic,75,2023-03-22_17h36.25.451,tripletExp_regina_11082022,2022.2.4,120.2485070369234,
13,10,11,0,0.111111111111111,3.10526315789474,0,0.694444444444444,1.0,0,1.0,1.0,ReadingArea_rsl0-rcl11-esl310-rsm0-rcm69-esm100-rsr0-rcr100-esr100,exr/ReadingArea_rsl0-rcl11-esl310-rsm0-rcm69-esm100-rsr0-rcr100-esr100.exr,ReadingArea_rsl0-rcl11-esl310-rsm0-rcm69-esm100-rsr0-rcr100-esr100.npz,,,,,0,4,4,320,,right,red,1.2,126.00065898895264,126.43537282943726,,1,6,3,lightness,readingArea,realistic,75,2023-03-22_17h36.25.451,tripletExp_regina_11082022,2022.2.4,120.2485070369234,
14,0,9,0,0.25,3.10526315789474,0,0.027777777777778,0.298245614035088,0,0.444444444444444,1.0,ReadingArea_rsl0-rcl25-esl310-rsm0-rcm2-esm29-rsr0-rcr44-esr100,exr/ReadingArea_rsl0-rcl25-esl310-rsm0-rcm2-esm29-rsr0-rcr44-esr100.exr,ReadingArea_rsl0-rcl25-esl310-rsm0-rcm2-esm29-rsr0-rcr44-esr100.npz,,,,,0,5,5,90,,right,red,1.36,128.14688992500305,,,1,6,3,lightness,readingArea,realistic,75,2023-03-22_17h36.25.451,tripletExp_regina_11082022,2022.2.4,120.2485070369234,
3,13,6,0,0.444444444444444,0.298245614035088,0,0.111111111111111,3.10526315789474,0,0.027777777777778,1.0,ReadingArea_rsl0-rcl44-esl29-rsm0-rcm11-esm310-rsr0-rcr2-esr100,exr/ReadingArea_rsl0-rcl44-esl29-rsm0-rcm11-esm310-rsr0-rcr2-esr100.exr,ReadingArea_rsl0-rcl44-esl29-rsm0-rcm11-esm310-rsr0-rcr2-esr100.npz,,,,,0,6,6,199,,left,green,1.25,130.35561394691467,,,1,6,3,lightness,readingArea,realistic,75,2023-03-22_17h36.25.451,tripletExp_regina_11082022,2022.2.4,120.2485070369234,
5,9,10,0,1.0,0.298245614035088,0,0.444444444444444,1.0,0,0.694444444444444,1.0,ReadingArea_rsl0-rcl100-esl29-rsm0-rcm44-esm100-rsr0-rcr69-esr100,exr/ReadingArea_rsl0-rcl100-esl29-rsm0-rcm44-esm100-rsr0-rcr69-esr100.exr,ReadingArea_rsl0-rcl100-esl29-rsm0-rcm44-esm100-rsr0-rcr69-esr100.npz,,,,,0,7,7,322,,left,green,1.43,132.53919100761414,,,1,6,3,lightness,readingArea,realistic,75,2023-03-22_17h36.25.451,tripletExp_regina_11082022,2022.2.4,120.2485070369234,
4,3,1,0,0.694444444444444,0.298245614035088,0,0.444444444444444,0.298245614035088,0,0.111111111111111,0.298245614035088,ReadingArea_rsl0-rcl69-esl29-rsm0-rcm44-esm29-rsr0-rcr11-esr29,exr/ReadingArea_rsl0-rcl69-esl29-rsm0-rcm44-esm29-rsr0-rcr11-esr29.exr,ReadingArea_rsl0-rcl69-esl29-rsm0-rcm44-esm29-rsr0-rcr11-esr29.npz,,,,,0,8,8,60,,left,green,1.33,134.71244192123413,135.1957368850708,,1,6,3,lightness,readingArea,realistic,75,2023-03-22_17h36.25.451,tripletExp_regina_11082022,2022.2.4,120.2485070369234,
1,12,6,0,0.111111111111111,0.298245614035088,0,0.027777777777778,3.10526315789474,0,0.027777777777778,1.0,ReadingArea_rsl0-rcl11-esl29-rsm0-rcm2-esm310-rsr0-rcr2-esr100,exr/ReadingArea_rsl0-rcl11-esl29-rsm0-rcm2-esm310-rsr0-rcr2-esr100.exr,ReadingArea_rsl0-rcl11-esl29-rsm0-rcm2-esm310-rsr0-rcr2-esr100.npz,,,,,0,9,9,277,,left,green,1.21,136.91738605499268,137.35319089889526,,1,6,3,lightness,readingArea,realistic,75,2023-03-22_17h36.25.451,tripletExp_regina_11082022,2022.2.4,120.2485070369234,
5,0,10,0,1.0,0.298245614035088,0,0.027777777777778,0.298245614035088,0,0.694444444444444,1.0,ReadingArea_rsl0-rcl100-esl29-rsm0-rcm2-esm29-rsr0-rcr69-esr100,exr/ReadingArea_rsl0-rcl100-esl29-rsm0-rcm2-esm29-rsr0-rcr69-esr100.exr,ReadingArea_rsl0-rcl100-esl29-rsm0-rcm2-esm29-rsr0-rcr69-esr100.npz,,,,,0,10,10,361,,left,green,1.14,139.04724287986755,139.54027199745178,,1,6,3,lightness,readingArea,realistic,75,2023-03-22_17h36.25.451,tripletExp_regina_11082022,2022.2.4,120.2485070369234,
13,12,5,0,0.111111111111111,3.10526315789474,0,0.027777777777778,3.10526315789474,0,1.0,0.298245614035088,ReadingArea_rsl0-rcl11-esl310-rsm0-rcm2-esm310-rsr0-rcr100-esr29,exr/ReadingArea_rsl0-rcl11-esl310-rsm0-rcm2-esm310-rsr0-rcr100-esr29.exr,ReadingArea_rsl0-rcl11-esl310-rsm0-rcm2-esm310-rsr0-rcr100-esr29.npz,,,,,0,11,11,294,,left,green,1.22,141.2402229309082,141.69907689094543,,1,6,3,lightness,readingArea,realistic,75,2023-03-22_17h36.25.451,tripletExp_regina_11082022,2022.2.4,120.2485070369234,
7,13,5,0,0.111111111111111,1.0,0,0.111111111111111,3.10526315789474,0,1.0,0.298245614035088,ReadingArea_rsl0-rcl11-esl100-rsm0-rcm11-esm310-rsr0-rcr100-esr29,exr/ReadingArea_rsl0-rcl11-esl100-rsm0-rcm11-esm310-rsr0-rcr100-esr29.exr,ReadingArea_rsl0-rcl11-esl100-rsm0-rcm11-esm310-rsr0-rcr100-esr29.npz,,,,,0,12,12,332,,right,red,1.09,143.41245698928833,143.8739879131317,,1,6,3,lightness,readingArea,realistic,75,2023-03-22_17h36.25.451,tripletExp_regina_11082022,2022.2.4,120.2485070369234,
14,10,5,0,0.25,3.10526315789474,0,0.694444444444444,1.0,0,1.0,0.298245614035088,ReadingArea_rsl0-rcl25-esl310-rsm0-rcm69-esm100-rsr0-rcr100-esr29,exr/ReadingArea_rsl0-rcl25-esl310-rsm0-rcm69-esm100-rsr0-rcr100-esr29.exr,ReadingArea_rsl0-rcl25-esl310-rsm0-rcm69-esm100-rsr0-rcr100-esr29.npz,,,,,0,13,13,96,,left,green,1.46,145.5627088546753,146.02088499069214,,1,6,3,lightness,readingArea,realistic,75,2023-03-22_17h36.25.451,tripletExp_regina_11082022,2022.2.4,120.2485070369234,
10,3,11,0,0.694444444444444,1.0,0,0.444444444444444,0.298245614035088,0,1.0,1.0,ReadingArea_rsl0-rcl69-esl100-rsm0-rcm44-esm29-rsr0-rcr100-esr100,exr/ReadingArea_rsl0-rcl69-esl100-rsm0-rcm44-esm29-rsr0-rcr100-esr100.exr,ReadingArea_rsl0-rcl69-esl100-rsm0-rcm44-esm29-rsr0-rcr100-esr100.npz,,,,,0,14,14,485,,left,green,1.86,149.49690103530884,150.19569182395935,,1,6,3,lightness,readingArea,realistic,75,2023-03-22_17h36.25.451,tripletExp_regina_11082022,2022.2.4,120.2485070369234,
4,12,2,0,0.694444444444444,0.298245614035088,0,0.027777777777778,3.10526315789474,0,0.25,0.298245614035088,ReadingArea_rsl0-rcl69-esl29-rsm0-rcm2-esm310-rsr0-rcr25-esr29,exr/ReadingArea_rsl0-rcl69-esl29-rsm0-rcm2-esm310-rsr0-rcr25-esr29.exr,ReadingArea_rsl0-rcl69-esl29-rsm0-rcm2-esm310-rsr0-rcr25-esr29.npz,,,,,0,15,15,543,,left,green,0.64,151.86909794807434,152.40252089500427,,1,6,3,lightness,readingArea,realistic,75,2023-03-22_17h36.25.451,tripletExp_regina_11082022,2022.2.4,120.2485070369234,
2,13,3,0,0.25,0.298245614035088,0,0.111111111111111,3.10526315789474,0,0.444444444444444,0.298245614035088,ReadingArea_rsl0-rcl25-esl29-rsm0-rcm11-esm310-rsr0-rcr44-esr29,exr/ReadingArea_rsl0-rcl25-esl29-rsm0-rcm11-esm310-rsr0-rcr44-esr29.exr,ReadingArea_rsl0-rcl25-esl29-rsm0-rcm11-esm310-rsr0-rcr44-esr29.npz,,,,,0,16,16,473,,right,red,1.57,154.11171698570251,154.66921281814575,,1,6,3,lightness,readingArea,realistic,75,2023-03-22_17h36.25.451,tripletExp_regina_11082022,2022.2.4,120.2485070369234,
14,4,8,0,0.25,3.10526315789474,0,0.694444444444444,0.298245614035088,0,0.25,1.0,ReadingArea_rsl0-rcl25-esl310-rsm0-rcm69-esm29-rsr0-rcr25-esr100,exr/ReadingArea_rsl0-rcl25-esl310-rsm0-rcm69-esm29-rsr0-rcr25-esr100.exr,ReadingArea_rsl0-rcl25-esl310-rsm0-rcm69-esm29-rsr0-rcr25-esr100.npz,,,,,0,17,17,253,,right,red,1.57,156.37576603889465,156.83989691734314,,1,6,3,lightness,readingArea,realistic,75,2023-03-22_17h36.25.451,tripletExp_regina_11082022,2022.2.4,120.2485070369234,
13,10,12,0,0.111111111111111,3.10526315789474,0,0.694444444444444,1.0,0,0.027777777777778,3.10526315789474,ReadingArea_rsl0-rcl11-esl310-rsm0-rcm69-esm100-rsr0-rcr2-esr310,exr/ReadingArea_rsl0-rcl11-esl310-rsm0-rcm69-esm100-rsr0-rcr2-esr310.exr,ReadingArea_rsl0-rcl11-esl310-rsm0-rcm69-esm100-rsr0-rcr2-esr310.npz,,,,,0,18,18,384,,left,green,1.33,158.55838584899902,159.00154185295105,,1,6,3,lightness,readingArea,realistic,75,2023-03-22_17h36.25.451,tripletExp_regina_11082022,2022.2.4,120.2485070369234,
7,14,11,0,0.111111111111111,1.0,0,0.25,3.10526315789474,0,1.0,1.0,ReadingArea_rsl0-rcl11-esl100-rsm0-rcm25-esm310-rsr0-rcr100-esr100,exr/ReadingArea_rsl0-rcl11-esl100-rsm0-rcm25-esm310-rsr0-rcr100-esr100.exr,ReadingArea_rsl0-rcl11-esl100-rsm0-rcm25-esm310-rsr0-rcr100-esr100.npz,,,,,0,19,19,252,,right,red,1.23,160.69370794296265,,,1,6,3,lightness,readingArea,realistic,75,2023-03-22_17h36.25.451,tripletExp_regina_11082022,2022.2.4,120.2485070369234,
2,11,7,0,0.25,0.298245614035088,0,1.0,1.0,0,0.111111111111111,1.0,ReadingArea_rsl0-rcl25-esl29-rsm0-rcm100-esm100-rsr0-rcr11-esr100,exr/ReadingArea_rsl0-rcl25-esl29-rsm0-rcm100-esm100-rsr0-rcr11-esr100.exr,ReadingArea_rsl0-rcl25-esl29-rsm0-rcm100-esm100-rsr0-rcr11-esr100.npz,,,,,0,20,20,576,,right,red,1.58,162.86357498168945,163.3266429901123,,1,6,3,lightness,readingArea,realistic,75,2023-03-22_17h36.25.451,tripletExp_regina_11082022,2022.2.4,120.2485070369234,
11,12,4,0,1.0,1.0,0,0.027777777777778,3.10526315789474,0,0.694444444444444,0.298245614035088,ReadingArea_rsl0-rcl100-esl100-rsm0-rcm2-esm310-rsr0-rcr69-esr29,exr/ReadingArea_rsl0-rcl100-esl100-rsm0-rcm2-esm310-rsr0-rcr69-esr29.exr,ReadingArea_rsl0-rcl100-esl100-rsm0-rcm2-esm310-rsr0-rcr69-esr29.npz,,,,,0,21,21,250,,right,red,1.6,165.02328491210938,165.57987785339355,,1,6,3,lightness,readingArea,realistic,75,2023-03-22_17h36.25.451,tripletExp_regina_11082022,2022.2.4,120.2485070369234,
14,13,0,0,0.25,3.10526315789474,0,0.111111111111111,3.10526315789474,0,0.027777777777778,0.298245614035088,ReadingArea_rsl0-rcl25-esl310-rsm0-rcm11-esm310-rsr0-rcr2-esr29,exr/ReadingArea_rsl0-rcl25-esl310-rsm0-rcm11-esm310-rsr0-rcr2-esr29.exr,ReadingArea_rsl0-rcl25-esl310-rsm0-rcm11-esm310-rsr0-rcr2-esr29.npz,,,,,0,22,22,417,,left,green,1.33,167.27436995506287,167.79242181777954,,1,6,3,lightness,readingArea,realistic,75,2023-03-22_17h36.25.451,tripletExp_regina_11082022,2022.2.4,120.2485070369234,
13,1,4,0,0.111111111111111,3.10526315789474,0,0.111111111111111,0.298245614035088,0,0.694444444444444,0.298245614035088,ReadingArea_rsl0-rcl11-esl310-rsm0-rcm11-esm29-rsr0-rcr69-esr29,exr/ReadingArea_rsl0-rcl11-esl310-rsm0-rcm11-esm29-rsr0-rcr69-esr29.exr,ReadingArea_rsl0-rcl11-esl310-rsm0-rcm11-esm29-rsr0-rcr69-esr29.npz,,,,,0,23,23,396,,right,red,1.98,171.29507899284363,172.0025119781494,,1,6,3,lightness,readingArea,realistic,75,2023-03-22_17h36.25.451,tripletExp_regina_11082022,2022.2.4,120.2485070369234,
8,13,9,0,0.25,1.0,0,0.111111111111111,3.10526315789474,0,0.444444444444444,1.0,ReadingArea_rsl0-rcl25-esl100-rsm0-rcm11-esm310-rsr0-rcr44-esr100,exr/ReadingArea_rsl0-rcl25-esl100-rsm0-rcm11-esm310-rsr0-rcr44-esr100.exr,ReadingArea_rsl0-rcl25-esl100-rsm0-rcm11-esm310-rsr0-rcr44-esr100.npz,,,,,0,24,24,487,,right,red,1.67,173.71110701560974,174.1602008342743,,1,6,3,lightness,readingArea,realistic,75,2023-03-22_17h36.25.451,tripletExp_regina_11082022,2022.2.4,120.2485070369234,
5,10,0,0,1.0,0.298245614035088,0,0.694444444444444,1.0,0,0.027777777777778,0.298245614035088,ReadingArea_rsl0-rcl100-esl29-rsm0-rcm69-esm100-rsr0-rcr2-esr29,exr/ReadingArea_rsl0-rcl100-esl29-rsm0-rcm69-esm100-rsr0-rcr2-esr29.exr,ReadingArea_rsl0-rcl100-esl29-rsm0-rcm69-esm100-rsr0-rcr2-esr29.npz,,,,,0,25,25,293,,left,green,1.41,175.88327503204346,176.33142590522766,,1,6,3,lightness,readingArea,realistic,75,2023-03-22_17h36.25.451,tripletExp_regina_11082022,2022.2.4,120.2485070369234,
10,0,11,0,0.694444444444444,1.0,0,0.027777777777778,0.298245614035088,0,1.0,1.0,ReadingArea_rsl0-rcl69-esl100-rsm0-rcm2-esm29-rsr0-rcr100-esr100,exr/ReadingArea_rsl0-rcl69-esl100-rsm0-rcm2-esm29-rsr0-rcr100-esr100.exr,ReadingArea_rsl0-rcl69-esl100-rsm0-rcm2-esm29-rsr0-rcr100-esr100.npz,,,,,0,26,26,573,,left,green,2.52,179.80711698532104,180.3285150527954,,1,6,3,lightness,readingArea,realistic,75,2023-03-22_17h36.25.451,tripletExp_regina_11082022,2022.2.4,120.2485070369234,
0,8,7,0,0.027777777777778,0.298245614035088,0,0.25,1.0,0,0.111111111111111,1.0,ReadingArea_rsl0-rcl2-esl29-rsm0-rcm25-esm100-rsr0-rcr11-esr100,exr/ReadingArea_rsl0-rcl2-esl29-rsm0-rcm25-esm100-rsr0-rcr11-esr100.exr,ReadingArea_rsl0-rcl2-esl29-rsm0-rcm25-esm100-rsr0-rcr11-esr100.npz,,,,,0,27,27,9,,right,red,1.17,182.0161919593811,182.5062160491944,,1,6,3,lightness,readingArea,realistic,75,2023-03-22_17h36.25.451,tripletExp_regina_11082022,2022.2.4,120.2485070369234,
6,1,10,0,0.027777777777778,1.0,0,0.111111111111111,0.298245614035088,0,0.694444444444444,1.0,ReadingArea_rsl0-rcl2-esl100-rsm0-rcm11-esm29-rsr0-rcr69-esr100,exr/ReadingArea_rsl0-rcl2-esl100-rsm0-rcm11-esm29-rsr0-rcr69-esr100.exr,ReadingArea_rsl0-rcl2-esl100-rsm0-rcm11-esm29-rsr0-rcr69-esr100.npz,,,,,0,28,28,561,,left,green,1.18,184.2192900180817,184.6578378677368,,1,6,3,lightness,readingArea,realistic,75,2023-03-22_17h36.25.451,tripletExp_regina_11082022,2022.2.4,120.2485070369234,
12,9,14,0,0.027777777777778,3.10526315789474,0,0.444444444444444,1.0,0,0.25,3.10526315789474,ReadingArea_rsl0-rcl2-esl310-rsm0-rcm44-esm100-rsr0-rcr25-esr310,exr/ReadingArea_rsl0-rcl2-esl310-rsm0-rcm44-esm100-rsr0-rcr25-esr310.exr,ReadingArea_rsl0-rcl2-esl310-rsm0-rcm44-esm100-rsr0-rcr25-esr310.npz,,,,,0,29,29,123,,right,red,1.29,186.3627598285675,186.82132196426392,,1,6,3,lightness,readingArea,realistic,75,2023-03-22_17h36.25.451,tripletExp_regina_11082022,2022.2.4,120.2485070369234,
6,10,9,0,0.027777777777778,1.0,0,0.694444444444444,1.0,0,0.444444444444444,1.0,ReadingArea_rsl0-rcl2-esl100-rsm0-rcm69-esm100-rsr0-rcr44-esr100,exr/ReadingArea_rsl0-rcl2-esl100-rsm0-rcm69-esm100-rsr0-rcr44-esr100.exr,ReadingArea_rsl0-rcl2-esl100-rsm0-rcm69-esm100-rsr0-rcr44-esr100.npz,,,,,0,30,30,148,,right,red,1.51,188.51187586784363,188.96542096138,,1,6,3,lightness,readingArea,realistic,75,2023-03-22_17h36.25.451,tripletExp_regina_11082022,2022.2.4,120.2485070369234,
10,9,6,0,0.694444444444444,1.0,0,0.444444444444444,1.0,0,0.027777777777778,1.0,ReadingArea_rsl0-rcl69-esl100-rsm0-rcm44-esm100-rsr0-rcr2-esr100,exr/ReadingArea_rsl0-rcl69-esl100-rsm0-rcm44-esm100-rsr0-rcr2-esr100.exr,ReadingArea_rsl0-rcl69-esl100-rsm0-rcm44-esm100-rsr0-rcr2-esr100.npz,,,,,0,31,31,35,,left,green,1.39,190.6867158412933,191.1123328208924,,1,6,3,lightness,readingArea,realistic,75,2023-03-22_17h36.25.451,tripletExp_regina_11082022,2022.2.4,120.2485070369234,
4,12,6,0,0.694444444444444,0.298245614035088,0,0.027777777777778,3.10526315789474,0,0.027777777777778,1.0,ReadingArea_rsl0-rcl69-esl29-rsm0-rcm2-esm310-rsr0-rcr2-esr100,exr/ReadingArea_rsl0-rcl69-esl29-rsm0-rcm2-esm310-rsr0-rcr2-esr100.exr,ReadingArea_rsl0-rcl69-esl29-rsm0-rcm2-esm310-rsr0-rcr2-esr100.npz,,,,,0,32,32,99,,right,red,2.67,194.582545042038,,,1,6,3,lightness,readingArea,realistic,75,2023-03-22_17h36.25.451,tripletExp_regina_11082022,2022.2.4,120.2485070369234,
4,14,12,0,0.694444444444444,0.298245614035088,0,0.25,3.10526315789474,0,0.027777777777778,3.10526315789474,ReadingArea_rsl0-rcl69-esl29-rsm0-rcm25-esm310-rsr0-rcr2-esr310,exr/ReadingArea_rsl0-rcl69-esl29-rsm0-rcm25-esm310-rsr0-rcr2-esr310.exr,ReadingArea_rsl0-rcl69-esl29-rsm0-rcm25-esm310-rsr0-rcr2-esr310.npz,,,,,0,33,33,392,,left,green,1.43,196.7493999004364,,,1,6,3,lightness,readingArea,realistic,75,2023-03-22_17h36.25.451,tripletExp_regina_11082022,2022.2.4,120.2485070369234,
6,0,14,0,0.027777777777778,1.0,0,0.027777777777778,0.298245614035088,0,0.25,3.10526315789474,ReadingArea_rsl0-rcl2-esl100-rsm0-rcm2-esm29-rsr0-rcr25-esr310,exr/ReadingArea_rsl0-rcl2-esl100-rsm0-rcm2-esm29-rsr0-rcr25-esr310.exr,ReadingArea_rsl0-rcl2-esl100-rsm0-rcm2-esm29-rsr0-rcr25-esr310.npz,,,,,0,34,34,169,,left,green,1.63,198.99090003967285,199.4452350139618,,1,6,3,lightness,readingArea,realistic,75,2023-03-22_17h36.25.451,tripletExp_regina_11082022,2022.2.4,120.2485070369234,
0,14,11,0,0.027777777777778,0.298245614035088,0,0.25,3.10526315789474,0,1.0,1.0,ReadingArea_rsl0-rcl2-esl29-rsm0-rcm25-esm310-rsr0-rcr100-esr100,exr/ReadingArea_rsl0-rcl2-esl29-rsm0-rcm25-esm310-rsr0-rcr100-esr100.exr,ReadingArea_rsl0-rcl2-esl29-rsm0-rcm25-esm310-rsr0-rcr100-esr100.npz,,,,,0,35,35,557,,right,red,1.26,201.1346249580384,201.589879989624,,1,6,3,lightness,readingArea,realistic,75,2023-03-22_17h36.25.451,tripletExp_regina_11082022,2022.2.4,120.2485070369234,
1,7,8,0,0.111111111111111,0.298245614035088,0,0.111111111111111,1.0,0,0.25,1.0,ReadingArea_rsl0-rcl11-esl29-rsm0-rcm11-esm100-rsr0-rcr25-esr100,exr/ReadingArea_rsl0-rcl11-esl29-rsm0-rcm11-esm100-rsr0-rcr25-esr100.exr,ReadingArea_rsl0-rcl11-esl29-rsm0-rcm11-esm100-rsr0-rcr25-esr100.npz,,,,,0,36,36,260,,right,red,1.21,203.2995810508728,203.81242203712463,,1,6,3,lightness,readingArea,realistic,75,2023-03-22_17h36.25.451,tripletExp_regina_11082022,2022.2.4,120.2485070369234,
0,5,6,0,0.027777777777778,0.298245614035088,0,1.0,0.298245614035088,0,0.027777777777778,1.0,ReadingArea_rsl0-rcl2-esl29-rsm0-rcm100-esm29-rsr0-rcr2-esr100,exr/ReadingArea_rsl0-rcl2-esl29-rsm0-rcm100-esm29-rsr0-rcr2-esr100.exr,ReadingArea_rsl0-rcl2-esl29-rsm0-rcm100-esm29-rsr0-rcr2-esr100.npz,,,,,0,37,37,374,,right,red,1.34,205.5177948474884,,,1,6,3,lightness,readingArea,realistic,75,2023-03-22_17h36.25.451,tripletExp_regina_11082022,2022.2.4,120.2485070369234,
12,3,11,0,0.027777777777778,3.10526315789474,0,0.444444444444444,0.298245614035088,0,1.0,1.0,ReadingArea_rsl0-rcl2-esl310-rsm0-rcm44-esm29-rsr0-rcr100-esr100,exr/ReadingArea_rsl0-rcl2-esl310-rsm0-rcm44-esm29-rsr0-rcr100-esr100.exr,ReadingArea_rsl0-rcl2-esl310-rsm0-rcm44-esm29-rsr0-rcr100-esr100.npz,,,,,0,38,38,83,,left,green,1.19,207.66555190086365,208.10629200935364,,1,6,3,lightness,readingArea,realistic,75,2023-03-22_17h36.25.451,tripletExp_regina_11082022,2022.2.4,120.2485070369234,
2,14,1,0,0.25,0.298245614035088,0,0.25,3.10526315789474,0,0.111111111111111,0.298245614035088,ReadingArea_rsl0-rcl25-esl29-rsm0-rcm25-esm310-rsr0-rcr11-esr29,exr/ReadingArea_rsl0-rcl25-esl29-rsm0-rcm25-esm310-rsr0-rcr11-esr29.exr,ReadingArea_rsl0-rcl25-esl29-rsm0-rcm25-esm310-rsr0-rcr11-esr29.npz,,,,,0,39,39,579,,left,green,1.3,209.8172168731689,210.2760429382324,,1,6,3,lightness,readingArea,realistic,75,2023-03-22_17h36.25.451,tripletExp_regina_11082022,2022.2.4,120.2485070369234,
5,4,10,0,1.0,0.298245614035088,0,0.694444444444444,0.298245614035088,0,0.694444444444444,1.0,ReadingArea_rsl0-rcl100-esl29-rsm0-rcm69-esm29-rsr0-rcr69-esr100,exr/ReadingArea_rsl0-rcl100-esl29-rsm0-rcm69-esm29-rsr0-rcr69-esr100.exr,ReadingArea_rsl0-rcl100-esl29-rsm0-rcm69-esm29-rsr0-rcr69-esr100.npz,,,,,0,40,40,536,,left,green,1.63,211.9664809703827,212.38136100769043,,1,6,3,lightness,readingArea,realistic,75,2023-03-22_17h36.25.451,tripletExp_regina_11082022,2022.2.4,120.2485070369234,
8,1,9,0,0.25,1.0,0,0.111111111111111,0.298245614035088,0,0.444444444444444,1.0,ReadingArea_rsl0-rcl25-esl100-rsm0-rcm11-esm29-rsr0-rcr44-esr100,exr/ReadingArea_rsl0-rcl25-esl100-rsm0-rcm11-esm29-rsr0-rcr44-esr100.exr,ReadingArea_rsl0-rcl25-esl100-rsm0-rcm11-esm29-rsr0-rcr44-esr100.npz,,,,,0,41,41,432,,left,green,1.49,214.10323405265808,214.57486486434937,,1,6,3,lightness,readingArea,realistic,75,2023-03-22_17h36.25.451,tripletExp_regina_11082022,2022.2.4,120.2485070369234,
7,4,1,0,0.111111111111111,1.0,0,0.694444444444444,0.298245614035088,0,0.111111111111111,0.298245614035088,ReadingArea_rsl0-rcl11-esl100-rsm0-rcm69-esm29-rsr0-rcr11-esr29,exr/ReadingArea_rsl0-rcl11-esl100-rsm0-rcm69-esm29-rsr0-rcr11-esr29.exr,ReadingArea_rsl0-rcl11-esl100-rsm0-rcm69-esm29-rsr0-rcr11-esr29.npz,,,,,0,42,42,369,,left,green,1.45,216.28754687309265,216.8506669998169,,1,6,3,lightness,readingArea,realistic,75,2023-03-22_17h36.25.451,tripletExp_regina_11082022,2022.2.4,120.2485070369234,
10,7,11,0,0.694444444444444,1.0,0,0.111111111111111,1.0,0,1.0,1.0,ReadingArea_rsl0-rcl69-esl100-rsm0-rcm11-esm100-rsr0-rcr100-esr100,exr/ReadingArea_rsl0-rcl69-esl100-rsm0-rcm11-esm100-rsr0-rcr100-esr100.exr,ReadingArea_rsl0-rcl69-esl100-rsm0-rcm11-esm100-rsr0-rcr100-esr100.npz,,,,,0,43,43,542,,left,green,1.66,218.565269947052,218.9984560012817,,1,6,3,lightness,readingArea,realistic,75,2023-03-22_17h36.25.451,tripletExp_regina_11082022,2022.2.4,120.2485070369234,
2,5,14,0,0.25,0.298245614035088,0,1.0,0.298245614035088,0,0.25,3.10526315789474,ReadingArea_rsl0-rcl25-esl29-rsm0-rcm100-esm29-rsr0-rcr25-esr310,exr/ReadingArea_rsl0-rcl25-esl29-rsm0-rcm100-esm29-rsr0-rcr25-esr310.exr,ReadingArea_rsl0-rcl25-esl29-rsm0-rcm100-esm29-rsr0-rcr25-esr310.npz,,,,,0,44,44,390,,right,red,1.67,220.7178659439087,221.29439282417297,,1,6,3,lightness,readingArea,realistic,75,2023-03-22_17h36.25.451,tripletExp_regina_11082022,2022.2.4,120.2485070369234,
8,10,9,0,0.25,1.0,0,0.694444444444444,1.0,0,0.444444444444444,1.0,ReadingArea_rsl0-rcl25-esl100-rsm0-rcm69-esm100-rsr0-rcr44-esr100,exr/ReadingArea_rsl0-rcl25-esl100-rsm0-rcm69-esm100-rsr0-rcr44-esr100.exr,ReadingArea_rsl0-rcl25-esl100-rsm0-rcm69-esm100-rsr0-rcr44-esr100.npz,,,,,0,45,45,342,,right,red,1.35,223.0030579566956,223.4354498386383,,1,6,3,lightness,readingArea,realistic,75,2023-03-22_17h36.25.451,tripletExp_regina_11082022,2022.2.4,120.2485070369234,
2,14,8,0,0.25,0.298245614035088,0,0.25,3.10526315789474,0,0.25,1.0,ReadingArea_rsl0-rcl25-esl29-rsm0-rcm25-esm310-rsr0-rcr25-esr100,exr/ReadingArea_rsl0-rcl25-esl29-rsm0-rcm25-esm310-rsr0-rcr25-esr100.exr,ReadingArea_rsl0-rcl25-esl29-rsm0-rcm25-esm310-rsr0-rcr25-esr100.npz,,,,,0,46,46,255,,right,red,1.15,225.12443804740903,225.60538387298584,,1,6,3,lightness,readingArea,realistic,75,2023-03-22_17h36.25.451,tripletExp_regina_11082022,2022.2.4,120.2485070369234,
1,9,8,0,0.111111111111111,0.298245614035088,0,0.444444444444444,1.0,0,0.25,1.0,ReadingArea_rsl0-rcl11-esl29-rsm0-rcm44-esm100-rsr0-rcr25-esr100,exr/ReadingArea_rsl0-rcl11-esl29-rsm0-rcm44-esm100-rsr0-rcr25-esr100.exr,ReadingArea_rsl0-rcl11-esl29-rsm0-rcm44-esm100-rsr0-rcr25-esr100.npz,,,,,0,47,47,268,,right,red,1.14,227.30303192138672,227.79456496238708,,1,6,3,lightness,readingArea,realistic,75,2023-03-22_17h36.25.451,tripletExp_regina_11082022,2022.2.4,120.2485070369234,
8,12,4,0,0.25,1.0,0,0.027777777777778,3.10526315789474,0,0.694444444444444,0.298245614035088,ReadingArea_rsl0-rcl25-esl100-rsm0-rcm2-esm310-rsr0-rcr69-esr29,exr/ReadingArea_rsl0-rcl25-esl100-rsm0-rcm2-esm310-rsr0-rcr69-esr29.exr,ReadingArea_rsl0-rcl25-esl100-rsm0-rcm2-esm310-rsr0-rcr69-esr29.npz,,,,,0,48,48,30,,right,red,2.75,231.2792010307312,231.8766939640045,,1,6,3,lightness,readingArea,realistic,75,2023-03-22_17h36.25.451,tripletExp_regina_11082022,2022.2.4,120.2485070369234,
12,2,9,0,0.027777777777778,3.10526315789474,0,0.25,0.298245614035088,0,0.444444444444444,1.0,ReadingArea_rsl0-rcl2-esl310-rsm0-rcm25-esm29-rsr0-rcr44-esr100,exr/ReadingArea_rsl0-rcl2-esl310-rsm0-rcm25-esm29-rsr0-rcr44-esr100.exr,ReadingArea_rsl0-rcl2-esl310-rsm0-rcm25-esm29-rsr0-rcr44-esr100.npz,,,,,0,49,49,495,,left,green,1.16,233.57832384109497,234.02477288246155,,1,6,3,lightness,readingArea,realistic,75,2023-03-22_17h36.25.451,tripletExp_regina_11082022,2022.2.4,120.2485070369234,
9,0,14,0,0.444444444444444,1.0,0,0.027777777777778,0.298245614035088,0,0.25,3.10526315789474,ReadingArea_rsl0-rcl44-esl100-rsm0-rcm2-esm29-rsr0-rcr25-esr310,exr/ReadingArea_rsl0-rcl44-esl100-rsm0-rcm2-esm29-rsr0-rcr25-esr310.exr,ReadingArea_rsl0-rcl44-esl100-rsm0-rcm2-esm29-rsr0-rcr25-esr310.npz,,,,,0,50,50,550,,left,green,1.54,235.7396638393402,236.1952450275421,,1,6,3,lightness,readingArea,realistic,75,2023-03-22_17h36.25.451,tripletExp_regina_11082022,2022.2.4,120.2485070369234,
6,13,8,0,0.027777777777778,1.0,0,0.111111111111111,3.10526315789474,0,0.25,1.0,ReadingArea_rsl0-rcl2-esl100-rsm0-rcm11-esm310-rsr0-rcr25-esr100,exr/ReadingArea_rsl0-rcl2-esl100-rsm0-rcm11-esm310-rsr0-rcr25-esr100.exr,ReadingArea_rsl0-rcl2-esl100-rsm0-rcm11-esm310-rsr0-rcr25-esr100.npz,,,,,0,51,51,535,,right,red,1.37,237.88674187660217,238.31630492210388,,1,6,3,lightness,readingArea,realistic,75,2023-03-22_17h36.25.451,tripletExp_regina_11082022,2022.2.4,120.2485070369234,
12,8,9,0,0.027777777777778,3.10526315789474,0,0.25,1.0,0,0.444444444444444,1.0,ReadingArea_rsl0-rcl2-esl310-rsm0-rcm25-esm100-rsr0-rcr44-esr100,exr/ReadingArea_rsl0-rcl2-esl310-rsm0-rcm25-esm100-rsr0-rcr44-esr100.exr,ReadingArea_rsl0-rcl2-esl310-rsm0-rcm25-esm100-rsr0-rcr44-esr100.npz,,,,,0,52,52,517,,right,red,1.47,240.02197194099423,240.48372602462769,,1,6,3,lightness,readingArea,realistic,75,2023-03-22_17h36.25.451,tripletExp_regina_11082022,2022.2.4,120.2485070369234,
13,10,3,0,0.111111111111111,3.10526315789474,0,0.694444444444444,1.0,0,0.444444444444444,0.298245614035088,ReadingArea_rsl0-rcl11-esl310-rsm0-rcm69-esm100-rsr0-rcr44-esr29,exr/ReadingArea_rsl0-rcl11-esl310-rsm0-rcm69-esm100-rsr0-rcr44-esr29.exr,ReadingArea_rsl0-rcl11-esl310-rsm0-rcm69-esm100-rsr0-rcr44-esr29.npz,,,,,0,53,53,224,,left,green,1.43,242.1754639148712,242.6472978591919,,1,6,3,lightness,readingArea,realistic,75,2023-03-22_17h36.25.451,tripletExp_regina_11082022,2022.2.4,120.2485070369234,
14,0,6,0,0.25,3.10526315789474,0,0.027777777777778,0.298245614035088,0,0.027777777777778,1.0,ReadingArea_rsl0-rcl25-esl310-rsm0-rcm2-esm29-rsr0-rcr2-esr100,exr/ReadingArea_rsl0-rcl25-esl310-rsm0-rcm2-esm29-rsr0-rcr2-esr100.exr,ReadingArea_rsl0-rcl25-esl310-rsm0-rcm2-esm29-rsr0-rcr2-esr100.npz,,,,,0,54,54,496,,right,red,1.39,244.3525869846344,244.7909300327301,,1,6,3,lightness,readingArea,realistic,75,2023-03-22_17h36.25.451,tripletExp_regina_11082022,2022.2.4,120.2485070369234,
14,3,4,0,0.25,3.10526315789474,0,0.444444444444444,0.298245614035088,0,0.694444444444444,0.298245614035088,ReadingArea_rsl0-rcl25-esl310-rsm0-rcm44-esm29-rsr0-rcr69-esr29,exr/ReadingArea_rsl0-rcl25-esl310-rsm0-rcm44-esm29-rsr0-rcr69-esr29.exr,ReadingArea_rsl0-rcl25-esl310-rsm0-rcm44-esm29-rsr0-rcr69-esr29.npz,,,,,0,55,55,127,,right,red,1.48,246.4967758655548,246.9910299777985,,1,6,3,lightness,readingArea,realistic,75,2023-03-22_17h36.25.451,tripletExp_regina_11082022,2022.2.4,120.2485070369234,
13,0,8,0,0.111111111111111,3.10526315789474,0,0.027777777777778,0.298245614035088,0,0.25,1.0,ReadingArea_rsl0-rcl11-esl310-rsm0-rcm2-esm29-rsr0-rcr25-esr100,exr/ReadingArea_rsl0-rcl11-esl310-rsm0-rcm2-esm29-rsr0-rcr25-esr100.exr,ReadingArea_rsl0-rcl11-esl310-rsm0-rcm2-esm29-rsr0-rcr25-esr100.npz,,,,,0,56,56,249,,right,red,1.63,248.7012310028076,249.1619598865509,,1,6,3,lightness,readingArea,realistic,75,2023-03-22_17h36.25.451,tripletExp_regina_11082022,2022.2.4,120.2485070369234,
5,8,3,0,1.0,0.298245614035088,0,0.25,1.0,0,0.444444444444444,0.298245614035088,ReadingArea_rsl0-rcl100-esl29-rsm0-rcm25-esm100-rsr0-rcr44-esr29,exr/ReadingArea_rsl0-rcl100-esl29-rsm0-rcm25-esm100-rsr0-rcr44-esr29.exr,ReadingArea_rsl0-rcl100-esl29-rsm0-rcm25-esm100-rsr0-rcr44-esr29.npz,,,,,0,57,57,556,,right,red,3.02,252.63805484771729,253.14145183563232,,1,6,3,lightness,readingArea,realistic,75,2023-03-22_17h36.25.451,tripletExp_regina_11082022,2022.2.4,120.2485070369234,
0,9,11,0,0.027777777777778,0.298245614035088,0,0.444444444444444,1.0,0,1.0,1.0,ReadingArea_rsl0-rcl2-esl29-rsm0-rcm44-esm100-rsr0-rcr100-esr100,exr/ReadingArea_rsl0-rcl2-esl29-rsm0-rcm44-esm100-rsr0-rcr100-esr100.exr,ReadingArea_rsl0-rcl2-esl29-rsm0-rcm44-esm100-rsr0-rcr100-esr100.npz,,,,,0,58,58,448,,right,red,1.18,254.8572130203247,255.3080439567566,,1,6,3,lightness,readingArea,realistic,75,2023-03-22_17h36.25.451,tripletExp_regina_11082022,2022.2.4,120.2485070369234,
3,7,9,0,0.444444444444444,0.298245614035088,0,0.111111111111111,1.0,0,0.444444444444444,1.0,ReadingArea_rsl0-rcl44-esl29-rsm0-rcm11-esm100-rsr0-rcr44-esr100,exr/ReadingArea_rsl0-rcl44-esl29-rsm0-rcm11-esm100-rsr0-rcr44-esr100.exr,ReadingArea_rsl0-rcl44-esl29-rsm0-rcm11-esm100-rsr0-rcr44-esr100.npz,,,,,0,59,59,382,,left,green,1.03,257.0277099609375,257.4730818271637,,1,6,3,lightness,readingArea,realistic,75,2023-03-22_17h36.25.451,tripletExp_regina_11082022,2022.2.4,120.2485070369234,
11,0,10,0,1.0,1.0,0,0.027777777777778,0.298245614035088,0,0.694444444444444,1.0,ReadingArea_rsl0-rcl100-esl100-rsm0-rcm2-esm29-rsr0-rcr69-esr100,exr/ReadingArea_rsl0-rcl100-esl100-rsm0-rcm2-esm29-rsr0-rcr69-esr100.exr,ReadingArea_rsl0-rcl100-esl100-rsm0-rcm2-esm29-rsr0-rcr69-esr100.npz,,,,,0,60,60,259,,right,red,1.47,259.1917300224304,259.626993894577,,1,6,3,lightness,readingArea,realistic,75,2023-03-22_17h36.25.451,tripletExp_regina_11082022,2022.2.4,120.2485070369234,
8,4,2,0,0.25,1.0,0,0.694444444444444,0.298245614035088,0,0.25,0.298245614035088,ReadingArea_rsl0-rcl25-esl100-rsm0-rcm69-esm29-rsr0-rcr25-esr29,exr/ReadingArea_rsl0-rcl25-esl100-rsm0-rcm69-esm29-rsr0-rcr25-esr29.exr,ReadingArea_rsl0-rcl25-esl100-rsm0-rcm69-esm29-rsr0-rcr25-esr29.npz,,,,,0,61,61,184,,left,green,1.38,261.335077047348,261.77113485336304,,1,6,3,lightness,readingArea,realistic,75,2023-03-22_17h36.25.451,tripletExp_regina_11082022,2022.2.4,120.2485070369234,
9,4,6,0,0.444444444444444,1.0,0,0.694444444444444,0.298245614035088,0,0.027777777777778,1.0,ReadingArea_rsl0-rcl44-esl100-rsm0-rcm69-esm29-rsr0-rcr2-esr100,exr/ReadingArea_rsl0-rcl44-esl100-rsm0-rcm69-esm29-rsr0-rcr2-esr100.exr,ReadingArea_rsl0-rcl44-esl100-rsm0-rcm69-esm29-rsr0-rcr2-esr100.npz,,,,,0,62,62,453,,left,green,1.36,263.4713468551636,263.95333194732666,,1,6,3,lightness,readingArea,realistic,75,2023-03-22_17h36.25.451,tripletExp_regina_11082022,2022.2.4,120.2485070369234,
11,8,7,0,1.0,1.0,0,0.25,1.0,0,0.111111111111111,1.0,ReadingArea_rsl0-rcl100-esl100-rsm0-rcm25-esm100-rsr0-rcr11-esr100,exr/ReadingArea_rsl0-rcl100-esl100-rsm0-rcm25-esm100-rsr0-rcr11-esr100.exr,ReadingArea_rsl0-rcl100-esl100-rsm0-rcm25-esm100-rsr0-rcr11-esr100.npz,,,,,0,63,63,105,,right,red,1.32,265.66663694381714,266.10443902015686,,1,6,3,lightness,readingArea,realistic,75,2023-03-22_17h36.25.451,tripletExp_regina_11082022,2022.2.4,120.2485070369234,
9,6,1,0,0.444444444444444,1.0,0,0.027777777777778,1.0,0,0.111111111111111,0.298245614035088,ReadingArea_rsl0-rcl44-esl100-rsm0-rcm2-esm100-rsr0-rcr11-esr29,exr/ReadingArea_rsl0-rcl44-esl100-rsm0-rcm2-esm100-rsr0-rcr11-esr29.exr,ReadingArea_rsl0-rcl44-esl100-rsm0-rcm2-esm100-rsr0-rcr11-esr29.npz,,,,,0,64,64,526,,right,red,1.13,267.81129598617554,268.2372479438782,,1,6,3,lightness,readingArea,realistic,75,2023-03-22_17h36.25.451,tripletExp_regina_11082022,2022.2.4,120.2485070369234,
9,2,12,0,0.444444444444444,1.0,0,0.25,0.298245614035088,0,0.027777777777778,3.10526315789474,ReadingArea_rsl0-rcl44-esl100-rsm0-rcm25-esm29-rsr0-rcr2-esr310,exr/ReadingArea_rsl0-rcl44-esl100-rsm0-rcm25-esm29-rsr0-rcr2-esr310.exr,ReadingArea_rsl0-rcl44-esl100-rsm0-rcm25-esm29-rsr0-rcr2-esr310.npz,,,,,0,65,65,391,,right,red,2.67,271.6844699382782,272.1561949253082,,1,6,3,lightness,readingArea,realistic,75,2023-03-22_17h36.25.451,tripletExp_regina_11082022,2022.2.4,120.2485070369234,
0,4,7,0,0.027777777777778,0.298245614035088,0,0.694444444444444,0.298245614035088,0,0.111111111111111,1.0,ReadingArea_rsl0-rcl2-esl29-rsm0-rcm69-esm29-rsr0-rcr11-esr100,exr/ReadingArea_rsl0-rcl2-esl29-rsm0-rcm69-esm29-rsr0-rcr11-esr100.exr,ReadingArea_rsl0-rcl2-esl29-rsm0-rcm69-esm29-rsr0-rcr11-esr100.npz,,,,,0,66,66,200,,right,red,1.48,273.84242582321167,274.3150968551636,,1,6,3,lightness,readingArea,realistic,75,2023-03-22_17h36.25.451,tripletExp_regina_11082022,2022.2.4,120.2485070369234,
12,9,13,0,0.027777777777778,3.10526315789474,0,0.444444444444444,1.0,0,0.111111111111111,3.10526315789474,ReadingArea_rsl0-rcl2-esl310-rsm0-rcm44-esm100-rsr0-rcr11-esr310,exr/ReadingArea_rsl0-rcl2-esl310-rsm0-rcm44-esm100-rsr0-rcr11-esr310.exr,ReadingArea_rsl0-rcl2-esl310-rsm0-rcm44-esm100-rsr0-rcr11-esr310.npz,,,,,0,67,67,529,,right,red,1.55,276.0241298675537,276.5306029319763,,1,6,3,lightness,readingArea,realistic,75,2023-03-22_17h36.25.451,tripletExp_regina_11082022,2022.2.4,120.2485070369234,
0,8,14,0,0.027777777777778,0.298245614035088,0,0.25,1.0,0,0.25,3.10526315789474,ReadingArea_rsl0-rcl2-esl29-rsm0-rcm25-esm100-rsr0-rcr25-esr310,exr/ReadingArea_rsl0-rcl2-esl29-rsm0-rcm25-esm100-rsr0-rcr25-esr310.exr,ReadingArea_rsl0-rcl2-esl29-rsm0-rcm25-esm100-rsr0-rcr25-esr310.npz,,,,,0,68,68,114,,right,red,1.56,278.25299096107483,278.75642704963684,,1,6,3,lightness,readingArea,realistic,75,2023-03-22_17h36.25.451,tripletExp_regina_11082022,2022.2.4,120.2485070369234,
13,6,0,0,0.111111111111111,3.10526315789474,0,0.027777777777778,1.0,0,0.027777777777778,0.298245614035088,ReadingArea_rsl0-rcl11-esl310-rsm0-rcm2-esm100-rsr0-rcr2-esr29,exr/ReadingArea_rsl0-rcl11-esl310-rsm0-rcm2-esm100-rsr0-rcr2-esr29.exr,ReadingArea_rsl0-rcl11-esl310-rsm0-rcm2-esm100-rsr0-rcr2-esr29.npz,,,,,0,69,69,309,,right,red,3.09,282.2480628490448,282.72622895240784,,1,6,3,lightness,readingArea,realistic,75,2023-03-22_17h36.25.451,tripletExp_regina_11082022,2022.2.4,120.2485070369234,
3,9,0,0,0.444444444444444,0.298245614035088,0,0.444444444444444,1.0,0,0.027777777777778,0.298245614035088,ReadingArea_rsl0-rcl44-esl29-rsm0-rcm44-esm100-rsr0-rcr2-esr29,exr/ReadingArea_rsl0-rcl44-esl29-rsm0-rcm44-esm100-rsr0-rcr2-esr29.exr,ReadingArea_rsl0-rcl44-esl29-rsm0-rcm44-esm100-rsr0-rcr2-esr29.npz,,,,,0,70,70,551,,left,green,1.34,284.43342900276184,284.9688038825989,,1,6,3,lightness,readingArea,realistic,75,2023-03-22_17h36.25.451,tripletExp_regina_11082022,2022.2.4,120.2485070369234,
5,3,2,0,1.0,0.298245614035088,0,0.444444444444444,0.298245614035088,0,0.25,0.298245614035088,ReadingArea_rsl0-rcl100-esl29-rsm0-rcm44-esm29-rsr0-rcr25-esr29,exr/ReadingArea_rsl0-rcl100-esl29-rsm0-rcm44-esm29-rsr0-rcr25-esr29.exr,ReadingArea_rsl0-rcl100-esl29-rsm0-rcm44-esm29-rsr0-rcr25-esr29.npz,,,,,0,71,71,143,,right,red,2.86,288.44610595703125,288.90733003616333,,1,6,3,lightness,readingArea,realistic,75,2023-03-22_17h36.25.451,tripletExp_regina_11082022,2022.2.4,120.2485070369234,
12,4,9,0,0.027777777777778,3.10526315789474,0,0.694444444444444,0.298245614035088,0,0.444444444444444,1.0,ReadingArea_rsl0-rcl2-esl310-rsm0-rcm69-esm29-rsr0-rcr44-esr100,exr/ReadingArea_rsl0-rcl2-esl310-rsm0-rcm69-esm29-rsr0-rcr44-esr100.exr,ReadingArea_rsl0-rcl2-esl310-rsm0-rcm69-esm29-rsr0-rcr44-esr100.npz,,,,,0,72,72,380,,right,red,2.75,292.3605589866638,292.79946994781494,,1,6,3,lightness,readingArea,realistic,75,2023-03-22_17h36.25.451,tripletExp_regina_11082022,2022.2.4,120.2485070369234,
9,11,13,0,0.444444444444444,1.0,0,1.0,1.0,0,0.111111111111111,3.10526315789474,ReadingArea_rsl0-rcl44-esl100-rsm0-rcm100-esm100-rsr0-rcr11-esr310,exr/ReadingArea_rsl0-rcl44-esl100-rsm0-rcm100-esm100-rsr0-rcr11-esr310.exr,ReadingArea_rsl0-rcl44-esl100-rsm0-rcm100-esm100-rsr0-rcr11-esr310.npz,,,,,0,73,73,254,,left,green,3.09,296.2690398693085,296.7222728729248,,1,6,3,lightness,readingArea,realistic,75,2023-03-22_17h36.25.451,tripletExp_regina_11082022,2022.2.4,120.2485070369234,
9,0,8,0,0.444444444444444,1.0,0,0.027777777777778,0.298245614035088,0,0.25,1.0,ReadingArea_rsl0-rcl44-esl100-rsm0-rcm2-esm29-rsr0-rcr25-esr100,exr/ReadingArea_rsl0-rcl44-esl100-rsm0-rcm2-esm29-rsr0-rcr25-esr100.exr,ReadingArea_rsl0-rcl44-esl100-rsm0-rcm2-esm29-rsr0-rcr25-esr100.npz,,,,,0,74,74,27,,right,red,1.41,298.4444808959961,298.64746594429016,,1,6,3,lightness,readingArea,realistic,75,2023-03-22_17h36.25.451,tripletExp_regina_11082022,2022.2.4,120.2485070369234,
6,11,1,0,0.027777777777778,1.0,0,1.0,1.0,0,0.111111111111111,0.298245614035088,ReadingArea_rsl0-rcl2-esl100-rsm0-rcm100-esm100-rsr0-rcr11-esr29,exr/ReadingArea_rsl0-rcl2-esl100-rsm0-rcm100-esm100-rsr0-rcr11-esr29.exr,ReadingArea_rsl0-rcl2-esl100-rsm0-rcm100-esm100-rsr0-rcr11-esr29.npz,,,,,0,75,75,436,,right,red,2.7,330.77295303344727,331.2239758968353,,2,6,3,lightness,readingArea,realistic,75,2023-03-22_17h36.25.451,tripletExp_regina_11082022,2022.2.4,120.2485070369234,
4,10,9,0,0.694444444444444,0.298245614035088,0,0.694444444444444,1.0,0,0.444444444444444,1.0,ReadingArea_rsl0-rcl69-esl29-rsm0-rcm69-esm100-rsr0-rcr44-esr100,exr/ReadingArea_rsl0-rcl69-esl29-rsm0-rcm69-esm100-rsr0-rcr44-esr100.exr,ReadingArea_rsl0-rcl69-esl29-rsm0-rcm69-esm100-rsr0-rcr44-esr100.npz,,,,,0,76,76,516,,right,red,1.13,332.9476819038391,333.4362049102783,,2,6,3,lightness,readingArea,realistic,75,2023-03-22_17h36.25.451,tripletExp_regina_11082022,2022.2.4,120.2485070369234,
5,2,14,0,1.0,0.298245614035088,0,0.25,0.298245614035088,0,0.25,3.10526315789474,ReadingArea_rsl0-rcl100-esl29-rsm0-rcm25-esm29-rsr0-rcr25-esr310,exr/ReadingArea_rsl0-rcl100-esl29-rsm0-rcm25-esm29-rsr0-rcr25-esr310.exr,ReadingArea_rsl0-rcl100-esl29-rsm0-rcm25-esm29-rsr0-rcr25-esr310.npz,,,,,0,77,77,462,,left,green,1.67,335.13126492500305,335.7403919696808,,2,6,3,lightness,readingArea,realistic,75,2023-03-22_17h36.25.451,tripletExp_regina_11082022,2022.2.4,120.2485070369234,
1,9,7,0,0.111111111111111,0.298245614035088,0,0.444444444444444,1.0,0,0.111111111111111,1.0,ReadingArea_rsl0-rcl11-esl29-rsm0-rcm44-esm100-rsr0-rcr11-esr100,exr/ReadingArea_rsl0-rcl11-esl29-rsm0-rcm44-esm100-rsr0-rcr11-esr100.exr,ReadingArea_rsl0-rcl11-esl29-rsm0-rcm44-esm100-rsr0-rcr11-esr100.npz,,,,,0,78,78,397,,right,red,1.6,337.44915890693665,337.90809082984924,,2,6,3,lightness,readingArea,realistic,75,2023-03-22_17h36.25.451,tripletExp_regina_11082022,2022.2.4,120.2485070369234,
14,6,11,0,0.25,3.10526315789474,0,0.027777777777778,1.0,0,1.0,1.0,ReadingArea_rsl0-rcl25-esl310-rsm0-rcm2-esm100-rsr0-rcr100-esr100,exr/ReadingArea_rsl0-rcl25-esl310-rsm0-rcm2-esm100-rsr0-rcr100-esr100.exr,ReadingArea_rsl0-rcl25-esl310-rsm0-rcm2-esm100-rsr0-rcr100-esr100.npz,,,,,0,79,79,337,,left,green,1.39,339.63188195228577,340.08915305137634,,2,6,3,lightness,readingArea,realistic,75,2023-03-22_17h36.25.451,tripletExp_regina_11082022,2022.2.4,120.2485070369234,
3,6,10,0,0.444444444444444,0.298245614035088,0,0.027777777777778,1.0,0,0.694444444444444,1.0,ReadingArea_rsl0-rcl44-esl29-rsm0-rcm2-esm100-rsr0-rcr69-esr100,exr/ReadingArea_rsl0-rcl44-esl29-rsm0-rcm2-esm100-rsr0-rcr69-esr100.exr,ReadingArea_rsl0-rcl44-esl29-rsm0-rcm2-esm100-rsr0-rcr69-esr100.npz,,,,,0,80,80,138,,left,green,2.89,343.55108404159546,344.00802087783813,,2,6,3,lightness,readingArea,realistic,75,2023-03-22_17h36.25.451,tripletExp_regina_11082022,2022.2.4,120.2485070369234,
12,5,14,0,0.027777777777778,3.10526315789474,0,1.0,0.298245614035088,0,0.25,3.10526315789474,ReadingArea_rsl0-rcl2-esl310-rsm0-rcm100-esm29-rsr0-rcr25-esr310,exr/ReadingArea_rsl0-rcl2-esl310-rsm0-rcm100-esm29-rsr0-rcr25-esr310.exr,ReadingArea_rsl0-rcl2-esl310-rsm0-rcm100-esm29-rsr0-rcr25-esr310.npz,,,,,0,81,81,193,,right,red,1.11,345.73043298721313,346.16054487228394,,2,6,3,lightness,readingArea,realistic,75,2023-03-22_17h36.25.451,tripletExp_regina_11082022,2022.2.4,120.2485070369234,
10,5,4,0,0.694444444444444,1.0,0,1.0,0.298245614035088,0,0.694444444444444,0.298245614035088,ReadingArea_rsl0-rcl69-esl100-rsm0-rcm100-esm29-rsr0-rcr69-esr29,exr/ReadingArea_rsl0-rcl69-esl100-rsm0-rcm100-esm29-rsr0-rcr69-esr29.exr,ReadingArea_rsl0-rcl69-esl100-rsm0-rcm100-esm29-rsr0-rcr69-esr29.npz,,,,,0,82,82,455,,right,red,1.34,347.87693786621094,348.3357820510864,,2,6,3,lightness,readingArea,realistic,75,2023-03-22_17h36.25.451,tripletExp_regina_11082022,2022.2.4,120.2485070369234,
13,9,6,0,0.111111111111111,3.10526315789474,0,0.444444444444444,1.0,0,0.027777777777778,1.0,ReadingArea_rsl0-rcl11-esl310-rsm0-rcm44-esm100-rsr0-rcr2-esr100,exr/ReadingArea_rsl0-rcl11-esl310-rsm0-rcm44-esm100-rsr0-rcr2-esr100.exr,ReadingArea_rsl0-rcl11-esl310-rsm0-rcm44-esm100-rsr0-rcr2-esr100.npz,,,,,0,83,83,19,,left,green,1.53,350.04841899871826,,,2,6,3,lightness,readingArea,realistic,75,2023-03-22_17h36.25.451,tripletExp_regina_11082022,2022.2.4,120.2485070369234,
8,3,12,0,0.25,1.0,0,0.444444444444444,0.298245614035088,0,0.027777777777778,3.10526315789474,ReadingArea_rsl0-rcl25-esl100-rsm0-rcm44-esm29-rsr0-rcr2-esr310,exr/ReadingArea_rsl0-rcl25-esl100-rsm0-rcm44-esm29-rsr0-rcr2-esr310.exr,ReadingArea_rsl0-rcl25-esl100-rsm0-rcm44-esm29-rsr0-rcr2-esr310.npz,,,,,0,84,84,22,,left,green,1.49,352.24669194221497,352.6880829334259,,2,6,3,lightness,readingArea,realistic,75,2023-03-22_17h36.25.451,tripletExp_regina_11082022,2022.2.4,120.2485070369234,
3,6,5,0,0.444444444444444,0.298245614035088,0,0.027777777777778,1.0,0,1.0,0.298245614035088,ReadingArea_rsl0-rcl44-esl29-rsm0-rcm2-esm100-rsr0-rcr100-esr29,exr/ReadingArea_rsl0-rcl44-esl29-rsm0-rcm2-esm100-rsr0-rcr100-esr29.exr,ReadingArea_rsl0-rcl44-esl29-rsm0-rcm2-esm100-rsr0-rcr100-esr29.npz,,,,,0,85,85,274,,left,green,2.72,356.16408681869507,356.6427388191223,,2,6,3,lightness,readingArea,realistic,75,2023-03-22_17h36.25.451,tripletExp_regina_11082022,2022.2.4,120.2485070369234,
1,12,10,0,0.111111111111111,0.298245614035088,0,0.027777777777778,3.10526315789474,0,0.694444444444444,1.0,ReadingArea_rsl0-rcl11-esl29-rsm0-rcm2-esm310-rsr0-rcr69-esr100,exr/ReadingArea_rsl0-rcl11-esl29-rsm0-rcm2-esm310-rsr0-rcr69-esr100.exr,ReadingArea_rsl0-rcl11-esl29-rsm0-rcm2-esm310-rsr0-rcr69-esr100.npz,,,,,0,86,86,567,,left,green,0.98,358.3445498943329,358.8050739765167,,2,6,3,lightness,readingArea,realistic,75,2023-03-22_17h36.25.451,tripletExp_regina_11082022,2022.2.4,120.2485070369234,
14,8,9,0,0.25,3.10526315789474,0,0.25,1.0,0,0.444444444444444,1.0,ReadingArea_rsl0-rcl25-esl310-rsm0-rcm25-esm100-rsr0-rcr44-esr100,exr/ReadingArea_rsl0-rcl25-esl310-rsm0-rcm25-esm100-rsr0-rcr44-esr100.exr,ReadingArea_rsl0-rcl25-esl310-rsm0-rcm25-esm100-rsr0-rcr44-esr100.npz,,,,,0,87,87,518,,right,red,1.52,360.5261409282684,361.0072309970856,,2,6,3,lightness,readingArea,realistic,75,2023-03-22_17h36.25.451,tripletExp_regina_11082022,2022.2.4,120.2485070369234,
5,2,8,0,1.0,0.298245614035088,0,0.25,0.298245614035088,0,0.25,1.0,ReadingArea_rsl0-rcl100-esl29-rsm0-rcm25-esm29-rsr0-rcr25-esr100,exr/ReadingArea_rsl0-rcl100-esl29-rsm0-rcm25-esm29-rsr0-rcr25-esr100.exr,ReadingArea_rsl0-rcl100-esl29-rsm0-rcm25-esm29-rsr0-rcr25-esr100.npz,,,,,0,88,88,538,,right,red,1.32,362.7025148868561,363.16976594924927,,2,6,3,lightness,readingArea,realistic,75,2023-03-22_17h36.25.451,tripletExp_regina_11082022,2022.2.4,120.2485070369234,
4,1,13,0,0.694444444444444,0.298245614035088,0,0.111111111111111,0.298245614035088,0,0.111111111111111,3.10526315789474,ReadingArea_rsl0-rcl69-esl29-rsm0-rcm11-esm29-rsr0-rcr11-esr310,exr/ReadingArea_rsl0-rcl69-esl29-rsm0-rcm11-esm29-rsr0-rcr11-esr310.exr,ReadingArea_rsl0-rcl69-esl29-rsm0-rcm11-esm29-rsr0-rcr11-esr310.npz,,,,,0,89,89,565,,right,red,1.56,364.8792598247528,365.3414578437805,,2,6,3,lightness,readingArea,realistic,75,2023-03-22_17h36.25.451,tripletExp_regina_11082022,2022.2.4,120.2485070369234,
11,12,1,0,1.0,1.0,0,0.027777777777778,3.10526315789474,0,0.111111111111111,0.298245614035088,ReadingArea_rsl0-rcl100-esl100-rsm0-rcm2-esm310-rsr0-rcr11-esr29,exr/ReadingArea_rsl0-rcl100-esl100-rsm0-rcm2-esm310-rsr0-rcr11-esr29.exr,ReadingArea_rsl0-rcl100-esl100-rsm0-rcm2-esm310-rsr0-rcr11-esr29.npz,,,,,0,90,90,140,,right,red,1.28,367.0492858886719,367.5077028274536,,2,6,3,lightness,readingArea,realistic,75,2023-03-22_17h36.25.451,tripletExp_regina_11082022,2022.2.4,120.2485070369234,
14,2,8,0,0.25,3.10526315789474,0,0.25,0.298245614035088,0,0.25,1.0,ReadingArea_rsl0-rcl25-esl310-rsm0-rcm25-esm29-rsr0-rcr25-esr100,exr/ReadingArea_rsl0-rcl25-esl310-rsm0-rcm25-esm29-rsr0-rcr25-esr100.exr,ReadingArea_rsl0-rcl25-esl310-rsm0-rcm25-esm29-rsr0-rcr25-esr100.npz,,,,,0,91,91,212,,right,red,1.4,369.2015118598938,,,2,6,3,lightness,readingArea,realistic,75,2023-03-22_17h36.25.451,tripletExp_regina_11082022,2022.2.4,120.2485070369234,
5,1,13,0,1.0,0.298245614035088,0,0.111111111111111,0.298245614035088,0,0.111111111111111,3.10526315789474,ReadingArea_rsl0-rcl100-esl29-rsm0-rcm11-esm29-rsr0-rcr11-esr310,exr/ReadingArea_rsl0-rcl100-esl29-rsm0-rcm11-esm29-rsr0-rcr11-esr310.exr,ReadingArea_rsl0-rcl100-esl29-rsm0-rcm11-esm29-rsr0-rcr11-esr310.npz,,,,,0,92,92,594,,right,red,1.45,371.3878288269043,371.8521778583527,,2,6,3,lightness,readingArea,realistic,75,2023-03-22_17h36.25.451,tripletExp_regina_11082022,2022.2.4,120.2485070369234,
7,12,3,0,0.111111111111111,1.0,0,0.027777777777778,3.10526315789474,0,0.444444444444444,0.298245614035088,ReadingArea_rsl0-rcl11-esl100-rsm0-rcm2-esm310-rsr0-rcr44-esr29,exr/ReadingArea_rsl0-rcl11-esl100-rsm0-rcm2-esm310-rsr0-rcr44-esr29.exr,ReadingArea_rsl0-rcl11-esl100-rsm0-rcm2-esm310-rsr0-rcr44-esr29.npz,,,,,0,93,93,584,,right,red,3.21,375.32531785964966,375.79483103752136,,2,6,3,lightness,readingArea,realistic,75,2023-03-22_17h36.25.451,tripletExp_regina_11082022,2022.2.4,120.2485070369234,
4,9,13,0,0.694444444444444,0.298245614035088,0,0.444444444444444,1.0,0,0.111111111111111,3.10526315789474,ReadingArea_rsl0-rcl69-esl29-rsm0-rcm44-esm100-rsr0-rcr11-esr310,exr/ReadingArea_rsl0-rcl69-esl29-rsm0-rcm44-esm100-rsr0-rcr11-esr310.exr,ReadingArea_rsl0-rcl69-esl29-rsm0-rcm44-esm100-rsr0-rcr11-esr310.npz,,,,,0,94,94,488,,right,red,2.55,379.2598779201508,379.7196569442749,,2,6,3,lightness,readingArea,realistic,75,2023-03-22_17h36.25.451,tripletExp_regina_11082022,2022.2.4,120.2485070369234,
2,3,13,0,0.25,0.298245614035088,0,0.444444444444444,0.298245614035088,0,0.111111111111111,3.10526315789474,ReadingArea_rsl0-rcl25-esl29-rsm0-rcm44-esm29-rsr0-rcr11-esr310,exr/ReadingArea_rsl0-rcl25-esl29-rsm0-rcm44-esm29-rsr0-rcr11-esr310.exr,ReadingArea_rsl0-rcl25-esl29-rsm0-rcm44-esm29-rsr0-rcr11-esr310.npz,,,,,0,95,95,498,,right,red,1.11,381.4073638916016,381.8403878211975,,2,6,3,lightness,readingArea,realistic,75,2023-03-22_17h36.25.451,tripletExp_regina_11082022,2022.2.4,120.2485070369234,
14,11,0,0,0.25,3.10526315789474,0,1.0,1.0,0,0.027777777777778,0.298245614035088,ReadingArea_rsl0-rcl25-esl310-rsm0-rcm100-esm100-rsr0-rcr2-esr29,exr/ReadingArea_rsl0-rcl25-esl310-rsm0-rcm100-esm100-rsr0-rcr2-esr29.exr,ReadingArea_rsl0-rcl25-esl310-rsm0-rcm100-esm100-rsr0-rcr2-esr29.npz,,,,,0,96,96,227,,left,green,1.22,383.528345823288,383.9645249843597,,2,6,3,lightness,readingArea,realistic,75,2023-03-22_17h36.25.451,tripletExp_regina_11082022,2022.2.4,120.2485070369234,
14,12,5,0,0.25,3.10526315789474,0,0.027777777777778,3.10526315789474,0,1.0,0.298245614035088,ReadingArea_rsl0-rcl25-esl310-rsm0-rcm2-esm310-rsr0-rcr100-esr29,exr/ReadingArea_rsl0-rcl25-esl310-rsm0-rcm2-esm310-rsr0-rcr100-esr29.exr,ReadingArea_rsl0-rcl25-esl310-rsm0-rcm2-esm310-rsr0-rcr100-esr29.npz,,,,,0,97,97,335,,right,red,1.45,385.6540229320526,,,2,6,3,lightness,readingArea,realistic,75,2023-03-22_17h36.25.451,tripletExp_regina_11082022,2022.2.4,120.2485070369234,
10,11,13,0,0.694444444444444,1.0,0,1.0,1.0,0,0.111111111111111,3.10526315789474,ReadingArea_rsl0-rcl69-esl100-rsm0-rcm100-esm100-rsr0-rcr11-esr310,exr/ReadingArea_rsl0-rcl69-esl100-rsm0-rcm100-esm100-rsr0-rcr11-esr310.exr,ReadingArea_rsl0-rcl69-esl100-rsm0-rcm100-esm100-rsr0-rcr11-esr310.npz,,,,,0,98,98,79,,left,green,1.73,387.81029295921326,388.2505028247833,,2,6,3,lightness,readingArea,realistic,75,2023-03-22_17h36.25.451,tripletExp_regina_11082022,2022.2.4,120.2485070369234,
14,12,0,0,0.25,3.10526315789474,0,0.027777777777778,3.10526315789474,0,0.027777777777778,0.298245614035088,ReadingArea_rsl0-rcl25-esl310-rsm0-rcm2-esm310-rsr0-rcr2-esr29,exr/ReadingArea_rsl0-rcl25-esl310-rsm0-rcm2-esm310-rsr0-rcr2-esr29.exr,ReadingArea_rsl0-rcl25-esl310-rsm0-rcm2-esm310-rsr0-rcr2-esr29.npz,,,,,0,99,99,409,,right,red,2.96,391.7030758857727,392.1534328460693,,2,6,3,lightness,readingArea,realistic,75,2023-03-22_17h36.25.451,tripletExp_regina_11082022,2022.2.4,120.2485070369234,
8,12,3,0,0.25,1.0,0,0.027777777777778,3.10526315789474,0,0.444444444444444,0.298245614035088,ReadingArea_rsl0-rcl25-esl100-rsm0-rcm2-esm310-rsr0-rcr44-esr29,exr/ReadingArea_rsl0-rcl25-esl100-rsm0-rcm2-esm310-rsr0-rcr44-esr29.exr,ReadingArea_rsl0-rcl25-esl100-rsm0-rcm2-esm310-rsr0-rcr44-esr29.npz,,,,,0,100,100,6,,left,green,2.69,395.6585488319397,396.18487095832825,,2,6,3,lightness,readingArea,realistic,75,2023-03-22_17h36.25.451,tripletExp_regina_11082022,2022.2.4,120.2485070369234,
7,9,3,0,0.111111111111111,1.0,0,0.444444444444444,1.0,0,0.444444444444444,0.298245614035088,ReadingArea_rsl0-rcl11-esl100-rsm0-rcm44-esm100-rsr0-rcr44-esr29,exr/ReadingArea_rsl0-rcl11-esl100-rsm0-rcm44-esm100-rsr0-rcr44-esr29.exr,ReadingArea_rsl0-rcl11-esl100-rsm0-rcm44-esm100-rsr0-rcr44-esr29.npz,,,,,0,101,101,311,,right,red,1.5,397.8776669502258,398.32756185531616,,2,6,3,lightness,readingArea,realistic,75,2023-03-22_17h36.25.451,tripletExp_regina_11082022,2022.2.4,120.2485070369234,
14,4,7,0,0.25,3.10526315789474,0,0.694444444444444,0.298245614035088,0,0.111111111111111,1.0,ReadingArea_rsl0-rcl25-esl310-rsm0-rcm69-esm29-rsr0-rcr11-esr100,exr/ReadingArea_rsl0-rcl25-esl310-rsm0-rcm69-esm29-rsr0-rcr11-esr100.exr,ReadingArea_rsl0-rcl25-esl310-rsm0-rcm69-esm29-rsr0-rcr11-esr100.npz,,,,,0,102,102,136,,left,green,2.62,401.7699589729309,402.3937840461731,,2,6,3,lightness,readingArea,realistic,75,2023-03-22_17h36.25.451,tripletExp_regina_11082022,2022.2.4,120.2485070369234,
5,13,12,0,1.0,0.298245614035088,0,0.111111111111111,3.10526315789474,0,0.027777777777778,3.10526315789474,ReadingArea_rsl0-rcl100-esl29-rsm0-rcm11-esm310-rsr0-rcr2-esr310,exr/ReadingArea_rsl0-rcl100-esl29-rsm0-rcm11-esm310-rsr0-rcr2-esr310.exr,ReadingArea_rsl0-rcl100-esl29-rsm0-rcm11-esm310-rsr0-rcr2-esr310.npz,,,,,0,103,103,389,,left,green,1.58,404.08346700668335,404.5397999286652,,2,6,3,lightness,readingArea,realistic,75,2023-03-22_17h36.25.451,tripletExp_regina_11082022,2022.2.4,120.2485070369234,
14,8,3,0,0.25,3.10526315789474,0,0.25,1.0,0,0.444444444444444,0.298245614035088,ReadingArea_rsl0-rcl25-esl310-rsm0-rcm25-esm100-rsr0-rcr44-esr29,exr/ReadingArea_rsl0-rcl25-esl310-rsm0-rcm25-esm100-rsr0-rcr44-esr29.exr,ReadingArea_rsl0-rcl25-esl310-rsm0-rcm25-esm100-rsr0-rcr44-esr29.npz,,,,,0,104,104,100,,right,red,2.84,408.01378083229065,408.479437828064,,2,6,3,lightness,readingArea,realistic,75,2023-03-22_17h36.25.451,tripletExp_regina_11082022,2022.2.4,120.2485070369234,
10,2,0,0,0.694444444444444,1.0,0,0.25,0.298245614035088,0,0.027777777777778,0.298245614035088,ReadingArea_rsl0-rcl69-esl100-rsm0-rcm25-esm29-rsr0-rcr2-esr29,exr/ReadingArea_rsl0-rcl69-esl100-rsm0-rcm25-esm29-rsr0-rcr2-esr29.exr,ReadingArea_rsl0-rcl69-esl100-rsm0-rcm25-esm29-rsr0-rcr2-esr29.npz,,,,,0,105,105,427,,right,red,3.17,411.9309918880463,412.3865268230438,,2,6,3,lightness,readingArea,realistic,75,2023-03-22_17h36.25.451,tripletExp_regina_11082022,2022.2.4,120.2485070369234,
11,12,2,0,1.0,1.0,0,0.027777777777778,3.10526315789474,0,0.25,0.298245614035088,ReadingArea_rsl0-rcl100-esl100-rsm0-rcm2-esm310-rsr0-rcr25-esr29,exr/ReadingArea_rsl0-rcl100-esl100-rsm0-rcm2-esm310-rsr0-rcr25-esr29.exr,ReadingArea_rsl0-rcl100-esl100-rsm0-rcm2-esm310-rsr0-rcr25-esr29.npz,,,,,0,106,106,423,,right,red,0.97,414.0972189903259,414.68284583091736,,2,6,3,lightness,readingArea,realistic,75,2023-03-22_17h36.25.451,tripletExp_regina_11082022,2022.2.4,120.2485070369234,
14,6,2,0,0.25,3.10526315789474,0,0.027777777777778,1.0,0,0.25,0.298245614035088,ReadingArea_rsl0-rcl25-esl310-rsm0-rcm2-esm100-rsr0-rcr25-esr29,exr/ReadingArea_rsl0-rcl25-esl310-rsm0-rcm2-esm100-rsr0-rcr25-esr29.exr,ReadingArea_rsl0-rcl25-esl310-rsm0-rcm2-esm100-rsr0-rcr25-esr29.npz,,,,,0,107,107,272,,right,red,0.94,416.3814368247986,416.82330203056335,,2,6,3,lightness,readingArea,realistic,75,2023-03-22_17h36.25.451,tripletExp_regina_11082022,2022.2.4,120.2485070369234,
12,5,4,0,0.027777777777778,3.10526315789474,0,1.0,0.298245614035088,0,0.694444444444444,0.298245614035088,ReadingArea_rsl0-rcl2-esl310-rsm0-rcm100-esm29-rsr0-rcr69-esr29,exr/ReadingArea_rsl0-rcl2-esl310-rsm0-rcm100-esm29-rsr0-rcr69-esr29.exr,ReadingArea_rsl0-rcl2-esl310-rsm0-rcm100-esm29-rsr0-rcr69-esr29.npz,,,,,0,108,108,566,,right,red,0.96,418.5403640270233,419.07291889190674,,2,6,3,lightness,readingArea,realistic,75,2023-03-22_17h36.25.451,tripletExp_regina_11082022,2022.2.4,120.2485070369234,
5,3,4,0,1.0,0.298245614035088,0,0.444444444444444,0.298245614035088,0,0.694444444444444,0.298245614035088,ReadingArea_rsl0-rcl100-esl29-rsm0-rcm44-esm29-rsr0-rcr69-esr29,exr/ReadingArea_rsl0-rcl100-esl29-rsm0-rcm44-esm29-rsr0-rcr69-esr29.exr,ReadingArea_rsl0-rcl100-esl29-rsm0-rcm44-esm29-rsr0-rcr69-esr29.npz,,,,,0,109,109,201,,right,red,3.23,422.5622708797455,423.0298500061035,,2,6,3,lightness,readingArea,realistic,75,2023-03-22_17h36.25.451,tripletExp_regina_11082022,2022.2.4,120.2485070369234,
6,11,8,0,0.027777777777778,1.0,0,1.0,1.0,0,0.25,1.0,ReadingArea_rsl0-rcl2-esl100-rsm0-rcm100-esm100-rsr0-rcr25-esr100,exr/ReadingArea_rsl0-rcl2-esl100-rsm0-rcm100-esm100-rsr0-rcr25-esr100.exr,ReadingArea_rsl0-rcl2-esl100-rsm0-rcm100-esm100-rsr0-rcr25-esr100.npz,,,,,0,110,110,176,,right,red,1.34,424.7506999969482,425.24386286735535,,2,6,3,lightness,readingArea,realistic,75,2023-03-22_17h36.25.451,tripletExp_regina_11082022,2022.2.4,120.2485070369234,
13,8,5,0,0.111111111111111,3.10526315789474,0,0.25,1.0,0,1.0,0.298245614035088,ReadingArea_rsl0-rcl11-esl310-rsm0-rcm25-esm100-rsr0-rcr100-esr29,exr/ReadingArea_rsl0-rcl11-esl310-rsm0-rcm25-esm100-rsr0-rcr100-esr29.exr,ReadingArea_rsl0-rcl11-esl310-rsm0-rcm25-esm100-rsr0-rcr100-esr29.npz,,,,,0,111,111,209,,left,green,1.41,426.95725297927856,427.3876960277557,,2,6,3,lightness,readingArea,realistic,75,2023-03-22_17h36.25.451,tripletExp_regina_11082022,2022.2.4,120.2485070369234,
10,11,12,0,0.694444444444444,1.0,0,1.0,1.0,0,0.027777777777778,3.10526315789474,ReadingArea_rsl0-rcl69-esl100-rsm0-rcm100-esm100-rsr0-rcr2-esr310,exr/ReadingArea_rsl0-rcl69-esl100-rsm0-rcm100-esm100-rsr0-rcr2-esr310.exr,ReadingArea_rsl0-rcl69-esl100-rsm0-rcm100-esm100-rsr0-rcr2-esr310.npz,,,,,0,112,112,533,,left,green,1.25,429.0851500034332,429.5638928413391,,2,6,3,lightness,readingArea,realistic,75,2023-03-22_17h36.25.451,tripletExp_regina_11082022,2022.2.4,120.2485070369234,
1,12,11,0,0.111111111111111,0.298245614035088,0,0.027777777777778,3.10526315789474,0,1.0,1.0,ReadingArea_rsl0-rcl11-esl29-rsm0-rcm2-esm310-rsr0-rcr100-esr100,exr/ReadingArea_rsl0-rcl11-esl29-rsm0-rcm2-esm310-rsr0-rcr100-esr100.exr,ReadingArea_rsl0-rcl11-esl29-rsm0-rcm2-esm310-rsr0-rcr100-esr100.npz,,,,,0,113,113,178,,left,green,1.21,431.2507109642029,431.697154045105,,2,6,3,lightness,readingArea,realistic,75,2023-03-22_17h36.25.451,tripletExp_regina_11082022,2022.2.4,120.2485070369234,
11,13,8,0,1.0,1.0,0,0.111111111111111,3.10526315789474,0,0.25,1.0,ReadingArea_rsl0-rcl100-esl100-rsm0-rcm11-esm310-rsr0-rcr25-esr100,exr/ReadingArea_rsl0-rcl100-esl100-rsm0-rcm11-esm310-rsr0-rcr25-esr100.exr,ReadingArea_rsl0-rcl100-esl100-rsm0-rcm11-esm310-rsr0-rcr25-esr100.npz,,,,,0,114,114,198,,right,red,1.12,433.3905930519104,433.8678498268128,,2,6,3,lightness,readingArea,realistic,75,2023-03-22_17h36.25.451,tripletExp_regina_11082022,2022.2.4,120.2485070369234,
5,14,3,0,1.0,0.298245614035088,0,0.25,3.10526315789474,0,0.444444444444444,0.298245614035088,ReadingArea_rsl0-rcl100-esl29-rsm0-rcm25-esm310-rsr0-rcr44-esr29,exr/ReadingArea_rsl0-rcl100-esl29-rsm0-rcm25-esm310-rsr0-rcr44-esr29.exr,ReadingArea_rsl0-rcl100-esl29-rsm0-rcm25-esm310-rsr0-rcr44-esr29.npz,,,,,0,115,115,93,,left,green,1.38,435.5689599514008,436.1675319671631,,2,6,3,lightness,readingArea,realistic,75,2023-03-22_17h36.25.451,tripletExp_regina_11082022,2022.2.4,120.2485070369234,
11,7,8,0,1.0,1.0,0,0.111111111111111,1.0,0,0.25,1.0,ReadingArea_rsl0-rcl100-esl100-rsm0-rcm11-esm100-rsr0-rcr25-esr100,exr/ReadingArea_rsl0-rcl100-esl100-rsm0-rcm11-esm100-rsr0-rcr25-esr100.exr,ReadingArea_rsl0-rcl100-esl100-rsm0-rcm11-esm100-rsr0-rcr25-esr100.npz,,,,,0,116,116,37,,right,red,1.24,437.8801138401032,438.3376979827881,,2,6,3,lightness,readingArea,realistic,75,2023-03-22_17h36.25.451,tripletExp_regina_11082022,2022.2.4,120.2485070369234,
10,13,6,0,0.694444444444444,1.0,0,0.111111111111111,3.10526315789474,0,0.027777777777778,1.0,ReadingArea_rsl0-rcl69-esl100-rsm0-rcm11-esm310-rsr0-rcr2-esr100,exr/ReadingArea_rsl0-rcl69-esl100-rsm0-rcm11-esm310-rsr0-rcr2-esr100.exr,ReadingArea_rsl0-rcl69-esl100-rsm0-rcm11-esm310-rsr0-rcr2-esr100.npz,,,,,0,117,117,351,,left,green,2.94,441.8055708408356,442.2742078304291,,2,6,3,lightness,readingArea,realistic,75,2023-03-22_17h36.25.451,tripletExp_regina_11082022,2022.2.4,120.2485070369234,
3,0,2,0,0.444444444444444,0.298245614035088,0,0.027777777777778,0.298245614035088,0,0.25,0.298245614035088,ReadingArea_rsl0-rcl44-esl29-rsm0-rcm2-esm29-rsr0-rcr25-esr29,exr/ReadingArea_rsl0-rcl44-esl29-rsm0-rcm2-esm29-rsr0-rcr25-esr29.exr,ReadingArea_rsl0-rcl44-esl29-rsm0-rcm2-esm29-rsr0-rcr25-esr29.npz,,,,,0,118,118,334,,left,green,1.4,443.9738459587097,444.4893639087677,,2,6,3,lightness,readingArea,realistic,75,2023-03-22_17h36.25.451,tripletExp_regina_11082022,2022.2.4,120.2485070369234,
13,1,7,0,0.111111111111111,3.10526315789474,0,0.111111111111111,0.298245614035088,0,0.111111111111111,1.0,ReadingArea_rsl0-rcl11-esl310-rsm0-rcm11-esm29-rsr0-rcr11-esr100,exr/ReadingArea_rsl0-rcl11-esl310-rsm0-rcm11-esm29-rsr0-rcr11-esr100.exr,ReadingArea_rsl0-rcl11-esl310-rsm0-rcm11-esm29-rsr0-rcr11-esr100.npz,,,,,0,119,119,206,,right,red,1.08,446.18275690078735,446.6308870315552,,2,6,3,lightness,readingArea,realistic,75,2023-03-22_17h36.25.451,tripletExp_regina_11082022,2022.2.4,120.2485070369234,
3,12,14,0,0.444444444444444,0.298245614035088,0,0.027777777777778,3.10526315789474,0,0.25,3.10526315789474,ReadingArea_rsl0-rcl44-esl29-rsm0-rcm2-esm310-rsr0-rcr25-esr310,exr/ReadingArea_rsl0-rcl44-esl29-rsm0-rcm2-esm310-rsr0-rcr25-esr310.exr,ReadingArea_rsl0-rcl44-esl29-rsm0-rcm2-esm310-rsr0-rcr25-esr310.npz,,,,,0,120,120,16,,left,green,0.84,448.3207018375397,448.8408968448639,,2,6,3,lightness,readingArea,realistic,75,2023-03-22_17h36.25.451,tripletExp_regina_11082022,2022.2.4,120.2485070369234,
13,6,10,0,0.111111111111111,3.10526315789474,0,0.027777777777778,1.0,0,0.694444444444444,1.0,ReadingArea_rsl0-rcl11-esl310-rsm0-rcm2-esm100-rsr0-rcr69-esr100,exr/ReadingArea_rsl0-rcl11-esl310-rsm0-rcm2-esm100-rsr0-rcr69-esr100.exr,ReadingArea_rsl0-rcl11-esl310-rsm0-rcm2-esm100-rsr0-rcr69-esr100.npz,,,,,0,121,121,593,,left,green,1.0,450.5373418331146,451.036248922348,,2,6,3,lightness,readingArea,realistic,75,2023-03-22_17h36.25.451,tripletExp_regina_11082022,2022.2.4,120.2485070369234,
6,7,3,0,0.027777777777778,1.0,0,0.111111111111111,1.0,0,0.444444444444444,0.298245614035088,ReadingArea_rsl0-rcl2-esl100-rsm0-rcm11-esm100-rsr0-rcr44-esr29,exr/ReadingArea_rsl0-rcl2-esl100-rsm0-rcm11-esm100-rsr0-rcr44-esr29.exr,ReadingArea_rsl0-rcl2-esl100-rsm0-rcm11-esm100-rsr0-rcr44-esr29.npz,,,,,0,122,122,47,,right,red,1.55,452.72435688972473,453.16119289398193,,2,6,3,lightness,readingArea,realistic,75,2023-03-22_17h36.25.451,tripletExp_regina_11082022,2022.2.4,120.2485070369234,
8,1,14,0,0.25,1.0,0,0.111111111111111,0.298245614035088,0,0.25,3.10526315789474,ReadingArea_rsl0-rcl25-esl100-rsm0-rcm11-esm29-rsr0-rcr25-esr310,exr/ReadingArea_rsl0-rcl25-esl100-rsm0-rcm11-esm29-rsr0-rcr25-esr310.exr,ReadingArea_rsl0-rcl25-esl100-rsm0-rcm11-esm29-rsr0-rcr25-esr310.npz,,,,,0,123,123,500,,left,green,2.36,456.6323020458221,457.0974190235138,,2,6,3,lightness,readingArea,realistic,75,2023-03-22_17h36.25.451,tripletExp_regina_11082022,2022.2.4,120.2485070369234,
12,8,10,0,0.027777777777778,3.10526315789474,0,0.25,1.0,0,0.694444444444444,1.0,ReadingArea_rsl0-rcl2-esl310-rsm0-rcm25-esm100-rsr0-rcr69-esr100,exr/ReadingArea_rsl0-rcl2-esl310-rsm0-rcm25-esm100-rsr0-rcr69-esr100.exr,ReadingArea_rsl0-rcl2-esl310-rsm0-rcm25-esm100-rsr0-rcr69-esr100.npz,,,,,0,124,124,216,,left,green,2.94,460.5965700149536,461.0540339946747,,2,6,3,lightness,readingArea,realistic,75,2023-03-22_17h36.25.451,tripletExp_regina_11082022,2022.2.4,120.2485070369234,
1,13,8,0,0.111111111111111,0.298245614035088,0,0.111111111111111,3.10526315789474,0,0.25,1.0,ReadingArea_rsl0-rcl11-esl29-rsm0-rcm11-esm310-rsr0-rcr25-esr100,exr/ReadingArea_rsl0-rcl11-esl29-rsm0-rcm11-esm310-rsr0-rcr25-esr100.exr,ReadingArea_rsl0-rcl11-esl29-rsm0-rcm11-esm310-rsr0-rcr25-esr100.npz,,,,,0,125,125,64,,right,red,2.8,464.5229580402374,464.99185490608215,,2,6,3,lightness,readingArea,realistic,75,2023-03-22_17h36.25.451,tripletExp_regina_11082022,2022.2.4,120.2485070369234,
6,4,0,0,0.027777777777778,1.0,0,0.694444444444444,0.298245614035088,0,0.027777777777778,0.298245614035088,ReadingArea_rsl0-rcl2-esl100-rsm0-rcm69-esm29-rsr0-rcr2-esr29,exr/ReadingArea_rsl0-rcl2-esl100-rsm0-rcm69-esm29-rsr0-rcr2-esr29.exr,ReadingArea_rsl0-rcl2-esl100-rsm0-rcm69-esm29-rsr0-rcr2-esr29.npz,,,,,0,126,126,360,,left,green,2.69,468.4541108608246,468.901211977005,,2,6,3,lightness,readingArea,realistic,75,2023-03-22_17h36.25.451,tripletExp_regina_11082022,2022.2.4,120.2485070369234,
9,14,7,0,0.444444444444444,1.0,0,0.25,3.10526315789474,0,0.111111111111111,1.0,ReadingArea_rsl0-rcl44-esl100-rsm0-rcm25-esm310-rsr0-rcr11-esr100,exr/ReadingArea_rsl0-rcl44-esl100-rsm0-rcm25-esm310-rsr0-rcr11-esr100.exr,ReadingArea_rsl0-rcl44-esl100-rsm0-rcm25-esm310-rsr0-rcr11-esr100.npz,,,,,0,127,127,44,,left,green,2.72,472.388083934784,472.8468680381775,,2,6,3,lightness,readingArea,realistic,75,2023-03-22_17h36.25.451,tripletExp_regina_11082022,2022.2.4,120.2485070369234,
11,7,10,0,1.0,1.0,0,0.111111111111111,1.0,0,0.694444444444444,1.0,ReadingArea_rsl0-rcl100-esl100-rsm0-rcm11-esm100-rsr0-rcr69-esr100,exr/ReadingArea_rsl0-rcl100-esl100-rsm0-rcm11-esm100-rsr0-rcr69-esr100.exr,ReadingArea_rsl0-rcl100-esl100-rsm0-rcm11-esm100-rsr0-rcr69-esr100.npz,,,,,0,128,128,411,,left,green,2.88,476.3110649585724,476.7625918388367,,2,6,3,lightness,readingArea,realistic,75,2023-03-22_17h36.25.451,tripletExp_regina_11082022,2022.2.4,120.2485070369234,
8,2,0,0,0.25,1.0,0,0.25,0.298245614035088,0,0.027777777777778,0.298245614035088,ReadingArea_rsl0-rcl25-esl100-rsm0-rcm25-esm29-rsr0-rcr2-esr29,exr/ReadingArea_rsl0-rcl25-esl100-rsm0-rcm25-esm29-rsr0-rcr2-esr29.exr,ReadingArea_rsl0-rcl25-esl100-rsm0-rcm25-esm29-rsr0-rcr2-esr29.npz,,,,,0,129,129,574,,left,green,1.18,478.46690797805786,478.9128758907318,,2,6,3,lightness,readingArea,realistic,75,2023-03-22_17h36.25.451,tripletExp_regina_11082022,2022.2.4,120.2485070369234,
4,12,5,0,0.694444444444444,0.298245614035088,0,0.027777777777778,3.10526315789474,0,1.0,0.298245614035088,ReadingArea_rsl0-rcl69-esl29-rsm0-rcm2-esm310-rsr0-rcr100-esr29,exr/ReadingArea_rsl0-rcl69-esl29-rsm0-rcm2-esm310-rsr0-rcr100-esr29.exr,ReadingArea_rsl0-rcl69-esl29-rsm0-rcm2-esm310-rsr0-rcr100-esr29.npz,,,,,0,130,130,296,,left,green,3.26,482.3848509788513,482.8376920223236,,2,6,3,lightness,readingArea,realistic,75,2023-03-22_17h36.25.451,tripletExp_regina_11082022,2022.2.4,120.2485070369234,
10,4,9,0,0.694444444444444,1.0,0,0.694444444444444,0.298245614035088,0,0.444444444444444,1.0,ReadingArea_rsl0-rcl69-esl100-rsm0-rcm69-esm29-rsr0-rcr44-esr100,exr/ReadingArea_rsl0-rcl69-esl100-rsm0-rcm69-esm29-rsr0-rcr44-esr100.exr,ReadingArea_rsl0-rcl69-esl100-rsm0-rcm69-esm29-rsr0-rcr44-esr100.npz,,,,,0,131,131,452,,right,red,1.48,484.55729389190674,485.0249588489533,,2,6,3,lightness,readingArea,realistic,75,2023-03-22_17h36.25.451,tripletExp_regina_11082022,2022.2.4,120.2485070369234,
5,6,0,0,1.0,0.298245614035088,0,0.027777777777778,1.0,0,0.027777777777778,0.298245614035088,ReadingArea_rsl0-rcl100-esl29-rsm0-rcm2-esm100-rsr0-rcr2-esr29,exr/ReadingArea_rsl0-rcl100-esl29-rsm0-rcm2-esm100-rsr0-rcr2-esr29.exr,ReadingArea_rsl0-rcl100-esl29-rsm0-rcm2-esm100-rsr0-rcr2-esr29.npz,,,,,0,132,132,511,,right,red,1.08,486.7404658794403,487.2007608413696,,2,6,3,lightness,readingArea,realistic,75,2023-03-22_17h36.25.451,tripletExp_regina_11082022,2022.2.4,120.2485070369234,
4,1,9,0,0.694444444444444,0.298245614035088,0,0.111111111111111,0.298245614035088,0,0.444444444444444,1.0,ReadingArea_rsl0-rcl69-esl29-rsm0-rcm11-esm29-rsr0-rcr44-esr100,exr/ReadingArea_rsl0-rcl69-esl29-rsm0-rcm11-esm29-rsr0-rcr44-esr100.exr,ReadingArea_rsl0-rcl69-esl29-rsm0-rcm11-esm29-rsr0-rcr44-esr100.npz,,,,,0,133,133,7,,left,green,2.27,490.673535823822,491.17749094963074,,2,6,3,lightness,readingArea,realistic,75,2023-03-22_17h36.25.451,tripletExp_regina_11082022,2022.2.4,120.2485070369234,
6,4,10,0,0.027777777777778,1.0,0,0.694444444444444,0.298245614035088,0,0.694444444444444,1.0,ReadingArea_rsl0-rcl2-esl100-rsm0-rcm69-esm29-rsr0-rcr69-esr100,exr/ReadingArea_rsl0-rcl2-esl100-rsm0-rcm69-esm29-rsr0-rcr69-esr100.exr,ReadingArea_rsl0-rcl2-esl100-rsm0-rcm69-esm29-rsr0-rcr69-esr100.npz,,,,,0,134,134,554,,left,green,1.13,492.8747668266296,493.349946975708,,2,6,3,lightness,readingArea,realistic,75,2023-03-22_17h36.25.451,tripletExp_regina_11082022,2022.2.4,120.2485070369234,
7,4,6,0,0.111111111111111,1.0,0,0.694444444444444,0.298245614035088,0,0.027777777777778,1.0,ReadingArea_rsl0-rcl11-esl100-rsm0-rcm69-esm29-rsr0-rcr2-esr100,exr/ReadingArea_rsl0-rcl11-esl100-rsm0-rcm69-esm29-rsr0-rcr2-esr100.exr,ReadingArea_rsl0-rcl11-esl100-rsm0-rcm69-esm29-rsr0-rcr2-esr100.npz,,,,,0,135,135,528,,left,green,1.49,495.0405268669128,495.498193025589,,2,6,3,lightness,readingArea,realistic,75,2023-03-22_17h36.25.451,tripletExp_regina_11082022,2022.2.4,120.2485070369234,
0,7,9,0,0.027777777777778,0.298245614035088,0,0.111111111111111,1.0,0,0.444444444444444,1.0,ReadingArea_rsl0-rcl2-esl29-rsm0-rcm11-esm100-rsr0-rcr44-esr100,exr/ReadingArea_rsl0-rcl2-esl29-rsm0-rcm11-esm100-rsr0-rcr44-esr100.exr,ReadingArea_rsl0-rcl2-esl29-rsm0-rcm11-esm100-rsr0-rcr44-esr100.npz,,,,,0,136,136,463,,left,green,1.34,497.207612991333,497.7140970230103,,2,6,3,lightness,readingArea,realistic,75,2023-03-22_17h36.25.451,tripletExp_regina_11082022,2022.2.4,120.2485070369234,
0,10,12,0,0.027777777777778,0.298245614035088,0,0.694444444444444,1.0,0,0.027777777777778,3.10526315789474,ReadingArea_rsl0-rcl2-esl29-rsm0-rcm69-esm100-rsr0-rcr2-esr310,exr/ReadingArea_rsl0-rcl2-esl29-rsm0-rcm69-esm100-rsr0-rcr2-esr310.exr,ReadingArea_rsl0-rcl2-esl29-rsm0-rcm69-esm100-rsr0-rcr2-esr310.npz,,,,,0,137,137,531,,right,red,1.25,499.4249629974365,499.9251928329468,,2,6,3,lightness,readingArea,realistic,75,2023-03-22_17h36.25.451,tripletExp_regina_11082022,2022.2.4,120.2485070369234,
0,5,2,0,0.027777777777778,0.298245614035088,0,1.0,0.298245614035088,0,0.25,0.298245614035088,ReadingArea_rsl0-rcl2-esl29-rsm0-rcm100-esm29-rsr0-rcr25-esr29,exr/ReadingArea_rsl0-rcl2-esl29-rsm0-rcm100-esm29-rsr0-rcr25-esr29.exr,ReadingArea_rsl0-rcl2-esl29-rsm0-rcm100-esm29-rsr0-rcr25-esr29.npz,,,,,0,138,138,25,,right,red,1.24,501.6179959774017,502.0988349914551,,2,6,3,lightness,readingArea,realistic,75,2023-03-22_17h36.25.451,tripletExp_regina_11082022,2022.2.4,120.2485070369234,
1,14,6,0,0.111111111111111,0.298245614035088,0,0.25,3.10526315789474,0,0.027777777777778,1.0,ReadingArea_rsl0-rcl11-esl29-rsm0-rcm25-esm310-rsr0-rcr2-esr100,exr/ReadingArea_rsl0-rcl11-esl29-rsm0-rcm25-esm310-rsr0-rcr2-esr100.exr,ReadingArea_rsl0-rcl11-esl29-rsm0-rcm25-esm310-rsr0-rcr2-esr100.npz,,,,,0,139,139,475,,left,green,1.32,503.7858228683472,504.29541397094727,,2,6,3,lightness,readingArea,realistic,75,2023-03-22_17h36.25.451,tripletExp_regina_11082022,2022.2.4,120.2485070369234,
13,8,14,0,0.111111111111111,3.10526315789474,0,0.25,1.0,0,0.25,3.10526315789474,ReadingArea_rsl0-rcl11-esl310-rsm0-rcm25-esm100-rsr0-rcr25-esr310,exr/ReadingArea_rsl0-rcl11-esl310-rsm0-rcm25-esm100-rsr0-rcr25-esr310.exr,ReadingArea_rsl0-rcl11-esl310-rsm0-rcm25-esm100-rsr0-rcr25-esr310.npz,,,,,0,140,140,345,,left,green,1.36,506.0047278404236,506.4858548641205,,2,6,3,lightness,readingArea,realistic,75,2023-03-22_17h36.25.451,tripletExp_regina_11082022,2022.2.4,120.2485070369234,
8,6,13,0,0.25,1.0,0,0.027777777777778,1.0,0,0.111111111111111,3.10526315789474,ReadingArea_rsl0-rcl25-esl100-rsm0-rcm2-esm100-rsr0-rcr11-esr310,exr/ReadingArea_rsl0-rcl25-esl100-rsm0-rcm2-esm100-rsr0-rcr11-esr310.exr,ReadingArea_rsl0-rcl25-esl100-rsm0-rcm2-esm100-rsr0-rcr11-esr310.npz,,,,,0,141,141,440,,right,red,2.9,509.9424839019776,510.4131278991699,,2,6,3,lightness,readingArea,realistic,75,2023-03-22_17h36.25.451,tripletExp_regina_11082022,2022.2.4,120.2485070369234,
12,6,8,0,0.027777777777778,3.10526315789474,0,0.027777777777778,1.0,0,0.25,1.0,ReadingArea_rsl0-rcl2-esl310-rsm0-rcm2-esm100-rsr0-rcr25-esr100,exr/ReadingArea_rsl0-rcl2-esl310-rsm0-rcm2-esm100-rsr0-rcr25-esr100.exr,ReadingArea_rsl0-rcl2-esl310-rsm0-rcm2-esm100-rsr0-rcr25-esr100.npz,,,,,0,142,142,540,,left,green,1.08,512.1268029212952,512.6228568553925,,2,6,3,lightness,readingArea,realistic,75,2023-03-22_17h36.25.451,tripletExp_regina_11082022,2022.2.4,120.2485070369234,
13,11,2,0,0.111111111111111,3.10526315789474,0,1.0,1.0,0,0.25,0.298245614035088,ReadingArea_rsl0-rcl11-esl310-rsm0-rcm100-esm100-rsr0-rcr25-esr29,exr/ReadingArea_rsl0-rcl11-esl310-rsm0-rcm100-esm100-rsr0-rcr25-esr29.exr,ReadingArea_rsl0-rcl11-esl310-rsm0-rcm100-esm100-rsr0-rcr25-esr29.npz,,,,,0,143,143,55,,left,green,1.39,514.3342218399048,514.7724859714508,,2,6,3,lightness,readingArea,realistic,75,2023-03-22_17h36.25.451,tripletExp_regina_11082022,2022.2.4,120.2485070369234,
10,3,1,0,0.694444444444444,1.0,0,0.444444444444444,0.298245614035088,0,0.111111111111111,0.298245614035088,ReadingArea_rsl0-rcl69-esl100-rsm0-rcm44-esm29-rsr0-rcr11-esr29,exr/ReadingArea_rsl0-rcl69-esl100-rsm0-rcm44-esm29-rsr0-rcr11-esr29.exr,ReadingArea_rsl0-rcl69-esl100-rsm0-rcm44-esm29-rsr0-rcr11-esr29.npz,,,,,0,144,144,420,,right,red,2.67,518.2389369010925,518.7548248767853,,2,6,3,lightness,readingArea,realistic,75,2023-03-22_17h36.25.451,tripletExp_regina_11082022,2022.2.4,120.2485070369234,
0,1,8,0,0.027777777777778,0.298245614035088,0,0.111111111111111,0.298245614035088,0,0.25,1.0,ReadingArea_rsl0-rcl2-esl29-rsm0-rcm11-esm29-rsr0-rcr25-esr100,exr/ReadingArea_rsl0-rcl2-esl29-rsm0-rcm11-esm29-rsr0-rcr25-esr100.exr,ReadingArea_rsl0-rcl2-esl29-rsm0-rcm11-esm29-rsr0-rcr25-esr100.npz,,,,,0,145,145,107,,left,green,1.36,520.4715068340302,520.9207229614258,,2,6,3,lightness,readingArea,realistic,75,2023-03-22_17h36.25.451,tripletExp_regina_11082022,2022.2.4,120.2485070369234,
10,8,1,0,0.694444444444444,1.0,0,0.25,1.0,0,0.111111111111111,0.298245614035088,ReadingArea_rsl0-rcl69-esl100-rsm0-rcm25-esm100-rsr0-rcr11-esr29,exr/ReadingArea_rsl0-rcl69-esl100-rsm0-rcm25-esm100-rsr0-rcr11-esr29.exr,ReadingArea_rsl0-rcl69-esl100-rsm0-rcm25-esm100-rsr0-rcr11-esr29.npz,,,,,0,146,146,247,,right,red,2.74,524.368448972702,524.8176338672638,,2,6,3,lightness,readingArea,realistic,75,2023-03-22_17h36.25.451,tripletExp_regina_11082022,2022.2.4,120.2485070369234,
3,7,8,0,0.444444444444444,0.298245614035088,0,0.111111111111111,1.0,0,0.25,1.0,ReadingArea_rsl0-rcl44-esl29-rsm0-rcm11-esm100-rsr0-rcr25-esr100,exr/ReadingArea_rsl0-rcl44-esl29-rsm0-rcm11-esm100-rsr0-rcr25-esr100.exr,ReadingArea_rsl0-rcl44-esl29-rsm0-rcm11-esm100-rsr0-rcr25-esr100.npz,,,,,0,147,147,246,,left,green,2.28,528.2978479862213,528.8017749786377,,2,6,3,lightness,readingArea,realistic,75,2023-03-22_17h36.25.451,tripletExp_regina_11082022,2022.2.4,120.2485070369234,
0,9,10,0,0.027777777777778,0.298245614035088,0,0.444444444444444,1.0,0,0.694444444444444,1.0,ReadingArea_rsl0-rcl2-esl29-rsm0-rcm44-esm100-rsr0-rcr69-esr100,exr/ReadingArea_rsl0-rcl2-esl29-rsm0-rcm44-esm100-rsr0-rcr69-esr100.exr,ReadingArea_rsl0-rcl2-esl29-rsm0-rcm44-esm100-rsr0-rcr69-esr100.npz,,,,,0,148,148,434,,left,green,2.88,532.2667429447174,532.7405519485474,,2,6,3,lightness,readingArea,realistic,75,2023-03-22_17h36.25.451,tripletExp_regina_11082022,2022.2.4,120.2485070369234,
11,14,2,0,1.0,1.0,0,0.25,3.10526315789474,0,0.25,0.298245614035088,ReadingArea_rsl0-rcl100-esl100-rsm0-rcm25-esm310-rsr0-rcr25-esr29,exr/ReadingArea_rsl0-rcl100-esl100-rsm0-rcm25-esm310-rsr0-rcr25-esr29.exr,ReadingArea_rsl0-rcl100-esl100-rsm0-rcm25-esm310-rsr0-rcr25-esr29.npz,,,,,0,149,149,419,,left,green,1.82,534.4270808696747,534.6261639595032,,2,6,3,lightness,readingArea,realistic,75,2023-03-22_17h36.25.451,tripletExp_regina_11082022,2022.2.4,120.2485070369234,
1,10,11,0,0.111111111111111,0.298245614035088,0,0.694444444444444,1.0,0,1.0,1.0,ReadingArea_rsl0-rcl11-esl29-rsm0-rcm69-esm100-rsr0-rcr100-esr100,exr/ReadingArea_rsl0-rcl11-esl29-rsm0-rcm69-esm100-rsr0-rcr100-esr100.exr,ReadingArea_rsl0-rcl11-esl29-rsm0-rcm69-esm100-rsr0-rcr100-esr100.npz,,,,,0,150,150,483,,right,red,1.16,554.8877689838409,555.3430180549622,,3,6,3,lightness,readingArea,realistic,75,2023-03-22_17h36.25.451,tripletExp_regina_11082022,2022.2.4,120.2485070369234,
2,3,4,0,0.25,0.298245614035088,0,0.444444444444444,0.298245614035088,0,0.694444444444444,0.298245614035088,ReadingArea_rsl0-rcl25-esl29-rsm0-rcm44-esm29-rsr0-rcr69-esr29,exr/ReadingArea_rsl0-rcl25-esl29-rsm0-rcm44-esm29-rsr0-rcr69-esr29.exr,ReadingArea_rsl0-rcl25-esl29-rsm0-rcm44-esm29-rsr0-rcr69-esr29.npz,,,,,0,151,151,61,,right,red,1.37,557.0578799247742,557.5885708332062,,3,6,3,lightness,readingArea,realistic,75,2023-03-22_17h36.25.451,tripletExp_regina_11082022,2022.2.4,120.2485070369234,
0,4,9,0,0.027777777777778,0.298245614035088,0,0.694444444444444,0.298245614035088,0,0.444444444444444,1.0,ReadingArea_rsl0-rcl2-esl29-rsm0-rcm69-esm29-rsr0-rcr44-esr100,exr/ReadingArea_rsl0-rcl2-esl29-rsm0-rcm69-esm29-rsr0-rcr44-esr100.exr,ReadingArea_rsl0-rcl2-esl29-rsm0-rcm69-esm29-rsr0-rcr44-esr100.npz,,,,,0,152,152,21,,right,red,1.16,559.2802178859711,559.7776789665222,,3,6,3,lightness,readingArea,realistic,75,2023-03-22_17h36.25.451,tripletExp_regina_11082022,2022.2.4,120.2485070369234,
5,2,7,0,1.0,0.298245614035088,0,0.25,0.298245614035088,0,0.111111111111111,1.0,ReadingArea_rsl0-rcl100-esl29-rsm0-rcm25-esm29-rsr0-rcr11-esr100,exr/ReadingArea_rsl0-rcl100-esl29-rsm0-rcm25-esm29-rsr0-rcr11-esr100.exr,ReadingArea_rsl0-rcl100-esl29-rsm0-rcm25-esm29-rsr0-rcr11-esr100.npz,,,,,0,153,153,179,,right,red,1.14,561.4812579154968,561.9280869960785,,3,6,3,lightness,readingArea,realistic,75,2023-03-22_17h36.25.451,tripletExp_regina_11082022,2022.2.4,120.2485070369234,
7,9,8,0,0.111111111111111,1.0,0,0.444444444444444,1.0,0,0.25,1.0,ReadingArea_rsl0-rcl11-esl100-rsm0-rcm44-esm100-rsr0-rcr25-esr100,exr/ReadingArea_rsl0-rcl11-esl100-rsm0-rcm44-esm100-rsr0-rcr25-esr100.exr,ReadingArea_rsl0-rcl11-esl100-rsm0-rcm44-esm100-rsr0-rcr25-esr100.npz,,,,,0,154,154,515,,right,red,1.25,563.6251549720764,564.0918219089508,,3,6,3,lightness,readingArea,realistic,75,2023-03-22_17h36.25.451,tripletExp_regina_11082022,2022.2.4,120.2485070369234,
4,3,11,0,0.694444444444444,0.298245614035088,0,0.444444444444444,0.298245614035088,0,1.0,1.0,ReadingArea_rsl0-rcl69-esl29-rsm0-rcm44-esm29-rsr0-rcr100-esr100,exr/ReadingArea_rsl0-rcl69-esl29-rsm0-rcm44-esm29-rsr0-rcr100-esr100.exr,ReadingArea_rsl0-rcl69-esl29-rsm0-rcm44-esm29-rsr0-rcr100-esr100.npz,,,,,0,155,155,439,,left,green,1.14,565.7898199558258,566.2400188446045,,3,6,3,lightness,readingArea,realistic,75,2023-03-22_17h36.25.451,tripletExp_regina_11082022,2022.2.4,120.2485070369234,
8,6,11,0,0.25,1.0,0,0.027777777777778,1.0,0,1.0,1.0,ReadingArea_rsl0-rcl25-esl100-rsm0-rcm2-esm100-rsr0-rcr100-esr100,exr/ReadingArea_rsl0-rcl25-esl100-rsm0-rcm2-esm100-rsr0-rcr100-esr100.exr,ReadingArea_rsl0-rcl25-esl100-rsm0-rcm2-esm100-rsr0-rcr100-esr100.npz,,,,,0,156,156,236,,left,green,1.31,567.9280550479889,568.3826129436493,,3,6,3,lightness,readingArea,realistic,75,2023-03-22_17h36.25.451,tripletExp_regina_11082022,2022.2.4,120.2485070369234,
3,8,7,0,0.444444444444444,0.298245614035088,0,0.25,1.0,0,0.111111111111111,1.0,ReadingArea_rsl0-rcl44-esl29-rsm0-rcm25-esm100-rsr0-rcr11-esr100,exr/ReadingArea_rsl0-rcl44-esl29-rsm0-rcm25-esm100-rsr0-rcr11-esr100.exr,ReadingArea_rsl0-rcl44-esl29-rsm0-rcm25-esm100-rsr0-rcr11-esr100.npz,,,,,0,157,157,484,,left,green,1.05,570.0861859321594,570.5706448554993,,3,6,3,lightness,readingArea,realistic,75,2023-03-22_17h36.25.451,tripletExp_regina_11082022,2022.2.4,120.2485070369234,
13,11,7,0,0.111111111111111,3.10526315789474,0,1.0,1.0,0,0.111111111111111,1.0,ReadingArea_rsl0-rcl11-esl310-rsm0-rcm100-esm100-rsr0-rcr11-esr100,exr/ReadingArea_rsl0-rcl11-esl310-rsm0-rcm100-esm100-rsr0-rcr11-esr100.exr,ReadingArea_rsl0-rcl11-esl310-rsm0-rcm100-esm100-rsr0-rcr11-esr100.npz,,,,,0,158,158,590,,left,green,1.36,572.2825179100037,572.7594718933105,,3,6,3,lightness,readingArea,realistic,75,2023-03-22_17h36.25.451,tripletExp_regina_11082022,2022.2.4,120.2485070369234,
1,4,7,0,0.111111111111111,0.298245614035088,0,0.694444444444444,0.298245614035088,0,0.111111111111111,1.0,ReadingArea_rsl0-rcl11-esl29-rsm0-rcm69-esm29-rsr0-rcr11-esr100,exr/ReadingArea_rsl0-rcl11-esl29-rsm0-rcm69-esm29-rsr0-rcr11-esr100.exr,ReadingArea_rsl0-rcl11-esl29-rsm0-rcm69-esm29-rsr0-rcr11-esr100.npz,,,,,0,159,159,522,,right,red,1.32,574.4645578861237,574.9511029720306,,3,6,3,lightness,readingArea,realistic,75,2023-03-22_17h36.25.451,tripletExp_regina_11082022,2022.2.4,120.2485070369234,
14,5,11,0,0.25,3.10526315789474,0,1.0,0.298245614035088,0,1.0,1.0,ReadingArea_rsl0-rcl25-esl310-rsm0-rcm100-esm29-rsr0-rcr100-esr100,exr/ReadingArea_rsl0-rcl25-esl310-rsm0-rcm100-esm29-rsr0-rcr100-esr100.exr,ReadingArea_rsl0-rcl25-esl310-rsm0-rcm100-esm29-rsr0-rcr100-esr100.npz,,,,,0,160,160,161,,left,green,1.36,576.663813829422,577.1032428741455,,3,6,3,lightness,readingArea,realistic,75,2023-03-22_17h36.25.451,tripletExp_regina_11082022,2022.2.4,120.2485070369234,
4,8,0,0,0.694444444444444,0.298245614035088,0,0.25,1.0,0,0.027777777777778,0.298245614035088,ReadingArea_rsl0-rcl69-esl29-rsm0-rcm25-esm100-rsr0-rcr2-esr29,exr/ReadingArea_rsl0-rcl69-esl29-rsm0-rcm25-esm100-rsr0-rcr2-esr29.exr,ReadingArea_rsl0-rcl69-esl29-rsm0-rcm25-esm100-rsr0-rcr2-esr29.npz,,,,,0,161,161,137,,left,green,1.11,578.8269889354706,579.4062349796295,,3,6,3,lightness,readingArea,realistic,75,2023-03-22_17h36.25.451,tripletExp_regina_11082022,2022.2.4,120.2485070369234,
9,11,2,0,0.444444444444444,1.0,0,1.0,1.0,0,0.25,0.298245614035088,ReadingArea_rsl0-rcl44-esl100-rsm0-rcm100-esm100-rsr0-rcr25-esr29,exr/ReadingArea_rsl0-rcl44-esl100-rsm0-rcm100-esm100-rsr0-rcr25-esr29.exr,ReadingArea_rsl0-rcl44-esl100-rsm0-rcm100-esm100-rsr0-rcr25-esr29.npz,,,,,0,162,162,329,,left,green,1.2,581.1126608848572,581.6191070079803,,3,6,3,lightness,readingArea,realistic,75,2023-03-22_17h36.25.451,tripletExp_regina_11082022,2022.2.4,120.2485070369234,
5,14,4,0,1.0,0.298245614035088,0,0.25,3.10526315789474,0,0.694444444444444,0.298245614035088,ReadingArea_rsl0-rcl100-esl29-rsm0-rcm25-esm310-rsr0-rcr69-esr29,exr/ReadingArea_rsl0-rcl100-esl29-rsm0-rcm25-esm310-rsr0-rcr69-esr29.exr,ReadingArea_rsl0-rcl100-esl29-rsm0-rcm25-esm310-rsr0-rcr69-esr29.npz,,,,,0,163,163,69,,left,green,1.34,583.3165199756622,583.8436930179596,,3,6,3,lightness,readingArea,realistic,75,2023-03-22_17h36.25.451,tripletExp_regina_11082022,2022.2.4,120.2485070369234,
12,6,9,0,0.027777777777778,3.10526315789474,0,0.027777777777778,1.0,0,0.444444444444444,1.0,ReadingArea_rsl0-rcl2-esl310-rsm0-rcm2-esm100-rsr0-rcr44-esr100,exr/ReadingArea_rsl0-rcl2-esl310-rsm0-rcm2-esm100-rsr0-rcr44-esr100.exr,ReadingArea_rsl0-rcl2-esl310-rsm0-rcm2-esm100-rsr0-rcr44-esr100.npz,,,,,0,164,164,177,,left,green,1.16,585.5415890216827,586.0395720005035,,3,6,3,lightness,readingArea,realistic,75,2023-03-22_17h36.25.451,tripletExp_regina_11082022,2022.2.4,120.2485070369234,
7,2,0,0,0.111111111111111,1.0,0,0.25,0.298245614035088,0,0.027777777777778,0.298245614035088,ReadingArea_rsl0-rcl11-esl100-rsm0-rcm25-esm29-rsr0-rcr2-esr29,exr/ReadingArea_rsl0-rcl11-esl100-rsm0-rcm25-esm29-rsr0-rcr2-esr29.exr,ReadingArea_rsl0-rcl11-esl100-rsm0-rcm25-esm29-rsr0-rcr2-esr29.npz,,,,,0,165,165,520,,left,green,0.91,587.7624578475952,588.23264503479,,3,6,3,lightness,readingArea,realistic,75,2023-03-22_17h36.25.451,tripletExp_regina_11082022,2022.2.4,120.2485070369234,
6,3,1,0,0.027777777777778,1.0,0,0.444444444444444,0.298245614035088,0,0.111111111111111,0.298245614035088,ReadingArea_rsl0-rcl2-esl100-rsm0-rcm44-esm29-rsr0-rcr11-esr29,exr/ReadingArea_rsl0-rcl2-esl100-rsm0-rcm44-esm29-rsr0-rcr11-esr29.exr,ReadingArea_rsl0-rcl2-esl100-rsm0-rcm44-esm29-rsr0-rcr11-esr29.npz,,,,,0,166,166,430,,right,red,1.49,589.9415760040283,590.4657669067383,,3,6,3,lightness,readingArea,realistic,75,2023-03-22_17h36.25.451,tripletExp_regina_11082022,2022.2.4,120.2485070369234,
7,3,12,0,0.111111111111111,1.0,0,0.444444444444444,0.298245614035088,0,0.027777777777778,3.10526315789474,ReadingArea_rsl0-rcl11-esl100-rsm0-rcm44-esm29-rsr0-rcr2-esr310,exr/ReadingArea_rsl0-rcl11-esl100-rsm0-rcm44-esm29-rsr0-rcr2-esr310.exr,ReadingArea_rsl0-rcl11-esl100-rsm0-rcm44-esm29-rsr0-rcr2-esr310.npz,,,,,0,167,167,443,,left,green,1.4,592.1818089485168,592.6569149494171,,3,6,3,lightness,readingArea,realistic,75,2023-03-22_17h36.25.451,tripletExp_regina_11082022,2022.2.4,120.2485070369234,
3,4,11,0,0.444444444444444,0.298245614035088,0,0.694444444444444,0.298245614035088,0,1.0,1.0,ReadingArea_rsl0-rcl44-esl29-rsm0-rcm69-esm29-rsr0-rcr100-esr100,exr/ReadingArea_rsl0-rcl44-esl29-rsm0-rcm69-esm29-rsr0-rcr100-esr100.exr,ReadingArea_rsl0-rcl44-esl29-rsm0-rcm69-esm29-rsr0-rcr100-esr100.npz,,,,,0,168,168,207,,left,green,1.22,594.377513885498,594.8209090232849,,3,6,3,lightness,readingArea,realistic,75,2023-03-22_17h36.25.451,tripletExp_regina_11082022,2022.2.4,120.2485070369234,
8,1,3,0,0.25,1.0,0,0.111111111111111,0.298245614035088,0,0.444444444444444,0.298245614035088,ReadingArea_rsl0-rcl25-esl100-rsm0-rcm11-esm29-rsr0-rcr44-esr29,exr/ReadingArea_rsl0-rcl25-esl100-rsm0-rcm11-esm29-rsr0-rcr44-esr29.exr,ReadingArea_rsl0-rcl25-esl100-rsm0-rcm11-esm29-rsr0-rcr44-esr29.npz,,,,,0,169,169,490,,right,red,2.91,598.2947850227356,598.7585020065308,,3,6,3,lightness,readingArea,realistic,75,2023-03-22_17h36.25.451,tripletExp_regina_11082022,2022.2.4,120.2485070369234,
1,10,7,0,0.111111111111111,0.298245614035088,0,0.694444444444444,1.0,0,0.111111111111111,1.0,ReadingArea_rsl0-rcl11-esl29-rsm0-rcm69-esm100-rsr0-rcr11-esr100,exr/ReadingArea_rsl0-rcl11-esl29-rsm0-rcm69-esm100-rsr0-rcr11-esr100.exr,ReadingArea_rsl0-rcl11-esl29-rsm0-rcm69-esm100-rsr0-rcr11-esr100.npz,,,,,0,170,170,94,,right,red,1.42,600.4836559295654,600.9497709274292,,3,6,3,lightness,readingArea,realistic,75,2023-03-22_17h36.25.451,tripletExp_regina_11082022,2022.2.4,120.2485070369234,
2,12,13,0,0.25,0.298245614035088,0,0.027777777777778,3.10526315789474,0,0.111111111111111,3.10526315789474,ReadingArea_rsl0-rcl25-esl29-rsm0-rcm2-esm310-rsr0-rcr11-esr310,exr/ReadingArea_rsl0-rcl25-esl29-rsm0-rcm2-esm310-rsr0-rcr11-esr310.exr,ReadingArea_rsl0-rcl25-esl29-rsm0-rcm2-esm310-rsr0-rcr11-esr310.npz,,,,,0,171,171,232,,left,green,3.01,604.4176149368286,604.8767590522766,,3,6,3,lightness,readingArea,realistic,75,2023-03-22_17h36.25.451,tripletExp_regina_11082022,2022.2.4,120.2485070369234,
1,5,13,0,0.111111111111111,0.298245614035088,0,1.0,0.298245614035088,0,0.111111111111111,3.10526315789474,ReadingArea_rsl0-rcl11-esl29-rsm0-rcm100-esm29-rsr0-rcr11-esr310,exr/ReadingArea_rsl0-rcl11-esl29-rsm0-rcm100-esm29-rsr0-rcr11-esr310.exr,ReadingArea_rsl0-rcl11-esl29-rsm0-rcm100-esm29-rsr0-rcr11-esr310.npz,,,,,0,172,172,598,,right,red,1.34,606.597494840622,,,3,6,3,lightness,readingArea,realistic,75,2023-03-22_17h36.25.451,tripletExp_regina_11082022,2022.2.4,120.2485070369234,
6,3,13,0,0.027777777777778,1.0,0,0.444444444444444,0.298245614035088,0,0.111111111111111,3.10526315789474,ReadingArea_rsl0-rcl2-esl100-rsm0-rcm44-esm29-rsr0-rcr11-esr310,exr/ReadingArea_rsl0-rcl2-esl100-rsm0-rcm44-esm29-rsr0-rcr11-esr310.exr,ReadingArea_rsl0-rcl2-esl100-rsm0-rcm44-esm29-rsr0-rcr11-esr310.npz,,,,,0,173,173,228,,right,red,1.11,608.7828528881073,609.2170009613037,,3,6,3,lightness,readingArea,realistic,75,2023-03-22_17h36.25.451,tripletExp_regina_11082022,2022.2.4,120.2485070369234,
11,5,1,0,1.0,1.0,0,1.0,0.298245614035088,0,0.111111111111111,0.298245614035088,ReadingArea_rsl0-rcl100-esl100-rsm0-rcm100-esm29-rsr0-rcr11-esr29,exr/ReadingArea_rsl0-rcl100-esl100-rsm0-rcm100-esm29-rsr0-rcr11-esr29.exr,ReadingArea_rsl0-rcl100-esl100-rsm0-rcm100-esm29-rsr0-rcr11-esr29.npz,,,,,0,174,174,48,,left,green,1.38,610.939836025238,611.3987638950348,,3,6,3,lightness,readingArea,realistic,75,2023-03-22_17h36.25.451,tripletExp_regina_11082022,2022.2.4,120.2485070369234,
11,7,12,0,1.0,1.0,0,0.111111111111111,1.0,0,0.027777777777778,3.10526315789474,ReadingArea_rsl0-rcl100-esl100-rsm0-rcm11-esm100-rsr0-rcr2-esr310,exr/ReadingArea_rsl0-rcl100-esl100-rsm0-rcm11-esm100-rsr0-rcr2-esr310.exr,ReadingArea_rsl0-rcl100-esl100-rsm0-rcm11-esm100-rsr0-rcr2-esr310.npz,,,,,0,175,175,352,,right,red,1.17,613.1228718757629,,,3,6,3,lightness,readingArea,realistic,75,2023-03-22_17h36.25.451,tripletExp_regina_11082022,2022.2.4,120.2485070369234,
10,7,3,0,0.694444444444444,1.0,0,0.111111111111111,1.0,0,0.444444444444444,0.298245614035088,ReadingArea_rsl0-rcl69-esl100-rsm0-rcm11-esm100-rsr0-rcr44-esr29,exr/ReadingArea_rsl0-rcl69-esl100-rsm0-rcm11-esm100-rsr0-rcr44-esr29.exr,ReadingArea_rsl0-rcl69-esl100-rsm0-rcm11-esm100-rsr0-rcr44-esr29.npz,,,,,0,176,176,582,,right,red,1.06,615.2583508491516,615.7096040248871,,3,6,3,lightness,readingArea,realistic,75,2023-03-22_17h36.25.451,tripletExp_regina_11082022,2022.2.4,120.2485070369234,
8,1,6,0,0.25,1.0,0,0.111111111111111,0.298245614035088,0,0.027777777777778,1.0,ReadingArea_rsl0-rcl25-esl100-rsm0-rcm11-esm29-rsr0-rcr2-esr100,exr/ReadingArea_rsl0-rcl25-esl100-rsm0-rcm11-esm29-rsr0-rcr2-esr100.exr,ReadingArea_rsl0-rcl25-esl100-rsm0-rcm11-esm29-rsr0-rcr2-esr100.npz,,,,,0,177,177,62,,right,red,1.28,617.4135479927063,617.9023678302765,,3,6,3,lightness,readingArea,realistic,75,2023-03-22_17h36.25.451,tripletExp_regina_11082022,2022.2.4,120.2485070369234,
5,11,14,0,1.0,0.298245614035088,0,1.0,1.0,0,0.25,3.10526315789474,ReadingArea_rsl0-rcl100-esl29-rsm0-rcm100-esm100-rsr0-rcr25-esr310,exr/ReadingArea_rsl0-rcl100-esl29-rsm0-rcm100-esm100-rsr0-rcr25-esr310.exr,ReadingArea_rsl0-rcl100-esl29-rsm0-rcm100-esm100-rsr0-rcr25-esr310.npz,,,,,0,178,178,258,,right,red,1.62,619.6184868812561,620.2267649173737,,3,6,3,lightness,readingArea,realistic,75,2023-03-22_17h36.25.451,tripletExp_regina_11082022,2022.2.4,120.2485070369234,
6,1,14,0,0.027777777777778,1.0,0,0.111111111111111,0.298245614035088,0,0.25,3.10526315789474,ReadingArea_rsl0-rcl2-esl100-rsm0-rcm11-esm29-rsr0-rcr25-esr310,exr/ReadingArea_rsl0-rcl2-esl100-rsm0-rcm11-esm29-rsr0-rcr25-esr310.exr,ReadingArea_rsl0-rcl2-esl100-rsm0-rcm11-esm29-rsr0-rcr25-esr310.npz,,,,,0,179,179,381,,left,green,1.53,621.9244198799133,,,3,6,3,lightness,readingArea,realistic,75,2023-03-22_17h36.25.451,tripletExp_regina_11082022,2022.2.4,120.2485070369234,
13,10,7,0,0.111111111111111,3.10526315789474,0,0.694444444444444,1.0,0,0.111111111111111,1.0,ReadingArea_rsl0-rcl11-esl310-rsm0-rcm69-esm100-rsr0-rcr11-esr100,exr/ReadingArea_rsl0-rcl11-esl310-rsm0-rcm69-esm100-rsr0-rcr11-esr100.exr,ReadingArea_rsl0-rcl11-esl310-rsm0-rcm69-esm100-rsr0-rcr11-esr100.npz,,,,,0,180,180,385,,left,green,1.35,624.1478018760681,624.6167168617249,,3,6,3,lightness,readingArea,realistic,75,2023-03-22_17h36.25.451,tripletExp_regina_11082022,2022.2.4,120.2485070369234,
4,10,11,0,0.694444444444444,0.298245614035088,0,0.694444444444444,1.0,0,1.0,1.0,ReadingArea_rsl0-rcl69-esl29-rsm0-rcm69-esm100-rsr0-rcr100-esr100,exr/ReadingArea_rsl0-rcl69-esl29-rsm0-rcm69-esm100-rsr0-rcr100-esr100.exr,ReadingArea_rsl0-rcl69-esl29-rsm0-rcm69-esm100-rsr0-rcr100-esr100.npz,,,,,0,181,181,180,,right,red,1.12,626.3240020275116,626.7849278450012,,3,6,3,lightness,readingArea,realistic,75,2023-03-22_17h36.25.451,tripletExp_regina_11082022,2022.2.4,120.2485070369234,
2,8,4,0,0.25,0.298245614035088,0,0.25,1.0,0,0.694444444444444,0.298245614035088,ReadingArea_rsl0-rcl25-esl29-rsm0-rcm25-esm100-rsr0-rcr69-esr29,exr/ReadingArea_rsl0-rcl25-esl29-rsm0-rcm25-esm100-rsr0-rcr69-esr29.exr,ReadingArea_rsl0-rcl25-esl29-rsm0-rcm25-esm100-rsr0-rcr69-esr29.npz,,,,,0,182,182,507,,right,red,1.51,628.4791760444641,628.9206619262695,,3,6,3,lightness,readingArea,realistic,75,2023-03-22_17h36.25.451,tripletExp_regina_11082022,2022.2.4,120.2485070369234,
2,5,0,0,0.25,0.298245614035088,0,1.0,0.298245614035088,0,0.027777777777778,0.298245614035088,ReadingArea_rsl0-rcl25-esl29-rsm0-rcm100-esm29-rsr0-rcr2-esr29,exr/ReadingArea_rsl0-rcl25-esl29-rsm0-rcm100-esm29-rsr0-rcr2-esr29.exr,ReadingArea_rsl0-rcl25-esl29-rsm0-rcm100-esm29-rsr0-rcr2-esr29.npz,,,,,0,183,183,414,,left,green,2.64,632.3847408294678,,,3,6,3,lightness,readingArea,realistic,75,2023-03-22_17h36.25.451,tripletExp_regina_11082022,2022.2.4,120.2485070369234,
12,6,3,0,0.027777777777778,3.10526315789474,0,0.027777777777778,1.0,0,0.444444444444444,0.298245614035088,ReadingArea_rsl0-rcl2-esl310-rsm0-rcm2-esm100-rsr0-rcr44-esr29,exr/ReadingArea_rsl0-rcl2-esl310-rsm0-rcm2-esm100-rsr0-rcr44-esr29.exr,ReadingArea_rsl0-rcl2-esl310-rsm0-rcm2-esm100-rsr0-rcr44-esr29.npz,,,,,0,184,184,139,,left,green,1.47,634.5788459777832,635.0353200435638,,3,6,3,lightness,readingArea,realistic,75,2023-03-22_17h36.25.451,tripletExp_regina_11082022,2022.2.4,120.2485070369234,
11,0,6,0,1.0,1.0,0,0.027777777777778,0.298245614035088,0,0.027777777777778,1.0,ReadingArea_rsl0-rcl100-esl100-rsm0-rcm2-esm29-rsr0-rcr2-esr100,exr/ReadingArea_rsl0-rcl100-esl100-rsm0-rcm2-esm29-rsr0-rcr2-esr100.exr,ReadingArea_rsl0-rcl100-esl100-rsm0-rcm2-esm29-rsr0-rcr2-esr100.npz,,,,,0,185,185,586,,right,red,1.4,636.723573923111,637.2945890426636,,3,6,3,lightness,readingArea,realistic,75,2023-03-22_17h36.25.451,tripletExp_regina_11082022,2022.2.4,120.2485070369234,
3,12,6,0,0.444444444444444,0.298245614035088,0,0.027777777777778,3.10526315789474,0,0.027777777777778,1.0,ReadingArea_rsl0-rcl44-esl29-rsm0-rcm2-esm310-rsr0-rcr2-esr100,exr/ReadingArea_rsl0-rcl44-esl29-rsm0-rcm2-esm310-rsr0-rcr2-esr100.exr,ReadingArea_rsl0-rcl44-esl29-rsm0-rcm2-esm310-rsr0-rcr2-esr100.npz,,,,,0,186,186,353,,right,red,1.65,638.9933128356934,639.4512379169464,,3,6,3,lightness,readingArea,realistic,75,2023-03-22_17h36.25.451,tripletExp_regina_11082022,2022.2.4,120.2485070369234,
14,0,3,0,0.25,3.10526315789474,0,0.027777777777778,0.298245614035088,0,0.444444444444444,0.298245614035088,ReadingArea_rsl0-rcl25-esl310-rsm0-rcm2-esm29-rsr0-rcr44-esr29,exr/ReadingArea_rsl0-rcl25-esl310-rsm0-rcm2-esm29-rsr0-rcr44-esr29.exr,ReadingArea_rsl0-rcl25-esl310-rsm0-rcm2-esm29-rsr0-rcr44-esr29.npz,,,,,0,187,187,75,,right,red,3.01,642.9290099143982,643.3852779865265,,3,6,3,lightness,readingArea,realistic,75,2023-03-22_17h36.25.451,tripletExp_regina_11082022,2022.2.4,120.2485070369234,
2,6,10,0,0.25,0.298245614035088,0,0.027777777777778,1.0,0,0.694444444444444,1.0,ReadingArea_rsl0-rcl25-esl29-rsm0-rcm2-esm100-rsr0-rcr69-esr100,exr/ReadingArea_rsl0-rcl25-esl29-rsm0-rcm2-esm100-rsr0-rcr69-esr100.exr,ReadingArea_rsl0-rcl25-esl29-rsm0-rcm2-esm100-rsr0-rcr69-esr100.npz,,,,,0,188,188,42,,left,green,1.26,645.0726408958435,645.5200929641724,,3,6,3,lightness,readingArea,realistic,75,2023-03-22_17h36.25.451,tripletExp_regina_11082022,2022.2.4,120.2485070369234,
4,11,12,0,0.694444444444444,0.298245614035088,0,1.0,1.0,0,0.027777777777778,3.10526315789474,ReadingArea_rsl0-rcl69-esl29-rsm0-rcm100-esm100-rsr0-rcr2-esr310,exr/ReadingArea_rsl0-rcl69-esl29-rsm0-rcm100-esm100-rsr0-rcr2-esr310.exr,ReadingArea_rsl0-rcl69-esl29-rsm0-rcm100-esm100-rsr0-rcr2-esr310.npz,,,,,0,189,189,109,,left,green,1.31,647.2112350463867,647.6353828907013,,3,6,3,lightness,readingArea,realistic,75,2023-03-22_17h36.25.451,tripletExp_regina_11082022,2022.2.4,120.2485070369234,
4,5,1,0,0.694444444444444,0.298245614035088,0,1.0,0.298245614035088,0,0.111111111111111,0.298245614035088,ReadingArea_rsl0-rcl69-esl29-rsm0-rcm100-esm29-rsr0-rcr11-esr29,exr/ReadingArea_rsl0-rcl69-esl29-rsm0-rcm100-esm29-rsr0-rcr11-esr29.exr,ReadingArea_rsl0-rcl69-esl29-rsm0-rcm100-esm29-rsr0-rcr11-esr29.npz,,,,,0,190,190,240,,left,green,1.16,649.350723028183,649.8173949718475,,3,6,3,lightness,readingArea,realistic,75,2023-03-22_17h36.25.451,tripletExp_regina_11082022,2022.2.4,120.2485070369234,
9,0,3,0,0.444444444444444,1.0,0,0.027777777777778,0.298245614035088,0,0.444444444444444,0.298245614035088,ReadingArea_rsl0-rcl44-esl100-rsm0-rcm2-esm29-rsr0-rcr44-esr29,exr/ReadingArea_rsl0-rcl44-esl100-rsm0-rcm2-esm29-rsr0-rcr44-esr29.exr,ReadingArea_rsl0-rcl44-esl100-rsm0-rcm2-esm29-rsr0-rcr44-esr29.npz,,,,,0,191,191,2,,left,green,1.43,651.5369589328766,652.0240910053253,,3,6,3,lightness,readingArea,realistic,75,2023-03-22_17h36.25.451,tripletExp_regina_11082022,2022.2.4,120.2485070369234,
7,10,13,0,0.111111111111111,1.0,0,0.694444444444444,1.0,0,0.111111111111111,3.10526315789474,ReadingArea_rsl0-rcl11-esl100-rsm0-rcm69-esm100-rsr0-rcr11-esr310,exr/ReadingArea_rsl0-rcl11-esl100-rsm0-rcm69-esm100-rsr0-rcr11-esr310.exr,ReadingArea_rsl0-rcl11-esl100-rsm0-rcm69-esm100-rsr0-rcr11-esr310.npz,,,,,0,192,192,446,,right,red,1.22,653.7345018386841,654.2525098323822,,3,6,3,lightness,readingArea,realistic,75,2023-03-22_17h36.25.451,tripletExp_regina_11082022,2022.2.4,120.2485070369234,
1,5,8,0,0.111111111111111,0.298245614035088,0,1.0,0.298245614035088,0,0.25,1.0,ReadingArea_rsl0-rcl11-esl29-rsm0-rcm100-esm29-rsr0-rcr25-esr100,exr/ReadingArea_rsl0-rcl11-esl29-rsm0-rcm100-esm29-rsr0-rcr25-esr100.exr,ReadingArea_rsl0-rcl11-esl29-rsm0-rcm100-esm29-rsr0-rcr25-esr100.npz,,,,,0,193,193,238,,right,red,1.52,655.9628839492798,,,3,6,3,lightness,readingArea,realistic,75,2023-03-22_17h36.25.451,tripletExp_regina_11082022,2022.2.4,120.2485070369234,
11,9,4,0,1.0,1.0,0,0.444444444444444,1.0,0,0.694444444444444,0.298245614035088,ReadingArea_rsl0-rcl100-esl100-rsm0-rcm44-esm100-rsr0-rcr69-esr29,exr/ReadingArea_rsl0-rcl100-esl100-rsm0-rcm44-esm100-rsr0-rcr69-esr29.exr,ReadingArea_rsl0-rcl100-esl100-rsm0-rcm44-esm100-rsr0-rcr69-esr29.npz,,,,,0,194,194,26,,right,red,1.48,658.1300480365753,,,3,6,3,lightness,readingArea,realistic,75,2023-03-22_17h36.25.451,tripletExp_regina_11082022,2022.2.4,120.2485070369234,
2,1,3,0,0.25,0.298245614035088,0,0.111111111111111,0.298245614035088,0,0.444444444444444,0.298245614035088,ReadingArea_rsl0-rcl25-esl29-rsm0-rcm11-esm29-rsr0-rcr44-esr29,exr/ReadingArea_rsl0-rcl25-esl29-rsm0-rcm11-esm29-rsr0-rcr44-esr29.exr,ReadingArea_rsl0-rcl25-esl29-rsm0-rcm11-esm29-rsr0-rcr44-esr29.npz,,,,,0,195,195,85,,left,green,1.5,660.3288159370422,660.7762930393219,,3,6,3,lightness,readingArea,realistic,75,2023-03-22_17h36.25.451,tripletExp_regina_11082022,2022.2.4,120.2485070369234,
4,0,1,0,0.694444444444444,0.298245614035088,0,0.027777777777778,0.298245614035088,0,0.111111111111111,0.298245614035088,ReadingArea_rsl0-rcl69-esl29-rsm0-rcm2-esm29-rsr0-rcr11-esr29,exr/ReadingArea_rsl0-rcl69-esl29-rsm0-rcm2-esm29-rsr0-rcr11-esr29.exr,ReadingArea_rsl0-rcl69-esl29-rsm0-rcm2-esm29-rsr0-rcr11-esr29.npz,,,,,0,196,196,173,,right,red,1.3,662.4726219177246,,,3,6,3,lightness,readingArea,realistic,75,2023-03-22_17h36.25.451,tripletExp_regina_11082022,2022.2.4,120.2485070369234,
3,4,13,0,0.444444444444444,0.298245614035088,0,0.694444444444444,0.298245614035088,0,0.111111111111111,3.10526315789474,ReadingArea_rsl0-rcl44-esl29-rsm0-rcm69-esm29-rsr0-rcr11-esr310,exr/ReadingArea_rsl0-rcl44-esl29-rsm0-rcm69-esm29-rsr0-rcr11-esr310.exr,ReadingArea_rsl0-rcl44-esl29-rsm0-rcm69-esm29-rsr0-rcr11-esr310.npz,,,,,0,197,197,63,,right,red,1.57,664.6160109043121,665.0875718593597,,3,6,3,lightness,readingArea,realistic,75,2023-03-22_17h36.25.451,tripletExp_regina_11082022,2022.2.4,120.2485070369234,
2,8,3,0,0.25,0.298245614035088,0,0.25,1.0,0,0.444444444444444,0.298245614035088,ReadingArea_rsl0-rcl25-esl29-rsm0-rcm25-esm100-rsr0-rcr44-esr29,exr/ReadingArea_rsl0-rcl25-esl29-rsm0-rcm25-esm100-rsr0-rcr44-esr29.exr,ReadingArea_rsl0-rcl25-esl29-rsm0-rcm25-esm100-rsr0-rcr44-esr29.npz,,,,,0,198,198,568,,right,red,1.13,666.7918820381165,667.3069159984589,,3,6,3,lightness,readingArea,realistic,75,2023-03-22_17h36.25.451,tripletExp_regina_11082022,2022.2.4,120.2485070369234,
0,13,1,0,0.027777777777778,0.298245614035088,0,0.111111111111111,3.10526315789474,0,0.111111111111111,0.298245614035088,ReadingArea_rsl0-rcl2-esl29-rsm0-rcm11-esm310-rsr0-rcr11-esr29,exr/ReadingArea_rsl0-rcl2-esl29-rsm0-rcm11-esm310-rsr0-rcr11-esr29.exr,ReadingArea_rsl0-rcl2-esl29-rsm0-rcm11-esm310-rsr0-rcr11-esr29.npz,,,,,0,199,199,458,,right,red,1.21,669.0216610431671,669.4810628890991,,3,6,3,lightness,readingArea,realistic,75,2023-03-22_17h36.25.451,tripletExp_regina_11082022,2022.2.4,120.2485070369234,
9,13,5,0,0.444444444444444,1.0,0,0.111111111111111,3.10526315789474,0,1.0,0.298245614035088,ReadingArea_rsl0-rcl44-esl100-rsm0-rcm11-esm310-rsr0-rcr100-esr29,exr/ReadingArea_rsl0-rcl44-esl100-rsm0-rcm11-esm310-rsr0-rcr100-esr29.exr,ReadingArea_rsl0-rcl44-esl100-rsm0-rcm11-esm310-rsr0-rcr100-esr29.npz,,,,,0,200,200,349,,right,red,1.45,671.1676850318909,671.6706609725952,,3,6,3,lightness,readingArea,realistic,75,2023-03-22_17h36.25.451,tripletExp_regina_11082022,2022.2.4,120.2485070369234,
7,2,6,0,0.111111111111111,1.0,0,0.25,0.298245614035088,0,0.027777777777778,1.0,ReadingArea_rsl0-rcl11-esl100-rsm0-rcm25-esm29-rsr0-rcr2-esr100,exr/ReadingArea_rsl0-rcl11-esl100-rsm0-rcm25-esm29-rsr0-rcr2-esr100.exr,ReadingArea_rsl0-rcl11-esl100-rsm0-rcm25-esm29-rsr0-rcr2-esr100.npz,,,,,0,201,201,506,,left,green,1.15,673.3862948417664,673.937530040741,,3,6,3,lightness,readingArea,realistic,75,2023-03-22_17h36.25.451,tripletExp_regina_11082022,2022.2.4,120.2485070369234,
12,10,9,0,0.027777777777778,3.10526315789474,0,0.694444444444444,1.0,0,0.444444444444444,1.0,ReadingArea_rsl0-rcl2-esl310-rsm0-rcm69-esm100-rsr0-rcr44-esr100,exr/ReadingArea_rsl0-rcl2-esl310-rsm0-rcm69-esm100-rsr0-rcr44-esr100.exr,ReadingArea_rsl0-rcl2-esl310-rsm0-rcm69-esm100-rsr0-rcr44-esr100.npz,,,,,0,202,202,126,,right,red,1.18,675.6257660388947,676.0958590507507,,3,6,3,lightness,readingArea,realistic,75,2023-03-22_17h36.25.451,tripletExp_regina_11082022,2022.2.4,120.2485070369234,
8,12,7,0,0.25,1.0,0,0.027777777777778,3.10526315789474,0,0.111111111111111,1.0,ReadingArea_rsl0-rcl25-esl100-rsm0-rcm2-esm310-rsr0-rcr11-esr100,exr/ReadingArea_rsl0-rcl25-esl100-rsm0-rcm2-esm310-rsr0-rcr11-esr100.exr,ReadingArea_rsl0-rcl25-esl100-rsm0-rcm2-esm310-rsr0-rcr11-esr100.npz,,,,,0,203,203,467,,right,red,1.24,677.7930438518524,678.2412028312683,,3,6,3,lightness,readingArea,realistic,75,2023-03-22_17h36.25.451,tripletExp_regina_11082022,2022.2.4,120.2485070369234,
