index_left,index_middle,index_right,reflectance_surround_left,reflectance_center_left,emission_spot_left,reflectance_surround_middle,reflectance_center_middle,emission_spot_middle,reflectance_surround_right,reflectance_center_right,emission_spot_right,ImageName,ImageExr,ImageNpy,trials_2.thisRepN,trials_2.thisTrialN,trials_2.thisN,trials_2.thisIndex,trials.thisRepN,trials.thisTrialN,trials.thisN,trials.thisIndex,sound_1.started,BB_Trial.resp,BB_Trial.color,BB_Trial.rt,text.started,sound_1.stopped,text.stopped,sound_2.started,block,participant,session,L/B,scene,condition,nTrialsPerBlock,date,expName,psychopyVersion,frameRate,Unnamed: 42
9,4,14,0,0.444444444444444,1.0,0,0.694444444444444,0.298245614035088,0,0.25,3.10526315789474,ReadingArea_rsl0-rcl44-esl100-rsm0-rcm69-esm29-rsr0-rcr25-esr310,exr/ReadingArea_rsl0-rcl44-esl100-rsm0-rcm69-esm29-rsr0-rcr25-esr310.exr,ReadingArea_rsl0-rcl44-esl100-rsm0-rcm69-esm29-rsr0-rcr25-esr310.npz,,,,,0,0,0,104,186.39098176956176,left,green,1.43,191.08632588386536,109.36146593093872,191.59420490264893,164.06872782707214,1,3,6,lightness,readingArea,realistic,75,2023-03-18_15h26.29.599,tripletExp_regina_11082022,2022.2.4,120.32508943401965,
0,9,10,0,0.027777777777778,0.298245614035088,0,0.444444444444444,1.0,0,0.694444444444444,1.0,ReadingArea_rsl0-rcl2-esl29-rsm0-rcm44-esm100-rsr0-rcr69-esr100,exr/ReadingArea_rsl0-rcl2-esl29-rsm0-rcm44-esm100-rsr0-rcr69-esr100.exr,ReadingArea_rsl0-rcl2-esl29-rsm0-rcm44-esm100-rsr0-rcr69-esr100.npz,,,,,0,1,1,434,,right,red,0.91,193.28128790855408,,193.77107191085813,,1,3,6,lightness,readingArea,realistic,75,2023-03-18_15h26.29.599,tripletExp_regina_11082022,2022.2.4,120.32508943401965,
11,4,2,0,1.0,1.0,0,0.694444444444444,0.298245614035088,0,0.25,0.298245614035088,ReadingArea_rsl0-rcl100-esl100-rsm0-rcm69-esm29-rsr0-rcr25-esr29,exr/ReadingArea_rsl0-rcl100-esl100-rsm0-rcm69-esm29-rsr0-rcr25-esr29.exr,ReadingArea_rsl0-rcl100-esl100-rsm0-rcm69-esm29-rsr0-rcr25-esr29.npz,,,,,0,2,2,280,,right,red,1.8,195.4627859592437,,195.8694348335266,,1,3,6,lightness,readingArea,realistic,75,2023-03-18_15h26.29.599,tripletExp_regina_11082022,2022.2.4,120.32508943401965,
6,12,8,0,0.027777777777778,1.0,0,0.027777777777778,3.10526315789474,0,0.25,1.0,ReadingArea_rsl0-rcl2-esl100-rsm0-rcm2-esm310-rsr0-rcr25-esr100,exr/ReadingArea_rsl0-rcl2-esl100-rsm0-rcm2-esm310-rsr0-rcr25-esr100.exr,ReadingArea_rsl0-rcl2-esl100-rsm0-rcm2-esm310-rsr0-rcr25-esr100.npz,,,,,0,3,3,186,,left,green,3.09,199.3518319129944,,199.77382683753967,,1,3,6,lightness,readingArea,realistic,75,2023-03-18_15h26.29.599,tripletExp_regina_11082022,2022.2.4,120.32508943401965,
10,11,13,0,0.694444444444444,1.0,0,1.0,1.0,0,0.111111111111111,3.10526315789474,ReadingArea_rsl0-rcl69-esl100-rsm0-rcm100-esm100-rsr0-rcr11-esr310,exr/ReadingArea_rsl0-rcl69-esl100-rsm0-rcm100-esm100-rsr0-rcr11-esr310.exr,ReadingArea_rsl0-rcl69-esl100-rsm0-rcm100-esm100-rsr0-rcr11-esr310.npz,,,,,0,4,4,79,,left,green,1.57,201.4665598869324,,201.8858859539032,,1,3,6,lightness,readingArea,realistic,75,2023-03-18_15h26.29.599,tripletExp_regina_11082022,2022.2.4,120.32508943401965,
6,12,0,0,0.027777777777778,1.0,0,0.027777777777778,3.10526315789474,0,0.027777777777778,0.298245614035088,ReadingArea_rsl0-rcl2-esl100-rsm0-rcm2-esm310-rsr0-rcr2-esr29,exr/ReadingArea_rsl0-rcl2-esl100-rsm0-rcm2-esm310-rsr0-rcr2-esr29.exr,ReadingArea_rsl0-rcl2-esl100-rsm0-rcm2-esm310-rsr0-rcr2-esr29.npz,,,,,0,5,5,23,,left,green,1.29,203.58235788345337,,204.0056219100952,,1,3,6,lightness,readingArea,realistic,75,2023-03-18_15h26.29.599,tripletExp_regina_11082022,2022.2.4,120.32508943401965,
9,6,13,0,0.444444444444444,1.0,0,0.027777777777778,1.0,0,0.111111111111111,3.10526315789474,ReadingArea_rsl0-rcl44-esl100-rsm0-rcm2-esm100-rsr0-rcr11-esr310,exr/ReadingArea_rsl0-rcl44-esl100-rsm0-rcm2-esm100-rsr0-rcr11-esr310.exr,ReadingArea_rsl0-rcl44-esl100-rsm0-rcm2-esm100-rsr0-rcr11-esr310.npz,,,,,0,6,6,285,,right,red,1.64,205.72515487670896,,206.1555678844452,,1,3,6,lightness,readingArea,realistic,75,2023-03-18_15h26.29.599,tripletExp_regina_11082022,2022.2.4,120.32508943401965,
5,2,7,0,1.0,0.298245614035088,0,0.25,0.298245614035088,0,0.111111111111111,1.0,ReadingArea_rsl0-rcl100-esl29-rsm0-rcm25-esm29-rsr0-rcr11-esr100,exr/ReadingArea_rsl0-rcl100-esl29-rsm0-rcm25-esm29-rsr0-rcr11-esr100.exr,ReadingArea_rsl0-rcl100-esl29-rsm0-rcm25-esm29-rsr0-rcr11-esr100.npz,,,,,0,7,7,179,,right,red,1.09,207.84914302825928,,208.28421092033383,,1,3,6,lightness,readingArea,realistic,75,2023-03-18_15h26.29.599,tripletExp_regina_11082022,2022.2.4,120.32508943401965,
2,5,14,0,0.25,0.298245614035088,0,1.0,0.298245614035088,0,0.25,3.10526315789474,ReadingArea_rsl0-rcl25-esl29-rsm0-rcm100-esm29-rsr0-rcr25-esr310,exr/ReadingArea_rsl0-rcl25-esl29-rsm0-rcm100-esm29-rsr0-rcr25-esr310.exr,ReadingArea_rsl0-rcl25-esl29-rsm0-rcm100-esm29-rsr0-rcr25-esr310.npz,,,,,0,8,8,390,,right,red,4.17,213.53916692733765,,213.9601719379425,,1,3,6,lightness,readingArea,realistic,75,2023-03-18_15h26.29.599,tripletExp_regina_11082022,2022.2.4,120.32508943401965,
8,0,4,0,0.25,1.0,0,0.027777777777778,0.298245614035088,0,0.694444444444444,0.298245614035088,ReadingArea_rsl0-rcl25-esl100-rsm0-rcm2-esm29-rsr0-rcr69-esr29,exr/ReadingArea_rsl0-rcl25-esl100-rsm0-rcm2-esm29-rsr0-rcr69-esr29.exr,ReadingArea_rsl0-rcl25-esl100-rsm0-rcm2-esm29-rsr0-rcr69-esr29.npz,,,,,0,9,9,346,,right,red,3.21,217.4162278175354,,217.81174397468567,,1,3,6,lightness,readingArea,realistic,75,2023-03-18_15h26.29.599,tripletExp_regina_11082022,2022.2.4,120.32508943401965,
4,12,5,0,0.694444444444444,0.298245614035088,0,0.027777777777778,3.10526315789474,0,1.0,0.298245614035088,ReadingArea_rsl0-rcl69-esl29-rsm0-rcm2-esm310-rsr0-rcr100-esr29,exr/ReadingArea_rsl0-rcl69-esl29-rsm0-rcm2-esm310-rsr0-rcr100-esr29.exr,ReadingArea_rsl0-rcl69-esl29-rsm0-rcm2-esm310-rsr0-rcr100-esr29.npz,,,,,0,10,10,296,,left,green,1.61,219.50609302520752,,219.9465320110321,,1,3,6,lightness,readingArea,realistic,75,2023-03-18_15h26.29.599,tripletExp_regina_11082022,2022.2.4,120.32508943401965,
13,9,4,0,0.111111111111111,3.10526315789474,0,0.444444444444444,1.0,0,0.694444444444444,0.298245614035088,ReadingArea_rsl0-rcl11-esl310-rsm0-rcm44-esm100-rsr0-rcr69-esr29,exr/ReadingArea_rsl0-rcl11-esl310-rsm0-rcm44-esm100-rsr0-rcr69-esr29.exr,ReadingArea_rsl0-rcl11-esl310-rsm0-rcm44-esm100-rsr0-rcr69-esr29.npz,,,,,0,11,11,444,,left,green,4.67,225.15876293182373,,225.6029679775238,,1,3,6,lightness,readingArea,realistic,75,2023-03-18_15h26.29.599,tripletExp_regina_11082022,2022.2.4,120.32508943401965,
3,12,4,0,0.444444444444444,0.298245614035088,0,0.027777777777778,3.10526315789474,0,0.694444444444444,0.298245614035088,ReadingArea_rsl0-rcl44-esl29-rsm0-rcm2-esm310-rsr0-rcr69-esr29,exr/ReadingArea_rsl0-rcl44-esl29-rsm0-rcm2-esm310-rsr0-rcr69-esr29.exr,ReadingArea_rsl0-rcl44-esl29-rsm0-rcm2-esm310-rsr0-rcr69-esr29.npz,,,,,0,12,12,426,,left,green,1.46,227.2916209697724,,227.73906898498527,,1,3,6,lightness,readingArea,realistic,75,2023-03-18_15h26.29.599,tripletExp_regina_11082022,2022.2.4,120.32508943401965,
12,5,4,0,0.027777777777778,3.10526315789474,0,1.0,0.298245614035088,0,0.694444444444444,0.298245614035088,ReadingArea_rsl0-rcl2-esl310-rsm0-rcm100-esm29-rsr0-rcr69-esr29,exr/ReadingArea_rsl0-rcl2-esl310-rsm0-rcm100-esm29-rsr0-rcr69-esr29.exr,ReadingArea_rsl0-rcl2-esl310-rsm0-rcm100-esm29-rsr0-rcr69-esr29.npz,,,,,0,13,13,566,,right,red,1.35,229.43737983703613,,229.8660078048706,,1,3,6,lightness,readingArea,realistic,75,2023-03-18_15h26.29.599,tripletExp_regina_11082022,2022.2.4,120.32508943401965,
5,3,6,0,1.0,0.298245614035088,0,0.444444444444444,0.298245614035088,0,0.027777777777778,1.0,ReadingArea_rsl0-rcl100-esl29-rsm0-rcm44-esm29-rsr0-rcr2-esr100,exr/ReadingArea_rsl0-rcl100-esl29-rsm0-rcm44-esm29-rsr0-rcr2-esr100.exr,ReadingArea_rsl0-rcl100-esl29-rsm0-rcm44-esm29-rsr0-rcr2-esr100.npz,,,,,0,14,14,316,,left,green,0.94,231.58994698524475,,232.0469629764557,,1,3,6,lightness,readingArea,realistic,75,2023-03-18_15h26.29.599,tripletExp_regina_11082022,2022.2.4,120.32508943401965,
8,3,12,0,0.25,1.0,0,0.444444444444444,0.298245614035088,0,0.027777777777778,3.10526315789474,ReadingArea_rsl0-rcl25-esl100-rsm0-rcm44-esm29-rsr0-rcr2-esr310,exr/ReadingArea_rsl0-rcl25-esl100-rsm0-rcm44-esm29-rsr0-rcr2-esr310.exr,ReadingArea_rsl0-rcl25-esl100-rsm0-rcm44-esm29-rsr0-rcr2-esr310.npz,,,,,0,15,15,22,,right,red,4.56,237.25372982025144,,237.6811878681183,,1,3,6,lightness,readingArea,realistic,75,2023-03-18_15h26.29.599,tripletExp_regina_11082022,2022.2.4,120.32508943401965,
10,9,6,0,0.694444444444444,1.0,0,0.444444444444444,1.0,0,0.027777777777778,1.0,ReadingArea_rsl0-rcl69-esl100-rsm0-rcm44-esm100-rsr0-rcr2-esr100,exr/ReadingArea_rsl0-rcl69-esl100-rsm0-rcm44-esm100-rsr0-rcr2-esr100.exr,ReadingArea_rsl0-rcl69-esl100-rsm0-rcm44-esm100-rsr0-rcr2-esr100.npz,,,,,0,16,16,35,,left,green,1.13,239.37406587600708,,239.8021059036255,,1,3,6,lightness,readingArea,realistic,75,2023-03-18_15h26.29.599,tripletExp_regina_11082022,2022.2.4,120.32508943401965,
7,6,11,0,0.111111111111111,1.0,0,0.027777777777778,1.0,0,1.0,1.0,ReadingArea_rsl0-rcl11-esl100-rsm0-rcm2-esm100-rsr0-rcr100-esr100,exr/ReadingArea_rsl0-rcl11-esl100-rsm0-rcm2-esm100-rsr0-rcr100-esr100.exr,ReadingArea_rsl0-rcl11-esl100-rsm0-rcm2-esm100-rsr0-rcr100-esr100.npz,,,,,0,17,17,84,,left,green,0.77,241.51478481292725,,,,1,3,6,lightness,readingArea,realistic,75,2023-03-18_15h26.29.599,tripletExp_regina_11082022,2022.2.4,120.32508943401965,
5,2,8,0,1.0,0.298245614035088,0,0.25,0.298245614035088,0,0.25,1.0,ReadingArea_rsl0-rcl100-esl29-rsm0-rcm25-esm29-rsr0-rcr25-esr100,exr/ReadingArea_rsl0-rcl100-esl29-rsm0-rcm25-esm29-rsr0-rcr25-esr100.exr,ReadingArea_rsl0-rcl100-esl29-rsm0-rcm25-esm29-rsr0-rcr25-esr100.npz,,,,,0,18,18,538,,right,red,1.18,243.6490249633789,,,,1,3,6,lightness,readingArea,realistic,75,2023-03-18_15h26.29.599,tripletExp_regina_11082022,2022.2.4,120.32508943401965,
7,14,10,0,0.111111111111111,1.0,0,0.25,3.10526315789474,0,0.694444444444444,1.0,ReadingArea_rsl0-rcl11-esl100-rsm0-rcm25-esm310-rsr0-rcr69-esr100,exr/ReadingArea_rsl0-rcl11-esl100-rsm0-rcm25-esm310-rsr0-rcr69-esr100.exr,ReadingArea_rsl0-rcl11-esl100-rsm0-rcm25-esm310-rsr0-rcr69-esr100.npz,,,,,0,19,19,472,,right,red,0.96,245.84885382652283,,,,1,3,6,lightness,readingArea,realistic,75,2023-03-18_15h26.29.599,tripletExp_regina_11082022,2022.2.4,120.32508943401965,
11,12,2,0,1.0,1.0,0,0.027777777777778,3.10526315789474,0,0.25,0.298245614035088,ReadingArea_rsl0-rcl100-esl100-rsm0-rcm2-esm310-rsr0-rcr25-esr29,exr/ReadingArea_rsl0-rcl100-esl100-rsm0-rcm2-esm310-rsr0-rcr25-esr29.exr,ReadingArea_rsl0-rcl100-esl100-rsm0-rcm2-esm310-rsr0-rcr25-esr29.npz,,,,,0,20,20,423,,right,red,0.69,247.97346901893616,,248.40443992614743,,1,3,6,lightness,readingArea,realistic,75,2023-03-18_15h26.29.599,tripletExp_regina_11082022,2022.2.4,120.32508943401965,
5,1,13,0,1.0,0.298245614035088,0,0.111111111111111,0.298245614035088,0,0.111111111111111,3.10526315789474,ReadingArea_rsl0-rcl100-esl29-rsm0-rcm11-esm29-rsr0-rcr11-esr310,exr/ReadingArea_rsl0-rcl100-esl29-rsm0-rcm11-esm29-rsr0-rcr11-esr310.exr,ReadingArea_rsl0-rcl100-esl29-rsm0-rcm11-esm29-rsr0-rcr11-esr310.npz,,,,,0,21,21,594,,right,red,3.08,251.8815360069275,,252.31439089775083,,1,3,6,lightness,readingArea,realistic,75,2023-03-18_15h26.29.599,tripletExp_regina_11082022,2022.2.4,120.32508943401965,
10,1,0,0,0.694444444444444,1.0,0,0.111111111111111,0.298245614035088,0,0.027777777777778,0.298245614035088,ReadingArea_rsl0-rcl69-esl100-rsm0-rcm11-esm29-rsr0-rcr2-esr29,exr/ReadingArea_rsl0-rcl69-esl100-rsm0-rcm11-esm29-rsr0-rcr2-esr29.exr,ReadingArea_rsl0-rcl69-esl100-rsm0-rcm11-esm29-rsr0-rcr2-esr29.npz,,,,,0,22,22,276,,right,red,0.83,254.03538990020752,,254.4649720191956,,1,3,6,lightness,readingArea,realistic,75,2023-03-18_15h26.29.599,tripletExp_regina_11082022,2022.2.4,120.32508943401965,
14,1,13,0,0.25,3.10526315789474,0,0.111111111111111,0.298245614035088,0,0.111111111111111,3.10526315789474,ReadingArea_rsl0-rcl25-esl310-rsm0-rcm11-esm29-rsr0-rcr11-esr310,exr/ReadingArea_rsl0-rcl25-esl310-rsm0-rcm11-esm29-rsr0-rcr11-esr310.exr,ReadingArea_rsl0-rcl25-esl310-rsm0-rcm11-esm29-rsr0-rcr11-esr310.npz,,,,,0,23,23,265,,right,red,1.14,256.17382287979126,,256.6151828765869,,1,3,6,lightness,readingArea,realistic,75,2023-03-18_15h26.29.599,tripletExp_regina_11082022,2022.2.4,120.32508943401965,
2,3,4,0,0.25,0.298245614035088,0,0.444444444444444,0.298245614035088,0,0.694444444444444,0.298245614035088,ReadingArea_rsl0-rcl25-esl29-rsm0-rcm44-esm29-rsr0-rcr69-esr29,exr/ReadingArea_rsl0-rcl25-esl29-rsm0-rcm44-esm29-rsr0-rcr69-esr29.exr,ReadingArea_rsl0-rcl25-esl29-rsm0-rcm44-esm29-rsr0-rcr69-esr29.npz,,,,,0,24,24,61,,right,red,1.05,258.30798387527466,,258.94553780555725,,1,3,6,lightness,readingArea,realistic,75,2023-03-18_15h26.29.599,tripletExp_regina_11082022,2022.2.4,120.32508943401965,
8,9,6,0,0.25,1.0,0,0.444444444444444,1.0,0,0.027777777777778,1.0,ReadingArea_rsl0-rcl25-esl100-rsm0-rcm44-esm100-rsr0-rcr2-esr100,exr/ReadingArea_rsl0-rcl25-esl100-rsm0-rcm44-esm100-rsr0-rcr2-esr100.exr,ReadingArea_rsl0-rcl25-esl100-rsm0-rcm44-esm100-rsr0-rcr2-esr100.npz,,,,,0,25,25,3,,left,green,1.43,260.6299159526825,,261.05744099617004,,1,3,6,lightness,readingArea,realistic,75,2023-03-18_15h26.29.599,tripletExp_regina_11082022,2022.2.4,120.32508943401965,
11,14,2,0,1.0,1.0,0,0.25,3.10526315789474,0,0.25,0.298245614035088,ReadingArea_rsl0-rcl100-esl100-rsm0-rcm25-esm310-rsr0-rcr25-esr29,exr/ReadingArea_rsl0-rcl100-esl100-rsm0-rcm25-esm310-rsr0-rcr25-esr29.exr,ReadingArea_rsl0-rcl100-esl100-rsm0-rcm25-esm310-rsr0-rcr25-esr29.npz,,,,,0,26,26,419,,left,green,0.83,262.782723903656,,263.1943140029907,,1,3,6,lightness,readingArea,realistic,75,2023-03-18_15h26.29.599,tripletExp_regina_11082022,2022.2.4,120.32508943401965,
14,13,3,0,0.25,3.10526315789474,0,0.111111111111111,3.10526315789474,0,0.444444444444444,0.298245614035088,ReadingArea_rsl0-rcl25-esl310-rsm0-rcm11-esm310-rsr0-rcr44-esr29,exr/ReadingArea_rsl0-rcl25-esl310-rsm0-rcm11-esm310-rsr0-rcr44-esr29.exr,ReadingArea_rsl0-rcl25-esl310-rsm0-rcm11-esm310-rsr0-rcr44-esr29.npz,,,,,0,27,27,256,,right,red,1.27,264.9147889614105,,265.34763503074646,,1,3,6,lightness,readingArea,realistic,75,2023-03-18_15h26.29.599,tripletExp_regina_11082022,2022.2.4,120.32508943401965,
9,3,0,0,0.444444444444444,1.0,0,0.444444444444444,0.298245614035088,0,0.027777777777778,0.298245614035088,ReadingArea_rsl0-rcl44-esl100-rsm0-rcm44-esm29-rsr0-rcr2-esr29,exr/ReadingArea_rsl0-rcl44-esl100-rsm0-rcm44-esm29-rsr0-rcr2-esr29.exr,ReadingArea_rsl0-rcl44-esl100-rsm0-rcm44-esm29-rsr0-rcr2-esr29.npz,,,,,0,28,28,120,,left,green,1.39,267.039088010788,,267.4684858322144,,1,3,6,lightness,readingArea,realistic,75,2023-03-18_15h26.29.599,tripletExp_regina_11082022,2022.2.4,120.32508943401965,
12,9,14,0,0.027777777777778,3.10526315789474,0,0.444444444444444,1.0,0,0.25,3.10526315789474,ReadingArea_rsl0-rcl2-esl310-rsm0-rcm44-esm100-rsr0-rcr25-esr310,exr/ReadingArea_rsl0-rcl2-esl310-rsm0-rcm44-esm100-rsr0-rcr25-esr310.exr,ReadingArea_rsl0-rcl2-esl310-rsm0-rcm44-esm100-rsr0-rcr25-esr310.npz,,,,,0,29,29,123,,right,red,0.95,269.183082818985,,269.59471702575684,,1,3,6,lightness,readingArea,realistic,75,2023-03-18_15h26.29.599,tripletExp_regina_11082022,2022.2.4,120.32508943401965,
8,14,6,0,0.25,1.0,0,0.25,3.10526315789474,0,0.027777777777778,1.0,ReadingArea_rsl0-rcl25-esl100-rsm0-rcm25-esm310-rsr0-rcr2-esr100,exr/ReadingArea_rsl0-rcl25-esl100-rsm0-rcm25-esm310-rsr0-rcr2-esr100.exr,ReadingArea_rsl0-rcl25-esl100-rsm0-rcm25-esm310-rsr0-rcr2-esr100.npz,,,,,0,30,30,469,,left,green,1.11,271.31280493736267,,271.7453739643097,,1,3,6,lightness,readingArea,realistic,75,2023-03-18_15h26.29.599,tripletExp_regina_11082022,2022.2.4,120.32508943401965,
3,14,10,0,0.444444444444444,0.298245614035088,0,0.25,3.10526315789474,0,0.694444444444444,1.0,ReadingArea_rsl0-rcl44-esl29-rsm0-rcm25-esm310-rsr0-rcr69-esr100,exr/ReadingArea_rsl0-rcl44-esl29-rsm0-rcm25-esm310-rsr0-rcr69-esr100.exr,ReadingArea_rsl0-rcl44-esl29-rsm0-rcm25-esm310-rsr0-rcr69-esr100.npz,,,,,0,31,31,279,,right,red,0.91,273.46664786338806,,274.0723099708557,,1,3,6,lightness,readingArea,realistic,75,2023-03-18_15h26.29.599,tripletExp_regina_11082022,2022.2.4,120.32508943401965,
13,1,7,0,0.111111111111111,3.10526315789474,0,0.111111111111111,0.298245614035088,0,0.111111111111111,1.0,ReadingArea_rsl0-rcl11-esl310-rsm0-rcm11-esm29-rsr0-rcr11-esr100,exr/ReadingArea_rsl0-rcl11-esl310-rsm0-rcm11-esm29-rsr0-rcr11-esr100.exr,ReadingArea_rsl0-rcl11-esl310-rsm0-rcm11-esm29-rsr0-rcr11-esr100.npz,,,,,0,32,32,206,,right,red,1.52,275.75649094581604,,276.1934769153595,,1,3,6,lightness,readingArea,realistic,75,2023-03-18_15h26.29.599,tripletExp_regina_11082022,2022.2.4,120.32508943401965,
10,4,8,0,0.694444444444444,1.0,0,0.694444444444444,0.298245614035088,0,0.25,1.0,ReadingArea_rsl0-rcl69-esl100-rsm0-rcm69-esm29-rsr0-rcr25-esr100,exr/ReadingArea_rsl0-rcl69-esl100-rsm0-rcm69-esm29-rsr0-rcr25-esr100.exr,ReadingArea_rsl0-rcl69-esl100-rsm0-rcm69-esm29-rsr0-rcr25-esr100.npz,,,,,0,33,33,562,,right,red,0.86,277.91046380996704,,278.32825899124146,,1,3,6,lightness,readingArea,realistic,75,2023-03-18_15h26.29.599,tripletExp_regina_11082022,2022.2.4,120.32508943401965,
11,0,10,0,1.0,1.0,0,0.027777777777778,0.298245614035088,0,0.694444444444444,1.0,ReadingArea_rsl0-rcl100-esl100-rsm0-rcm2-esm29-rsr0-rcr69-esr100,exr/ReadingArea_rsl0-rcl100-esl100-rsm0-rcm2-esm29-rsr0-rcr69-esr100.exr,ReadingArea_rsl0-rcl100-esl100-rsm0-rcm2-esm29-rsr0-rcr69-esr100.npz,,,,,0,34,34,259,,right,red,1.25,280.0231080055237,,280.47644782066345,,1,3,6,lightness,readingArea,realistic,75,2023-03-18_15h26.29.599,tripletExp_regina_11082022,2022.2.4,120.32508943401965,
3,13,12,0,0.444444444444444,0.298245614035088,0,0.111111111111111,3.10526315789474,0,0.027777777777778,3.10526315789474,ReadingArea_rsl0-rcl44-esl29-rsm0-rcm11-esm310-rsr0-rcr2-esr310,exr/ReadingArea_rsl0-rcl44-esl29-rsm0-rcm11-esm310-rsr0-rcr2-esr310.exr,ReadingArea_rsl0-rcl44-esl29-rsm0-rcm11-esm310-rsr0-rcr2-esr310.npz,,,,,0,35,35,34,,left,green,1.59,282.18027901649475,,282.59282898902893,,1,3,6,lightness,readingArea,realistic,75,2023-03-18_15h26.29.599,tripletExp_regina_11082022,2022.2.4,120.32508943401965,
10,11,5,0,0.694444444444444,1.0,0,1.0,1.0,0,1.0,0.298245614035088,ReadingArea_rsl0-rcl69-esl100-rsm0-rcm100-esm100-rsr0-rcr100-esr29,exr/ReadingArea_rsl0-rcl69-esl100-rsm0-rcm100-esm100-rsr0-rcr100-esr29.exr,ReadingArea_rsl0-rcl69-esl100-rsm0-rcm100-esm100-rsr0-rcr100-esr29.npz,,,,,0,36,36,514,,left,green,1.55,284.30888986587524,,284.7506878376007,,1,3,6,lightness,readingArea,realistic,75,2023-03-18_15h26.29.599,tripletExp_regina_11082022,2022.2.4,120.32508943401965,
10,12,9,0,0.694444444444444,1.0,0,0.027777777777778,3.10526315789474,0,0.444444444444444,1.0,ReadingArea_rsl0-rcl69-esl100-rsm0-rcm2-esm310-rsr0-rcr44-esr100,exr/ReadingArea_rsl0-rcl69-esl100-rsm0-rcm2-esm310-rsr0-rcr44-esr100.exr,ReadingArea_rsl0-rcl69-esl100-rsm0-rcm2-esm310-rsr0-rcr44-esr100.npz,,,,,0,37,37,405,,right,red,2.54,288.2350509166717,,288.6713299751282,,1,3,6,lightness,readingArea,realistic,75,2023-03-18_15h26.29.599,tripletExp_regina_11082022,2022.2.4,120.32508943401965,
1,3,12,0,0.111111111111111,0.298245614035088,0,0.444444444444444,0.298245614035088,0,0.027777777777778,3.10526315789474,ReadingArea_rsl0-rcl11-esl29-rsm0-rcm44-esm29-rsr0-rcr2-esr310,exr/ReadingArea_rsl0-rcl11-esl29-rsm0-rcm44-esm29-rsr0-rcr2-esr310.exr,ReadingArea_rsl0-rcl11-esl29-rsm0-rcm44-esm29-rsr0-rcr2-esr310.npz,,,,,0,38,38,323,,right,red,0.99,290.38895988464355,,290.8422930240631,,1,3,6,lightness,readingArea,realistic,75,2023-03-18_15h26.29.599,tripletExp_regina_11082022,2022.2.4,120.32508943401965,
11,10,0,0,1.0,1.0,0,0.694444444444444,1.0,0,0.027777777777778,0.298245614035088,ReadingArea_rsl0-rcl100-esl100-rsm0-rcm69-esm100-rsr0-rcr2-esr29,exr/ReadingArea_rsl0-rcl100-esl100-rsm0-rcm69-esm100-rsr0-rcr2-esr29.exr,ReadingArea_rsl0-rcl100-esl100-rsm0-rcm69-esm100-rsr0-rcr2-esr29.npz,,,,,0,39,39,549,,left,green,0.82,292.5365920066833,,292.946674823761,,1,3,6,lightness,readingArea,realistic,75,2023-03-18_15h26.29.599,tripletExp_regina_11082022,2022.2.4,120.32508943401965,
0,4,12,0,0.027777777777778,0.298245614035088,0,0.694444444444444,0.298245614035088,0,0.027777777777778,3.10526315789474,ReadingArea_rsl0-rcl2-esl29-rsm0-rcm69-esm29-rsr0-rcr2-esr310,exr/ReadingArea_rsl0-rcl2-esl29-rsm0-rcm69-esm29-rsr0-rcr2-esr310.exr,ReadingArea_rsl0-rcl2-esl29-rsm0-rcm69-esm29-rsr0-rcr2-esr310.npz,,,,,0,40,40,150,,right,red,0.75,294.6359689235687,,295.16760993003845,,1,3,6,lightness,readingArea,realistic,75,2023-03-18_15h26.29.599,tripletExp_regina_11082022,2022.2.4,120.32508943401965,
10,4,9,0,0.694444444444444,1.0,0,0.694444444444444,0.298245614035088,0,0.444444444444444,1.0,ReadingArea_rsl0-rcl69-esl100-rsm0-rcm69-esm29-rsr0-rcr44-esr100,exr/ReadingArea_rsl0-rcl69-esl100-rsm0-rcm69-esm29-rsr0-rcr44-esr100.exr,ReadingArea_rsl0-rcl69-esl100-rsm0-rcm69-esm29-rsr0-rcr44-esr100.npz,,,,,0,41,41,452,,right,red,1.42,296.886106967926,,297.3066029548645,,1,3,6,lightness,readingArea,realistic,75,2023-03-18_15h26.29.599,tripletExp_regina_11082022,2022.2.4,120.32508943401965,
14,8,1,0,0.25,3.10526315789474,0,0.25,1.0,0,0.111111111111111,0.298245614035088,ReadingArea_rsl0-rcl25-esl310-rsm0-rcm25-esm100-rsr0-rcr11-esr29,exr/ReadingArea_rsl0-rcl25-esl310-rsm0-rcm25-esm100-rsr0-rcr11-esr29.exr,ReadingArea_rsl0-rcl25-esl310-rsm0-rcm25-esm100-rsr0-rcr11-esr29.npz,,,,,0,42,42,141,,left,green,3.02,300.7766749858856,,301.25915598869324,,1,3,6,lightness,readingArea,realistic,75,2023-03-18_15h26.29.599,tripletExp_regina_11082022,2022.2.4,120.32508943401965,
10,0,11,0,0.694444444444444,1.0,0,0.027777777777778,0.298245614035088,0,1.0,1.0,ReadingArea_rsl0-rcl69-esl100-rsm0-rcm2-esm29-rsr0-rcr100-esr100,exr/ReadingArea_rsl0-rcl69-esl100-rsm0-rcm2-esm29-rsr0-rcr100-esr100.exr,ReadingArea_rsl0-rcl69-esl100-rsm0-rcm2-esm29-rsr0-rcr100-esr100.npz,,,,,0,43,43,573,,left,green,1.98,304.7085919380188,,,,1,3,6,lightness,readingArea,realistic,75,2023-03-18_15h26.29.599,tripletExp_regina_11082022,2022.2.4,120.32508943401965,
0,1,6,0,0.027777777777778,0.298245614035088,0,0.111111111111111,0.298245614035088,0,0.027777777777778,1.0,ReadingArea_rsl0-rcl2-esl29-rsm0-rcm11-esm29-rsr0-rcr2-esr100,exr/ReadingArea_rsl0-rcl2-esl29-rsm0-rcm11-esm29-rsr0-rcr2-esr100.exr,ReadingArea_rsl0-rcl2-esl29-rsm0-rcm11-esm29-rsr0-rcr2-esr100.npz,,,,,0,44,44,375,,right,red,0.96,306.98145389556885,,307.401221036911,,1,3,6,lightness,readingArea,realistic,75,2023-03-18_15h26.29.599,tripletExp_regina_11082022,2022.2.4,120.32508943401965,
11,7,12,0,1.0,1.0,0,0.111111111111111,1.0,0,0.027777777777778,3.10526315789474,ReadingArea_rsl0-rcl100-esl100-rsm0-rcm11-esm100-rsr0-rcr2-esr310,exr/ReadingArea_rsl0-rcl100-esl100-rsm0-rcm11-esm100-rsr0-rcr2-esr310.exr,ReadingArea_rsl0-rcl100-esl100-rsm0-rcm11-esm100-rsr0-rcr2-esr310.npz,,,,,0,45,45,352,,right,red,2.95,310.86455392837524,,311.3795738220215,,1,3,6,lightness,readingArea,realistic,75,2023-03-18_15h26.29.599,tripletExp_regina_11082022,2022.2.4,120.32508943401965,
3,12,14,0,0.444444444444444,0.298245614035088,0,0.027777777777778,3.10526315789474,0,0.25,3.10526315789474,ReadingArea_rsl0-rcl44-esl29-rsm0-rcm2-esm310-rsr0-rcr25-esr310,exr/ReadingArea_rsl0-rcl44-esl29-rsm0-rcm2-esm310-rsr0-rcr25-esr310.exr,ReadingArea_rsl0-rcl44-esl29-rsm0-rcm2-esm310-rsr0-rcr25-esr310.npz,,,,,0,46,46,16,,left,green,0.96,313.0732879638672,,313.50754499435425,,1,3,6,lightness,readingArea,realistic,75,2023-03-18_15h26.29.599,tripletExp_regina_11082022,2022.2.4,120.32508943401965,
5,0,10,0,1.0,0.298245614035088,0,0.027777777777778,0.298245614035088,0,0.694444444444444,1.0,ReadingArea_rsl0-rcl100-esl29-rsm0-rcm2-esm29-rsr0-rcr69-esr100,exr/ReadingArea_rsl0-rcl100-esl29-rsm0-rcm2-esm29-rsr0-rcr69-esr100.exr,ReadingArea_rsl0-rcl100-esl29-rsm0-rcm2-esm29-rsr0-rcr69-esr100.npz,,,,,0,47,47,361,,left,green,1.36,315.20178484916687,,,,1,3,6,lightness,readingArea,realistic,75,2023-03-18_15h26.29.599,tripletExp_regina_11082022,2022.2.4,120.32508943401965,
1,5,8,0,0.111111111111111,0.298245614035088,0,1.0,0.298245614035088,0,0.25,1.0,ReadingArea_rsl0-rcl11-esl29-rsm0-rcm100-esm29-rsr0-rcr25-esr100,exr/ReadingArea_rsl0-rcl11-esl29-rsm0-rcm100-esm29-rsr0-rcr25-esr100.exr,ReadingArea_rsl0-rcl11-esl29-rsm0-rcm100-esm29-rsr0-rcr25-esr100.npz,,,,,0,48,48,238,,right,red,2.7,319.1859238147736,,319.6199719905853,,1,3,6,lightness,readingArea,realistic,75,2023-03-18_15h26.29.599,tripletExp_regina_11082022,2022.2.4,120.32508943401965,
8,6,5,0,0.25,1.0,0,0.027777777777778,1.0,0,1.0,0.298245614035088,ReadingArea_rsl0-rcl25-esl100-rsm0-rcm2-esm100-rsr0-rcr100-esr29,exr/ReadingArea_rsl0-rcl25-esl100-rsm0-rcm2-esm100-rsr0-rcr100-esr29.exr,ReadingArea_rsl0-rcl25-esl100-rsm0-rcm2-esm100-rsr0-rcr100-esr29.npz,,,,,0,49,49,241,,left,green,2.67,323.0754199028015,,323.48999285697937,,1,3,6,lightness,readingArea,realistic,75,2023-03-18_15h26.29.599,tripletExp_regina_11082022,2022.2.4,120.32508943401965,
1,5,14,0,0.111111111111111,0.298245614035088,0,1.0,0.298245614035088,0,0.25,3.10526315789474,ReadingArea_rsl0-rcl11-esl29-rsm0-rcm100-esm29-rsr0-rcr25-esr310,exr/ReadingArea_rsl0-rcl11-esl29-rsm0-rcm100-esm29-rsr0-rcr25-esr310.exr,ReadingArea_rsl0-rcl11-esl29-rsm0-rcm100-esm29-rsr0-rcr25-esr310.npz,,,,,0,50,50,191,,right,red,2.16,326.97474098205566,,327.4082310199737,,1,3,6,lightness,readingArea,realistic,75,2023-03-18_15h26.29.599,tripletExp_regina_11082022,2022.2.4,120.32508943401965,
8,0,6,0,0.25,1.0,0,0.027777777777778,0.298245614035088,0,0.027777777777778,1.0,ReadingArea_rsl0-rcl25-esl100-rsm0-rcm2-esm29-rsr0-rcr2-esr100,exr/ReadingArea_rsl0-rcl25-esl100-rsm0-rcm2-esm29-rsr0-rcr2-esr100.exr,ReadingArea_rsl0-rcl25-esl100-rsm0-rcm2-esm29-rsr0-rcr2-esr100.npz,,,,,0,51,51,401,,right,red,2.42,330.89285802841187,,331.3400008678436,,1,3,6,lightness,readingArea,realistic,75,2023-03-18_15h26.29.599,tripletExp_regina_11082022,2022.2.4,120.32508943401965,
10,5,4,0,0.694444444444444,1.0,0,1.0,0.298245614035088,0,0.694444444444444,0.298245614035088,ReadingArea_rsl0-rcl69-esl100-rsm0-rcm100-esm29-rsr0-rcr69-esr29,exr/ReadingArea_rsl0-rcl69-esl100-rsm0-rcm100-esm29-rsr0-rcr69-esr29.exr,ReadingArea_rsl0-rcl69-esl100-rsm0-rcm100-esm29-rsr0-rcr69-esr29.npz,,,,,0,52,52,455,,right,red,2.56,334.8100860118866,,335.23847699165344,,1,3,6,lightness,readingArea,realistic,75,2023-03-18_15h26.29.599,tripletExp_regina_11082022,2022.2.4,120.32508943401965,
8,6,11,0,0.25,1.0,0,0.027777777777778,1.0,0,1.0,1.0,ReadingArea_rsl0-rcl25-esl100-rsm0-rcm2-esm100-rsr0-rcr100-esr100,exr/ReadingArea_rsl0-rcl25-esl100-rsm0-rcm2-esm100-rsr0-rcr100-esr100.exr,ReadingArea_rsl0-rcl25-esl100-rsm0-rcm2-esm100-rsr0-rcr100-esr100.npz,,,,,0,53,53,236,,left,green,2.08,338.72541880607605,,339.1612558364868,,1,3,6,lightness,readingArea,realistic,75,2023-03-18_15h26.29.599,tripletExp_regina_11082022,2022.2.4,120.32508943401965,
12,13,10,0,0.027777777777778,3.10526315789474,0,0.111111111111111,3.10526315789474,0,0.694444444444444,1.0,ReadingArea_rsl0-rcl2-esl310-rsm0-rcm11-esm310-rsr0-rcr69-esr100,exr/ReadingArea_rsl0-rcl2-esl310-rsm0-rcm11-esm310-rsr0-rcr69-esr100.exr,ReadingArea_rsl0-rcl2-esl310-rsm0-rcm11-esm310-rsr0-rcr69-esr100.npz,,,,,0,54,54,295,,left,green,2.99,342.62441086769104,,343.06180000305176,,1,3,6,lightness,readingArea,realistic,75,2023-03-18_15h26.29.599,tripletExp_regina_11082022,2022.2.4,120.32508943401965,
8,11,1,0,0.25,1.0,0,1.0,1.0,0,0.111111111111111,0.298245614035088,ReadingArea_rsl0-rcl25-esl100-rsm0-rcm100-esm100-rsr0-rcr11-esr29,exr/ReadingArea_rsl0-rcl25-esl100-rsm0-rcm100-esm100-rsr0-rcr11-esr29.exr,ReadingArea_rsl0-rcl25-esl100-rsm0-rcm100-esm100-rsr0-rcr11-esr29.npz,,,,,0,55,55,132,,left,green,0.96,344.7812819480896,,,,1,3,6,lightness,readingArea,realistic,75,2023-03-18_15h26.29.599,tripletExp_regina_11082022,2022.2.4,120.32508943401965,
12,6,7,0,0.027777777777778,3.10526315789474,0,0.027777777777778,1.0,0,0.111111111111111,1.0,ReadingArea_rsl0-rcl2-esl310-rsm0-rcm2-esm100-rsr0-rcr11-esr100,exr/ReadingArea_rsl0-rcl2-esl310-rsm0-rcm2-esm100-rsr0-rcr11-esr100.exr,ReadingArea_rsl0-rcl2-esl310-rsm0-rcm2-esm100-rsr0-rcr11-esr100.npz,,,,,0,56,56,308,,left,green,1.41,346.97025299072266,,347.40344882011414,,1,3,6,lightness,readingArea,realistic,75,2023-03-18_15h26.29.599,tripletExp_regina_11082022,2022.2.4,120.32508943401965,
1,9,8,0,0.111111111111111,0.298245614035088,0,0.444444444444444,1.0,0,0.25,1.0,ReadingArea_rsl0-rcl11-esl29-rsm0-rcm44-esm100-rsr0-rcr25-esr100,exr/ReadingArea_rsl0-rcl11-esl29-rsm0-rcm44-esm100-rsr0-rcr25-esr100.exr,ReadingArea_rsl0-rcl11-esl29-rsm0-rcm44-esm100-rsr0-rcr25-esr100.npz,,,,,0,57,57,268,,right,red,1.28,349.0956168174744,,349.51979303359985,,1,3,6,lightness,readingArea,realistic,75,2023-03-18_15h26.29.599,tripletExp_regina_11082022,2022.2.4,120.32508943401965,
2,14,8,0,0.25,0.298245614035088,0,0.25,3.10526315789474,0,0.25,1.0,ReadingArea_rsl0-rcl25-esl29-rsm0-rcm25-esm310-rsr0-rcr25-esr100,exr/ReadingArea_rsl0-rcl25-esl29-rsm0-rcm25-esm310-rsr0-rcr25-esr100.exr,ReadingArea_rsl0-rcl25-esl29-rsm0-rcm25-esm310-rsr0-rcr25-esr100.npz,,,,,0,58,58,255,,right,red,1.24,351.2246608734131,,351.76846289634705,,1,3,6,lightness,readingArea,realistic,75,2023-03-18_15h26.29.599,tripletExp_regina_11082022,2022.2.4,120.32508943401965,
5,14,3,0,1.0,0.298245614035088,0,0.25,3.10526315789474,0,0.444444444444444,0.298245614035088,ReadingArea_rsl0-rcl100-esl29-rsm0-rcm25-esm310-rsr0-rcr44-esr29,exr/ReadingArea_rsl0-rcl100-esl29-rsm0-rcm25-esm310-rsr0-rcr44-esr29.exr,ReadingArea_rsl0-rcl100-esl29-rsm0-rcm25-esm310-rsr0-rcr44-esr29.npz,,,,,0,59,59,93,,left,green,0.92,353.4871299266815,,353.9225218296051,,1,3,6,lightness,readingArea,realistic,75,2023-03-18_15h26.29.599,tripletExp_regina_11082022,2022.2.4,120.32508943401965,
14,5,13,0,0.25,3.10526315789474,0,1.0,0.298245614035088,0,0.111111111111111,3.10526315789474,ReadingArea_rsl0-rcl25-esl310-rsm0-rcm100-esm29-rsr0-rcr11-esr310,exr/ReadingArea_rsl0-rcl25-esl310-rsm0-rcm100-esm29-rsr0-rcr11-esr310.exr,ReadingArea_rsl0-rcl25-esl310-rsm0-rcm100-esm29-rsr0-rcr11-esr310.npz,,,,,0,60,60,524,,right,red,1.38,355.6146469116211,,356.0208578109741,,1,3,6,lightness,readingArea,realistic,75,2023-03-18_15h26.29.599,tripletExp_regina_11082022,2022.2.4,120.32508943401965,
13,4,0,0,0.111111111111111,3.10526315789474,0,0.694444444444444,0.298245614035088,0,0.027777777777778,0.298245614035088,ReadingArea_rsl0-rcl11-esl310-rsm0-rcm69-esm29-rsr0-rcr2-esr29,exr/ReadingArea_rsl0-rcl11-esl310-rsm0-rcm69-esm29-rsr0-rcr2-esr29.exr,ReadingArea_rsl0-rcl11-esl310-rsm0-rcm69-esm29-rsr0-rcr2-esr29.npz,,,,,0,61,61,269,,left,green,0.75,357.7148308753968,,358.0985469818115,,1,3,6,lightness,readingArea,realistic,75,2023-03-18_15h26.29.599,tripletExp_regina_11082022,2022.2.4,120.32508943401965,
8,6,0,0,0.25,1.0,0,0.027777777777778,1.0,0,0.027777777777778,0.298245614035088,ReadingArea_rsl0-rcl25-esl100-rsm0-rcm2-esm100-rsr0-rcr2-esr29,exr/ReadingArea_rsl0-rcl25-esl100-rsm0-rcm2-esm100-rsr0-rcr2-esr29.exr,ReadingArea_rsl0-rcl25-esl100-rsm0-rcm2-esm100-rsr0-rcr2-esr29.npz,,,,,0,62,62,187,,right,red,0.72,359.82121682167053,,360.26622581481934,,1,3,6,lightness,readingArea,realistic,75,2023-03-18_15h26.29.599,tripletExp_regina_11082022,2022.2.4,120.32508943401965,
10,0,8,0,0.694444444444444,1.0,0,0.027777777777778,0.298245614035088,0,0.25,1.0,ReadingArea_rsl0-rcl69-esl100-rsm0-rcm2-esm29-rsr0-rcr25-esr100,exr/ReadingArea_rsl0-rcl69-esl100-rsm0-rcm2-esm29-rsr0-rcr25-esr100.exr,ReadingArea_rsl0-rcl69-esl100-rsm0-rcm2-esm29-rsr0-rcr25-esr100.npz,,,,,0,63,63,552,,right,red,1.06,361.9570229053497,,362.3746869564056,,1,3,6,lightness,readingArea,realistic,75,2023-03-18_15h26.29.599,tripletExp_regina_11082022,2022.2.4,120.32508943401965,
12,2,9,0,0.027777777777778,3.10526315789474,0,0.25,0.298245614035088,0,0.444444444444444,1.0,ReadingArea_rsl0-rcl2-esl310-rsm0-rcm25-esm29-rsr0-rcr44-esr100,exr/ReadingArea_rsl0-rcl2-esl310-rsm0-rcm25-esm29-rsr0-rcr44-esr100.exr,ReadingArea_rsl0-rcl2-esl310-rsm0-rcm25-esm29-rsr0-rcr44-esr100.npz,,,,,0,64,64,495,,left,green,0.74,364.0811448097229,,364.5096929073334,,1,3,6,lightness,readingArea,realistic,75,2023-03-18_15h26.29.599,tripletExp_regina_11082022,2022.2.4,120.32508943401965,
4,6,3,0,0.694444444444444,0.298245614035088,0,0.027777777777778,1.0,0,0.444444444444444,0.298245614035088,ReadingArea_rsl0-rcl69-esl29-rsm0-rcm2-esm100-rsr0-rcr44-esr29,exr/ReadingArea_rsl0-rcl69-esl29-rsm0-rcm2-esm100-rsr0-rcr44-esr29.exr,ReadingArea_rsl0-rcl69-esl29-rsm0-rcm2-esm100-rsr0-rcr44-esr29.npz,,,,,0,65,65,344,,right,red,1.23,366.2299928665161,,366.67112493515015,,1,3,6,lightness,readingArea,realistic,75,2023-03-18_15h26.29.599,tripletExp_regina_11082022,2022.2.4,120.32508943401965,
13,11,10,0,0.111111111111111,3.10526315789474,0,1.0,1.0,0,0.694444444444444,1.0,ReadingArea_rsl0-rcl11-esl310-rsm0-rcm100-esm100-rsr0-rcr69-esr100,exr/ReadingArea_rsl0-rcl11-esl310-rsm0-rcm100-esm100-rsr0-rcr69-esr100.exr,ReadingArea_rsl0-rcl11-esl310-rsm0-rcm100-esm100-rsr0-rcr69-esr100.npz,,,,,0,66,66,577,,right,red,0.95,368.3614180088043,,368.7842178344727,,1,3,6,lightness,readingArea,realistic,75,2023-03-18_15h26.29.599,tripletExp_regina_11082022,2022.2.4,120.32508943401965,
9,8,0,0,0.444444444444444,1.0,0,0.25,1.0,0,0.027777777777778,0.298245614035088,ReadingArea_rsl0-rcl44-esl100-rsm0-rcm25-esm100-rsr0-rcr2-esr29,exr/ReadingArea_rsl0-rcl44-esl100-rsm0-rcm25-esm100-rsr0-rcr2-esr29.exr,ReadingArea_rsl0-rcl44-esl100-rsm0-rcm25-esm100-rsr0-rcr2-esr29.npz,,,,,0,67,67,66,,left,green,0.67,370.4761040210724,,370.955482006073,,1,3,6,lightness,readingArea,realistic,75,2023-03-18_15h26.29.599,tripletExp_regina_11082022,2022.2.4,120.32508943401965,
7,14,5,0,0.111111111111111,1.0,0,0.25,3.10526315789474,0,1.0,0.298245614035088,ReadingArea_rsl0-rcl11-esl100-rsm0-rcm25-esm310-rsr0-rcr100-esr29,exr/ReadingArea_rsl0-rcl11-esl100-rsm0-rcm25-esm310-rsr0-rcr100-esr29.exr,ReadingArea_rsl0-rcl11-esl100-rsm0-rcm25-esm310-rsr0-rcr100-esr29.npz,,,,,0,68,68,372,,right,red,0.71,372.6506450176239,,373.0853998661041,,1,3,6,lightness,readingArea,realistic,75,2023-03-18_15h26.29.599,tripletExp_regina_11082022,2022.2.4,120.32508943401965,
14,0,9,0,0.25,3.10526315789474,0,0.027777777777778,0.298245614035088,0,0.444444444444444,1.0,ReadingArea_rsl0-rcl25-esl310-rsm0-rcm2-esm29-rsr0-rcr44-esr100,exr/ReadingArea_rsl0-rcl25-esl310-rsm0-rcm2-esm29-rsr0-rcr44-esr100.exr,ReadingArea_rsl0-rcl25-esl310-rsm0-rcm2-esm29-rsr0-rcr44-esr100.npz,,,,,0,69,69,90,,right,red,1.4,374.7881729602814,,375.2010028362274,,1,3,6,lightness,readingArea,realistic,75,2023-03-18_15h26.29.599,tripletExp_regina_11082022,2022.2.4,120.32508943401965,
3,13,1,0,0.444444444444444,0.298245614035088,0,0.111111111111111,3.10526315789474,0,0.111111111111111,0.298245614035088,ReadingArea_rsl0-rcl44-esl29-rsm0-rcm11-esm310-rsr0-rcr11-esr29,exr/ReadingArea_rsl0-rcl44-esl29-rsm0-rcm11-esm310-rsr0-rcr11-esr29.exr,ReadingArea_rsl0-rcl44-esl29-rsm0-rcm11-esm310-rsr0-rcr11-esr29.npz,,,,,0,70,70,421,,left,green,0.78,376.8924648761749,,377.32546281814575,,1,3,6,lightness,readingArea,realistic,75,2023-03-18_15h26.29.599,tripletExp_regina_11082022,2022.2.4,120.32508943401965,
4,10,11,0,0.694444444444444,0.298245614035088,0,0.694444444444444,1.0,0,1.0,1.0,ReadingArea_rsl0-rcl69-esl29-rsm0-rcm69-esm100-rsr0-rcr100-esr100,exr/ReadingArea_rsl0-rcl69-esl29-rsm0-rcm69-esm100-rsr0-rcr100-esr100.exr,ReadingArea_rsl0-rcl69-esl29-rsm0-rcm69-esm100-rsr0-rcr100-esr100.npz,,,,,0,71,71,180,,right,red,0.73,379.0445740222931,,,,1,3,6,lightness,readingArea,realistic,75,2023-03-18_15h26.29.599,tripletExp_regina_11082022,2022.2.4,120.32508943401965,
6,11,8,0,0.027777777777778,1.0,0,1.0,1.0,0,0.25,1.0,ReadingArea_rsl0-rcl2-esl100-rsm0-rcm100-esm100-rsr0-rcr25-esr100,exr/ReadingArea_rsl0-rcl2-esl100-rsm0-rcm100-esm100-rsr0-rcr25-esr100.exr,ReadingArea_rsl0-rcl2-esl100-rsm0-rcm100-esm100-rsr0-rcr25-esr100.npz,,,,,0,72,72,176,,right,red,0.72,381.1838200092316,,381.6012029647827,,1,3,6,lightness,readingArea,realistic,75,2023-03-18_15h26.29.599,tripletExp_regina_11082022,2022.2.4,120.32508943401965,
2,0,3,0,0.25,0.298245614035088,0,0.027777777777778,0.298245614035088,0,0.444444444444444,0.298245614035088,ReadingArea_rsl0-rcl25-esl29-rsm0-rcm2-esm29-rsr0-rcr44-esr29,exr/ReadingArea_rsl0-rcl25-esl29-rsm0-rcm2-esm29-rsr0-rcr44-esr29.exr,ReadingArea_rsl0-rcl25-esl29-rsm0-rcm2-esm29-rsr0-rcr44-esr29.npz,,,,,0,73,73,338,,left,green,1.4,383.2965278625488,,383.7724850177765,,1,3,6,lightness,readingArea,realistic,75,2023-03-18_15h26.29.599,tripletExp_regina_11082022,2022.2.4,120.32508943401965,
10,6,3,0,0.694444444444444,1.0,0,0.027777777777778,1.0,0,0.444444444444444,0.298245614035088,ReadingArea_rsl0-rcl69-esl100-rsm0-rcm2-esm100-rsr0-rcr44-esr29,exr/ReadingArea_rsl0-rcl69-esl100-rsm0-rcm2-esm100-rsr0-rcr44-esr29.exr,ReadingArea_rsl0-rcl69-esl100-rsm0-rcm2-esm100-rsr0-rcr44-esr29.npz,,,,,0,74,74,0,,right,red,0.93,385.4752378463745,,385.67800998687744,,1,3,6,lightness,readingArea,realistic,75,2023-03-18_15h26.29.599,tripletExp_regina_11082022,2022.2.4,120.32508943401965,
14,13,2,0,0.25,3.10526315789474,0,0.111111111111111,3.10526315789474,0,0.25,0.298245614035088,ReadingArea_rsl0-rcl25-esl310-rsm0-rcm11-esm310-rsr0-rcr25-esr29,exr/ReadingArea_rsl0-rcl25-esl310-rsm0-rcm11-esm310-rsr0-rcr25-esr29.exr,ReadingArea_rsl0-rcl25-esl310-rsm0-rcm11-esm310-rsr0-rcr25-esr29.npz,,,,,0,75,75,377,,right,red,3.24,390.1856029033661,,390.6304199695587,,2,3,6,lightness,readingArea,realistic,75,2023-03-18_15h26.29.599,tripletExp_regina_11082022,2022.2.4,120.32508943401965,
8,12,3,0,0.25,1.0,0,0.027777777777778,3.10526315789474,0,0.444444444444444,0.298245614035088,ReadingArea_rsl0-rcl25-esl100-rsm0-rcm2-esm310-rsr0-rcr44-esr29,exr/ReadingArea_rsl0-rcl25-esl100-rsm0-rcm2-esm310-rsr0-rcr44-esr29.exr,ReadingArea_rsl0-rcl25-esl100-rsm0-rcm2-esm310-rsr0-rcr44-esr29.npz,,,,,0,76,76,6,,right,red,1.3,392.3184118270874,,392.730260848999,,2,3,6,lightness,readingArea,realistic,75,2023-03-18_15h26.29.599,tripletExp_regina_11082022,2022.2.4,120.32508943401965,
11,6,14,0,1.0,1.0,0,0.027777777777778,1.0,0,0.25,3.10526315789474,ReadingArea_rsl0-rcl100-esl100-rsm0-rcm2-esm100-rsr0-rcr25-esr310,exr/ReadingArea_rsl0-rcl100-esl100-rsm0-rcm2-esm100-rsr0-rcr25-esr310.exr,ReadingArea_rsl0-rcl100-esl100-rsm0-rcm2-esm100-rsr0-rcr25-esr310.npz,,,,,0,77,77,305,,right,red,1.56,394.419821023941,,394.86212491989136,,2,3,6,lightness,readingArea,realistic,75,2023-03-18_15h26.29.599,tripletExp_regina_11082022,2022.2.4,120.32508943401965,
4,8,0,0,0.694444444444444,0.298245614035088,0,0.25,1.0,0,0.027777777777778,0.298245614035088,ReadingArea_rsl0-rcl69-esl29-rsm0-rcm25-esm100-rsr0-rcr2-esr29,exr/ReadingArea_rsl0-rcl69-esl29-rsm0-rcm25-esm100-rsr0-rcr2-esr29.exr,ReadingArea_rsl0-rcl69-esl29-rsm0-rcm25-esm100-rsr0-rcr2-esr29.npz,,,,,0,78,78,137,,left,green,0.92,396.5773298740387,,397.0179920196533,,2,3,6,lightness,readingArea,realistic,75,2023-03-18_15h26.29.599,tripletExp_regina_11082022,2022.2.4,120.32508943401965,
8,10,6,0,0.25,1.0,0,0.694444444444444,1.0,0,0.027777777777778,1.0,ReadingArea_rsl0-rcl25-esl100-rsm0-rcm69-esm100-rsr0-rcr2-esr100,exr/ReadingArea_rsl0-rcl25-esl100-rsm0-rcm69-esm100-rsr0-rcr2-esr100.exr,ReadingArea_rsl0-rcl25-esl100-rsm0-rcm69-esm100-rsr0-rcr2-esr100.npz,,,,,0,79,79,129,,left,green,0.89,398.7089149951935,,399.21079683303833,,2,3,6,lightness,readingArea,realistic,75,2023-03-18_15h26.29.599,tripletExp_regina_11082022,2022.2.4,120.32508943401965,
12,13,14,0,0.027777777777778,3.10526315789474,0,0.111111111111111,3.10526315789474,0,0.25,3.10526315789474,ReadingArea_rsl0-rcl2-esl310-rsm0-rcm11-esm310-rsr0-rcr25-esr310,exr/ReadingArea_rsl0-rcl2-esl310-rsm0-rcm11-esm310-rsr0-rcr25-esr310.exr,ReadingArea_rsl0-rcl2-esl310-rsm0-rcm11-esm310-rsr0-rcr25-esr310.npz,,,,,0,80,80,208,,left,green,1.5,400.91047382354736,,401.3948550224304,,2,3,6,lightness,readingArea,realistic,75,2023-03-18_15h26.29.599,tripletExp_regina_11082022,2022.2.4,120.32508943401965,
7,1,9,0,0.111111111111111,1.0,0,0.111111111111111,0.298245614035088,0,0.444444444444444,1.0,ReadingArea_rsl0-rcl11-esl100-rsm0-rcm11-esm29-rsr0-rcr44-esr100,exr/ReadingArea_rsl0-rcl11-esl100-rsm0-rcm11-esm29-rsr0-rcr44-esr100.exr,ReadingArea_rsl0-rcl11-esl100-rsm0-rcm11-esm29-rsr0-rcr44-esr100.npz,,,,,0,81,81,89,,left,green,1.24,403.0824959278106,,,,2,3,6,lightness,readingArea,realistic,75,2023-03-18_15h26.29.599,tripletExp_regina_11082022,2022.2.4,120.32508943401965,
4,11,14,0,0.694444444444444,0.298245614035088,0,1.0,1.0,0,0.25,3.10526315789474,ReadingArea_rsl0-rcl69-esl29-rsm0-rcm100-esm100-rsr0-rcr25-esr310,exr/ReadingArea_rsl0-rcl69-esl29-rsm0-rcm100-esm100-rsr0-rcr25-esr310.exr,ReadingArea_rsl0-rcl69-esl29-rsm0-rcm100-esm100-rsr0-rcr25-esr310.npz,,,,,0,82,82,165,,right,red,0.9,405.1944169998169,,405.6092128753662,,2,3,6,lightness,readingArea,realistic,75,2023-03-18_15h26.29.599,tripletExp_regina_11082022,2022.2.4,120.32508943401965,
11,12,1,0,1.0,1.0,0,0.027777777777778,3.10526315789474,0,0.111111111111111,0.298245614035088,ReadingArea_rsl0-rcl100-esl100-rsm0-rcm2-esm310-rsr0-rcr11-esr29,exr/ReadingArea_rsl0-rcl100-esl100-rsm0-rcm2-esm310-rsr0-rcr11-esr29.exr,ReadingArea_rsl0-rcl100-esl100-rsm0-rcm2-esm310-rsr0-rcr11-esr29.npz,,,,,0,83,83,140,,right,red,0.99,407.3073439598084,,,,2,3,6,lightness,readingArea,realistic,75,2023-03-18_15h26.29.599,tripletExp_regina_11082022,2022.2.4,120.32508943401965,
10,2,0,0,0.694444444444444,1.0,0,0.25,0.298245614035088,0,0.027777777777778,0.298245614035088,ReadingArea_rsl0-rcl69-esl100-rsm0-rcm25-esm29-rsr0-rcr2-esr29,exr/ReadingArea_rsl0-rcl69-esl100-rsm0-rcm25-esm29-rsr0-rcr2-esr29.exr,ReadingArea_rsl0-rcl69-esl100-rsm0-rcm25-esm29-rsr0-rcr2-esr29.npz,,,,,0,84,84,427,,right,red,1.08,409.5491888523102,,409.9961688518524,,2,3,6,lightness,readingArea,realistic,75,2023-03-18_15h26.29.599,tripletExp_regina_11082022,2022.2.4,120.32508943401965,
0,9,11,0,0.027777777777778,0.298245614035088,0,0.444444444444444,1.0,0,1.0,1.0,ReadingArea_rsl0-rcl2-esl29-rsm0-rcm44-esm100-rsr0-rcr100-esr100,exr/ReadingArea_rsl0-rcl2-esl29-rsm0-rcm44-esm100-rsr0-rcr100-esr100.exr,ReadingArea_rsl0-rcl2-esl29-rsm0-rcm44-esm100-rsr0-rcr100-esr100.npz,,,,,0,85,85,448,,right,red,1.55,411.69642186164856,,412.14684891700745,,2,3,6,lightness,readingArea,realistic,75,2023-03-18_15h26.29.599,tripletExp_regina_11082022,2022.2.4,120.32508943401965,
12,1,2,0,0.027777777777778,3.10526315789474,0,0.111111111111111,0.298245614035088,0,0.25,0.298245614035088,ReadingArea_rsl0-rcl2-esl310-rsm0-rcm11-esm29-rsr0-rcr25-esr29,exr/ReadingArea_rsl0-rcl2-esl310-rsm0-rcm11-esm29-rsr0-rcr25-esr29.exr,ReadingArea_rsl0-rcl2-esl310-rsm0-rcm11-esm29-rsr0-rcr25-esr29.npz,,,,,0,86,86,231,,left,green,4.45,417.3884630203247,,417.8312640190125,,2,3,6,lightness,readingArea,realistic,75,2023-03-18_15h26.29.599,tripletExp_regina_11082022,2022.2.4,120.32508943401965,
4,1,3,0,0.694444444444444,0.298245614035088,0,0.111111111111111,0.298245614035088,0,0.444444444444444,0.298245614035088,ReadingArea_rsl0-rcl69-esl29-rsm0-rcm11-esm29-rsr0-rcr44-esr29,exr/ReadingArea_rsl0-rcl69-esl29-rsm0-rcm11-esm29-rsr0-rcr44-esr29.exr,ReadingArea_rsl0-rcl69-esl29-rsm0-rcm11-esm29-rsr0-rcr44-esr29.npz,,,,,0,87,87,70,,right,red,1.6,419.5292479991913,,419.9368689060211,,2,3,6,lightness,readingArea,realistic,75,2023-03-18_15h26.29.599,tripletExp_regina_11082022,2022.2.4,120.32508943401965,
3,14,5,0,0.444444444444444,0.298245614035088,0,0.25,3.10526315789474,0,1.0,0.298245614035088,ReadingArea_rsl0-rcl44-esl29-rsm0-rcm25-esm310-rsr0-rcr100-esr29,exr/ReadingArea_rsl0-rcl44-esl29-rsm0-rcm25-esm310-rsr0-rcr100-esr29.exr,ReadingArea_rsl0-rcl44-esl29-rsm0-rcm25-esm310-rsr0-rcr100-esr29.npz,,,,,0,88,88,131,,right,red,1.43,421.6363959312439,,422.0739798545837,,2,3,6,lightness,readingArea,realistic,75,2023-03-18_15h26.29.599,tripletExp_regina_11082022,2022.2.4,120.32508943401965,
12,0,2,0,0.027777777777778,3.10526315789474,0,0.027777777777778,0.298245614035088,0,0.25,0.298245614035088,ReadingArea_rsl0-rcl2-esl310-rsm0-rcm2-esm29-rsr0-rcr25-esr29,exr/ReadingArea_rsl0-rcl2-esl310-rsm0-rcm2-esm29-rsr0-rcr25-esr29.exr,ReadingArea_rsl0-rcl2-esl310-rsm0-rcm2-esm29-rsr0-rcr25-esr29.npz,,,,,0,89,89,77,,left,green,3.36,425.5439100265503,,,,2,3,6,lightness,readingArea,realistic,75,2023-03-18_15h26.29.599,tripletExp_regina_11082022,2022.2.4,120.32508943401965,
2,14,7,0,0.25,0.298245614035088,0,0.25,3.10526315789474,0,0.111111111111111,1.0,ReadingArea_rsl0-rcl25-esl29-rsm0-rcm25-esm310-rsr0-rcr11-esr100,exr/ReadingArea_rsl0-rcl25-esl29-rsm0-rcm25-esm310-rsr0-rcr11-esr100.exr,ReadingArea_rsl0-rcl25-esl29-rsm0-rcm25-esm310-rsr0-rcr11-esr100.npz,,,,,0,90,90,310,,right,red,2.76,429.483274936676,,429.90107583999634,,2,3,6,lightness,readingArea,realistic,75,2023-03-18_15h26.29.599,tripletExp_regina_11082022,2022.2.4,120.32508943401965,
2,4,13,0,0.25,0.298245614035088,0,0.694444444444444,0.298245614035088,0,0.111111111111111,3.10526315789474,ReadingArea_rsl0-rcl25-esl29-rsm0-rcm69-esm29-rsr0-rcr11-esr310,exr/ReadingArea_rsl0-rcl25-esl29-rsm0-rcm69-esm29-rsr0-rcr11-esr310.exr,ReadingArea_rsl0-rcl25-esl29-rsm0-rcm69-esm29-rsr0-rcr11-esr310.npz,,,,,0,91,91,325,,right,red,1.25,431.5942118167877,,432.0292320251465,,2,3,6,lightness,readingArea,realistic,75,2023-03-18_15h26.29.599,tripletExp_regina_11082022,2022.2.4,120.32508943401965,
14,3,2,0,0.25,3.10526315789474,0,0.444444444444444,0.298245614035088,0,0.25,0.298245614035088,ReadingArea_rsl0-rcl25-esl310-rsm0-rcm44-esm29-rsr0-rcr25-esr29,exr/ReadingArea_rsl0-rcl25-esl310-rsm0-rcm44-esm29-rsr0-rcr25-esr29.exr,ReadingArea_rsl0-rcl25-esl310-rsm0-rcm44-esm29-rsr0-rcr25-esr29.npz,,,,,0,92,92,52,,left,green,1.24,433.7367799282074,,,,2,3,6,lightness,readingArea,realistic,75,2023-03-18_15h26.29.599,tripletExp_regina_11082022,2022.2.4,120.32508943401965,
0,5,2,0,0.027777777777778,0.298245614035088,0,1.0,0.298245614035088,0,0.25,0.298245614035088,ReadingArea_rsl0-rcl2-esl29-rsm0-rcm100-esm29-rsr0-rcr25-esr29,exr/ReadingArea_rsl0-rcl2-esl29-rsm0-rcm100-esm29-rsr0-rcr25-esr29.exr,ReadingArea_rsl0-rcl2-esl29-rsm0-rcm100-esm29-rsr0-rcr25-esr29.npz,,,,,0,93,93,25,,right,red,0.96,435.8764679431915,,436.3226358890533,,2,3,6,lightness,readingArea,realistic,75,2023-03-18_15h26.29.599,tripletExp_regina_11082022,2022.2.4,120.32508943401965,
10,7,11,0,0.694444444444444,1.0,0,0.111111111111111,1.0,0,1.0,1.0,ReadingArea_rsl0-rcl69-esl100-rsm0-rcm11-esm100-rsr0-rcr100-esr100,exr/ReadingArea_rsl0-rcl69-esl100-rsm0-rcm11-esm100-rsr0-rcr100-esr100.exr,ReadingArea_rsl0-rcl69-esl100-rsm0-rcm11-esm100-rsr0-rcr100-esr100.npz,,,,,0,94,94,542,,left,green,1.52,438.0154449939728,,438.4648849964142,,2,3,6,lightness,readingArea,realistic,75,2023-03-18_15h26.29.599,tripletExp_regina_11082022,2022.2.4,120.32508943401965,
6,10,11,0,0.027777777777778,1.0,0,0.694444444444444,1.0,0,1.0,1.0,ReadingArea_rsl0-rcl2-esl100-rsm0-rcm69-esm100-rsr0-rcr100-esr100,exr/ReadingArea_rsl0-rcl2-esl100-rsm0-rcm69-esm100-rsr0-rcr100-esr100.exr,ReadingArea_rsl0-rcl2-esl100-rsm0-rcm69-esm100-rsr0-rcr100-esr100.npz,,,,,0,95,95,116,,right,red,0.82,440.1695380210877,,440.5880889892578,,2,3,6,lightness,readingArea,realistic,75,2023-03-18_15h26.29.599,tripletExp_regina_11082022,2022.2.4,120.32508943401965,
9,11,10,0,0.444444444444444,1.0,0,1.0,1.0,0,0.694444444444444,1.0,ReadingArea_rsl0-rcl44-esl100-rsm0-rcm100-esm100-rsr0-rcr69-esr100,exr/ReadingArea_rsl0-rcl44-esl100-rsm0-rcm100-esm100-rsr0-rcr69-esr100.exr,ReadingArea_rsl0-rcl44-esl100-rsm0-rcm100-esm100-rsr0-rcr69-esr100.npz,,,,,0,96,96,591,,right,red,0.76,442.2822790145874,,442.69767785072327,,2,3,6,lightness,readingArea,realistic,75,2023-03-18_15h26.29.599,tripletExp_regina_11082022,2022.2.4,120.32508943401965,
8,12,13,0,0.25,1.0,0,0.027777777777778,3.10526315789474,0,0.111111111111111,3.10526315789474,ReadingArea_rsl0-rcl25-esl100-rsm0-rcm2-esm310-rsr0-rcr11-esr310,exr/ReadingArea_rsl0-rcl25-esl100-rsm0-rcm2-esm310-rsr0-rcr11-esr310.exr,ReadingArea_rsl0-rcl25-esl100-rsm0-rcm2-esm310-rsr0-rcr11-esr310.npz,,,,,0,97,97,275,,right,red,4.57,447.927708864212,,448.366005897522,,2,3,6,lightness,readingArea,realistic,75,2023-03-18_15h26.29.599,tripletExp_regina_11082022,2022.2.4,120.32508943401965,
5,10,0,0,1.0,0.298245614035088,0,0.694444444444444,1.0,0,0.027777777777778,0.298245614035088,ReadingArea_rsl0-rcl100-esl29-rsm0-rcm69-esm100-rsr0-rcr2-esr29,exr/ReadingArea_rsl0-rcl100-esl29-rsm0-rcm69-esm100-rsr0-rcr2-esr29.exr,ReadingArea_rsl0-rcl100-esl29-rsm0-rcm69-esm100-rsr0-rcr2-esr29.npz,,,,,0,98,98,293,,left,green,1.09,450.05731081962585,,450.4858958721161,,2,3,6,lightness,readingArea,realistic,75,2023-03-18_15h26.29.599,tripletExp_regina_11082022,2022.2.4,120.32508943401965,
6,2,5,0,0.027777777777778,1.0,0,0.25,0.298245614035088,0,1.0,0.298245614035088,ReadingArea_rsl0-rcl2-esl100-rsm0-rcm25-esm29-rsr0-rcr100-esr29,exr/ReadingArea_rsl0-rcl2-esl100-rsm0-rcm25-esm29-rsr0-rcr100-esr29.exr,ReadingArea_rsl0-rcl2-esl100-rsm0-rcm25-esm29-rsr0-rcr100-esr29.npz,,,,,0,99,99,504,,right,red,3.4,453.9612998962402,,454.3882188796997,,2,3,6,lightness,readingArea,realistic,75,2023-03-18_15h26.29.599,tripletExp_regina_11082022,2022.2.4,120.32508943401965,
6,4,13,0,0.027777777777778,1.0,0,0.694444444444444,0.298245614035088,0,0.111111111111111,3.10526315789474,ReadingArea_rsl0-rcl2-esl100-rsm0-rcm69-esm29-rsr0-rcr11-esr310,exr/ReadingArea_rsl0-rcl2-esl100-rsm0-rcm69-esm29-rsr0-rcr11-esr310.exr,ReadingArea_rsl0-rcl2-esl100-rsm0-rcm69-esm29-rsr0-rcr11-esr310.npz,,,,,0,100,100,202,,right,red,0.81,456.0931179523468,,456.62222480773926,,2,3,6,lightness,readingArea,realistic,75,2023-03-18_15h26.29.599,tripletExp_regina_11082022,2022.2.4,120.32508943401965,
7,13,4,0,0.111111111111111,1.0,0,0.111111111111111,3.10526315789474,0,0.694444444444444,0.298245614035088,ReadingArea_rsl0-rcl11-esl100-rsm0-rcm11-esm310-rsr0-rcr69-esr29,exr/ReadingArea_rsl0-rcl11-esl100-rsm0-rcm11-esm310-rsr0-rcr69-esr29.exr,ReadingArea_rsl0-rcl11-esl100-rsm0-rcm11-esm310-rsr0-rcr69-esr29.npz,,,,,0,101,101,456,,right,red,1.63,458.30974292755127,,458.73369884490967,,2,3,6,lightness,readingArea,realistic,75,2023-03-18_15h26.29.599,tripletExp_regina_11082022,2022.2.4,120.32508943401965,
11,7,14,0,1.0,1.0,0,0.111111111111111,1.0,0,0.25,3.10526315789474,ReadingArea_rsl0-rcl100-esl100-rsm0-rcm11-esm100-rsr0-rcr25-esr310,exr/ReadingArea_rsl0-rcl100-esl100-rsm0-rcm11-esm100-rsr0-rcr25-esr310.exr,ReadingArea_rsl0-rcl100-esl100-rsm0-rcm11-esm100-rsr0-rcr25-esr310.npz,,,,,0,102,102,119,,right,red,1.26,460.4502170085907,,460.8751149177551,,2,3,6,lightness,readingArea,realistic,75,2023-03-18_15h26.29.599,tripletExp_regina_11082022,2022.2.4,120.32508943401965,
2,3,13,0,0.25,0.298245614035088,0,0.444444444444444,0.298245614035088,0,0.111111111111111,3.10526315789474,ReadingArea_rsl0-rcl25-esl29-rsm0-rcm44-esm29-rsr0-rcr11-esr310,exr/ReadingArea_rsl0-rcl25-esl29-rsm0-rcm44-esm29-rsr0-rcr11-esr310.exr,ReadingArea_rsl0-rcl25-esl29-rsm0-rcm44-esm29-rsr0-rcr11-esr310.npz,,,,,0,103,103,498,,right,red,0.81,462.5948069095612,,463.0247519016266,,2,3,6,lightness,readingArea,realistic,75,2023-03-18_15h26.29.599,tripletExp_regina_11082022,2022.2.4,120.32508943401965,
1,13,8,0,0.111111111111111,0.298245614035088,0,0.111111111111111,3.10526315789474,0,0.25,1.0,ReadingArea_rsl0-rcl11-esl29-rsm0-rcm11-esm310-rsr0-rcr25-esr100,exr/ReadingArea_rsl0-rcl11-esl29-rsm0-rcm11-esm310-rsr0-rcr25-esr100.exr,ReadingArea_rsl0-rcl11-esl29-rsm0-rcm11-esm310-rsr0-rcr25-esr100.npz,,,,,0,104,104,64,,right,red,1.57,464.7430279254913,,465.155061006546,,2,3,6,lightness,readingArea,realistic,75,2023-03-18_15h26.29.599,tripletExp_regina_11082022,2022.2.4,120.32508943401965,
8,9,1,0,0.25,1.0,0,0.444444444444444,1.0,0,0.111111111111111,0.298245614035088,ReadingArea_rsl0-rcl25-esl100-rsm0-rcm44-esm100-rsr0-rcr11-esr29,exr/ReadingArea_rsl0-rcl25-esl100-rsm0-rcm44-esm100-rsr0-rcr11-esr29.exr,ReadingArea_rsl0-rcl25-esl100-rsm0-rcm44-esm100-rsr0-rcr11-esr29.npz,,,,,0,105,105,266,,left,green,0.98,466.8443360328674,,467.2914469242096,,2,3,6,lightness,readingArea,realistic,75,2023-03-18_15h26.29.599,tripletExp_regina_11082022,2022.2.4,120.32508943401965,
2,12,13,0,0.25,0.298245614035088,0,0.027777777777778,3.10526315789474,0,0.111111111111111,3.10526315789474,ReadingArea_rsl0-rcl25-esl29-rsm0-rcm2-esm310-rsr0-rcr11-esr310,exr/ReadingArea_rsl0-rcl25-esl29-rsm0-rcm2-esm310-rsr0-rcr11-esr310.exr,ReadingArea_rsl0-rcl25-esl29-rsm0-rcm2-esm310-rsr0-rcr11-esr310.npz,,,,,0,106,106,232,,left,green,1.11,468.9940078258514,,469.4405689239502,,2,3,6,lightness,readingArea,realistic,75,2023-03-18_15h26.29.599,tripletExp_regina_11082022,2022.2.4,120.32508943401965,
6,1,10,0,0.027777777777778,1.0,0,0.111111111111111,0.298245614035088,0,0.694444444444444,1.0,ReadingArea_rsl0-rcl2-esl100-rsm0-rcm11-esm29-rsr0-rcr69-esr100,exr/ReadingArea_rsl0-rcl2-esl100-rsm0-rcm11-esm29-rsr0-rcr69-esr100.exr,ReadingArea_rsl0-rcl2-esl100-rsm0-rcm11-esm29-rsr0-rcr69-esr100.npz,,,,,0,107,107,561,,left,green,0.75,471.1518309116364,,471.5680439472199,,2,3,6,lightness,readingArea,realistic,75,2023-03-18_15h26.29.599,tripletExp_regina_11082022,2022.2.4,120.32508943401965,
6,4,0,0,0.027777777777778,1.0,0,0.694444444444444,0.298245614035088,0,0.027777777777778,0.298245614035088,ReadingArea_rsl0-rcl2-esl100-rsm0-rcm69-esm29-rsr0-rcr2-esr29,exr/ReadingArea_rsl0-rcl2-esl100-rsm0-rcm69-esm29-rsr0-rcr2-esr29.exr,ReadingArea_rsl0-rcl2-esl100-rsm0-rcm69-esm29-rsr0-rcr2-esr29.npz,,,,,0,108,108,360,,left,green,1.35,473.26412296295166,,473.6988558769226,,2,3,6,lightness,readingArea,realistic,75,2023-03-18_15h26.29.599,tripletExp_regina_11082022,2022.2.4,120.32508943401965,
6,4,10,0,0.027777777777778,1.0,0,0.694444444444444,0.298245614035088,0,0.694444444444444,1.0,ReadingArea_rsl0-rcl2-esl100-rsm0-rcm69-esm29-rsr0-rcr69-esr100,exr/ReadingArea_rsl0-rcl2-esl100-rsm0-rcm69-esm29-rsr0-rcr69-esr100.exr,ReadingArea_rsl0-rcl2-esl100-rsm0-rcm69-esm29-rsr0-rcr69-esr100.npz,,,,,0,109,109,554,,left,green,1.62,475.3914530277252,,475.8246319293976,,2,3,6,lightness,readingArea,realistic,75,2023-03-18_15h26.29.599,tripletExp_regina_11082022,2022.2.4,120.32508943401965,
10,3,1,0,0.694444444444444,1.0,0,0.444444444444444,0.298245614035088,0,0.111111111111111,0.298245614035088,ReadingArea_rsl0-rcl69-esl100-rsm0-rcm44-esm29-rsr0-rcr11-esr29,exr/ReadingArea_rsl0-rcl69-esl100-rsm0-rcm44-esm29-rsr0-rcr11-esr29.exr,ReadingArea_rsl0-rcl69-esl100-rsm0-rcm44-esm29-rsr0-rcr11-esr29.npz,,,,,0,110,110,420,,right,red,3.12,479.2883098125458,,479.8480508327484,,2,3,6,lightness,readingArea,realistic,75,2023-03-18_15h26.29.599,tripletExp_regina_11082022,2022.2.4,120.32508943401965,
13,11,8,0,0.111111111111111,3.10526315789474,0,1.0,1.0,0,0.25,1.0,ReadingArea_rsl0-rcl11-esl310-rsm0-rcm100-esm100-rsr0-rcr25-esr100,exr/ReadingArea_rsl0-rcl11-esl310-rsm0-rcm100-esm100-rsr0-rcr25-esr100.exr,ReadingArea_rsl0-rcl11-esl310-rsm0-rcm100-esm100-rsr0-rcr25-esr100.npz,,,,,0,111,111,410,,right,red,3.25,483.31060695648193,,483.89202189445496,,2,3,6,lightness,readingArea,realistic,75,2023-03-18_15h26.29.599,tripletExp_regina_11082022,2022.2.4,120.32508943401965,
2,4,6,0,0.25,0.298245614035088,0,0.694444444444444,0.298245614035088,0,0.027777777777778,1.0,ReadingArea_rsl0-rcl25-esl29-rsm0-rcm69-esm29-rsr0-rcr2-esr100,exr/ReadingArea_rsl0-rcl25-esl29-rsm0-rcm69-esm29-rsr0-rcr2-esr100.exr,ReadingArea_rsl0-rcl25-esl29-rsm0-rcm69-esm29-rsr0-rcr2-esr100.npz,,,,,0,112,112,563,,left,green,1.03,485.58221888542175,,486.0300998687744,,2,3,6,lightness,readingArea,realistic,75,2023-03-18_15h26.29.599,tripletExp_regina_11082022,2022.2.4,120.32508943401965,
2,13,0,0,0.25,0.298245614035088,0,0.111111111111111,3.10526315789474,0,0.027777777777778,0.298245614035088,ReadingArea_rsl0-rcl25-esl29-rsm0-rcm11-esm310-rsr0-rcr2-esr29,exr/ReadingArea_rsl0-rcl25-esl29-rsm0-rcm11-esm310-rsr0-rcr2-esr29.exr,ReadingArea_rsl0-rcl25-esl29-rsm0-rcm11-esm310-rsr0-rcr2-esr29.npz,,,,,0,113,113,454,,left,green,0.83,487.7274329662323,,488.1657049655914,,2,3,6,lightness,readingArea,realistic,75,2023-03-18_15h26.29.599,tripletExp_regina_11082022,2022.2.4,120.32508943401965,
12,8,6,0,0.027777777777778,3.10526315789474,0,0.25,1.0,0,0.027777777777778,1.0,ReadingArea_rsl0-rcl2-esl310-rsm0-rcm25-esm100-rsr0-rcr2-esr100,exr/ReadingArea_rsl0-rcl2-esl310-rsm0-rcm25-esm100-rsr0-rcr2-esr100.exr,ReadingArea_rsl0-rcl2-esl310-rsm0-rcm25-esm100-rsr0-rcr2-esr100.npz,,,,,0,114,114,281,,left,green,1.3,489.86979699134827,,490.3164818286896,,2,3,6,lightness,readingArea,realistic,75,2023-03-18_15h26.29.599,tripletExp_regina_11082022,2022.2.4,120.32508943401965,
6,5,0,0,0.027777777777778,1.0,0,1.0,0.298245614035088,0,0.027777777777778,0.298245614035088,ReadingArea_rsl0-rcl2-esl100-rsm0-rcm100-esm29-rsr0-rcr2-esr29,exr/ReadingArea_rsl0-rcl2-esl100-rsm0-rcm100-esm29-rsr0-rcr2-esr29.exr,ReadingArea_rsl0-rcl2-esl100-rsm0-rcm100-esm29-rsr0-rcr2-esr29.npz,,,,,0,115,115,558,,left,green,1.2,492.0179059505463,,492.45249581336975,,2,3,6,lightness,readingArea,realistic,75,2023-03-18_15h26.29.599,tripletExp_regina_11082022,2022.2.4,120.32508943401965,
6,3,13,0,0.027777777777778,1.0,0,0.444444444444444,0.298245614035088,0,0.111111111111111,3.10526315789474,ReadingArea_rsl0-rcl2-esl100-rsm0-rcm44-esm29-rsr0-rcr11-esr310,exr/ReadingArea_rsl0-rcl2-esl100-rsm0-rcm44-esm29-rsr0-rcr11-esr310.exr,ReadingArea_rsl0-rcl2-esl100-rsm0-rcm44-esm29-rsr0-rcr11-esr310.npz,,,,,0,116,116,228,,right,red,0.91,494.16628193855286,,494.5888979434967,,2,3,6,lightness,readingArea,realistic,75,2023-03-18_15h26.29.599,tripletExp_regina_11082022,2022.2.4,120.32508943401965,
7,3,0,0,0.111111111111111,1.0,0,0.444444444444444,0.298245614035088,0,0.027777777777778,0.298245614035088,ReadingArea_rsl0-rcl11-esl100-rsm0-rcm44-esm29-rsr0-rcr2-esr29,exr/ReadingArea_rsl0-rcl11-esl100-rsm0-rcm44-esm29-rsr0-rcr2-esr29.exr,ReadingArea_rsl0-rcl11-esl100-rsm0-rcm44-esm29-rsr0-rcr2-esr29.npz,,,,,0,117,117,318,,left,green,0.68,496.3076248168945,,496.76239681243896,,2,3,6,lightness,readingArea,realistic,75,2023-03-18_15h26.29.599,tripletExp_regina_11082022,2022.2.4,120.32508943401965,
3,6,4,0,0.444444444444444,0.298245614035088,0,0.027777777777778,1.0,0,0.694444444444444,0.298245614035088,ReadingArea_rsl0-rcl44-esl29-rsm0-rcm2-esm100-rsr0-rcr69-esr29,exr/ReadingArea_rsl0-rcl44-esl29-rsm0-rcm2-esm100-rsr0-rcr69-esr29.exr,ReadingArea_rsl0-rcl44-esl29-rsm0-rcm2-esm100-rsr0-rcr69-esr29.npz,,,,,0,118,118,154,,left,green,1.61,498.4747188091278,,498.8987808227539,,2,3,6,lightness,readingArea,realistic,75,2023-03-18_15h26.29.599,tripletExp_regina_11082022,2022.2.4,120.32508943401965,
11,0,12,0,1.0,1.0,0,0.027777777777778,0.298245614035088,0,0.027777777777778,3.10526315789474,ReadingArea_rsl0-rcl100-esl100-rsm0-rcm2-esm29-rsr0-rcr2-esr310,exr/ReadingArea_rsl0-rcl100-esl100-rsm0-rcm2-esm29-rsr0-rcr2-esr310.exr,ReadingArea_rsl0-rcl100-esl100-rsm0-rcm2-esm29-rsr0-rcr2-esr310.npz,,,,,0,119,119,166,,right,red,0.78,500.6029479503632,,501.03715896606445,,2,3,6,lightness,readingArea,realistic,75,2023-03-18_15h26.29.599,tripletExp_regina_11082022,2022.2.4,120.32508943401965,
2,1,14,0,0.25,0.298245614035088,0,0.111111111111111,0.298245614035088,0,0.25,3.10526315789474,ReadingArea_rsl0-rcl25-esl29-rsm0-rcm11-esm29-rsr0-rcr25-esr310,exr/ReadingArea_rsl0-rcl25-esl29-rsm0-rcm11-esm29-rsr0-rcr25-esr310.exr,ReadingArea_rsl0-rcl25-esl29-rsm0-rcm11-esm29-rsr0-rcr25-esr310.npz,,,,,0,120,120,59,,left,green,0.71,502.73461389541626,,503.1700220108032,,2,3,6,lightness,readingArea,realistic,75,2023-03-18_15h26.29.599,tripletExp_regina_11082022,2022.2.4,120.32508943401965,
9,8,7,0,0.444444444444444,1.0,0,0.25,1.0,0,0.111111111111111,1.0,ReadingArea_rsl0-rcl44-esl100-rsm0-rcm25-esm100-rsr0-rcr11-esr100,exr/ReadingArea_rsl0-rcl44-esl100-rsm0-rcm25-esm100-rsr0-rcr11-esr100.exr,ReadingArea_rsl0-rcl44-esl100-rsm0-rcm25-esm100-rsr0-rcr11-esr100.npz,,,,,0,121,121,368,,left,green,3.12,506.633603811264,,507.08356285095215,,2,3,6,lightness,readingArea,realistic,75,2023-03-18_15h26.29.599,tripletExp_regina_11082022,2022.2.4,120.32508943401965,
4,0,1,0,0.694444444444444,0.298245614035088,0,0.027777777777778,0.298245614035088,0,0.111111111111111,0.298245614035088,ReadingArea_rsl0-rcl69-esl29-rsm0-rcm2-esm29-rsr0-rcr11-esr29,exr/ReadingArea_rsl0-rcl69-esl29-rsm0-rcm2-esm29-rsr0-rcr11-esr29.exr,ReadingArea_rsl0-rcl69-esl29-rsm0-rcm2-esm29-rsr0-rcr11-esr29.npz,,,,,0,122,122,173,,right,red,0.85,508.7814438343048,,509.2233998775482,,2,3,6,lightness,readingArea,realistic,75,2023-03-18_15h26.29.599,tripletExp_regina_11082022,2022.2.4,120.32508943401965,
0,5,11,0,0.027777777777778,0.298245614035088,0,1.0,0.298245614035088,0,1.0,1.0,ReadingArea_rsl0-rcl2-esl29-rsm0-rcm100-esm29-rsr0-rcr100-esr100,exr/ReadingArea_rsl0-rcl2-esl29-rsm0-rcm100-esm29-rsr0-rcr100-esr100.exr,ReadingArea_rsl0-rcl2-esl29-rsm0-rcm100-esm29-rsr0-rcr100-esr100.npz,,,,,0,123,123,422,,right,red,0.88,510.92107796669006,,511.34030294418335,,2,3,6,lightness,readingArea,realistic,75,2023-03-18_15h26.29.599,tripletExp_regina_11082022,2022.2.4,120.32508943401965,
13,8,14,0,0.111111111111111,3.10526315789474,0,0.25,1.0,0,0.25,3.10526315789474,ReadingArea_rsl0-rcl11-esl310-rsm0-rcm25-esm100-rsr0-rcr25-esr310,exr/ReadingArea_rsl0-rcl11-esl310-rsm0-rcm25-esm100-rsr0-rcr25-esr310.exr,ReadingArea_rsl0-rcl11-esl310-rsm0-rcm25-esm100-rsr0-rcr25-esr310.npz,,,,,0,124,124,345,,left,green,0.93,513.0446310043335,,513.498204946518,,2,3,6,lightness,readingArea,realistic,75,2023-03-18_15h26.29.599,tripletExp_regina_11082022,2022.2.4,120.32508943401965,
4,11,12,0,0.694444444444444,0.298245614035088,0,1.0,1.0,0,0.027777777777778,3.10526315789474,ReadingArea_rsl0-rcl69-esl29-rsm0-rcm100-esm100-rsr0-rcr2-esr310,exr/ReadingArea_rsl0-rcl69-esl29-rsm0-rcm100-esm100-rsr0-rcr2-esr310.exr,ReadingArea_rsl0-rcl69-esl29-rsm0-rcm100-esm100-rsr0-rcr2-esr310.npz,,,,,0,125,125,109,,left,green,1.71,515.2133278846741,,515.6655769348145,,2,3,6,lightness,readingArea,realistic,75,2023-03-18_15h26.29.599,tripletExp_regina_11082022,2022.2.4,120.32508943401965,
2,14,9,0,0.25,0.298245614035088,0,0.25,3.10526315789474,0,0.444444444444444,1.0,ReadingArea_rsl0-rcl25-esl29-rsm0-rcm25-esm310-rsr0-rcr44-esr100,exr/ReadingArea_rsl0-rcl25-esl29-rsm0-rcm25-esm310-rsr0-rcr44-esr100.exr,ReadingArea_rsl0-rcl25-esl29-rsm0-rcm25-esm310-rsr0-rcr44-esr100.npz,,,,,0,126,126,51,,right,red,0.98,517.3665819168091,,,,2,3,6,lightness,readingArea,realistic,75,2023-03-18_15h26.29.599,tripletExp_regina_11082022,2022.2.4,120.32508943401965,
4,2,5,0,0.694444444444444,0.298245614035088,0,0.25,0.298245614035088,0,1.0,0.298245614035088,ReadingArea_rsl0-rcl69-esl29-rsm0-rcm25-esm29-rsr0-rcr100-esr29,exr/ReadingArea_rsl0-rcl69-esl29-rsm0-rcm25-esm29-rsr0-rcr100-esr29.exr,ReadingArea_rsl0-rcl69-esl29-rsm0-rcm25-esm29-rsr0-rcr100-esr29.npz,,,,,0,127,127,101,,left,green,1.13,519.4933249950409,,520.0230758190155,,2,3,6,lightness,readingArea,realistic,75,2023-03-18_15h26.29.599,tripletExp_regina_11082022,2022.2.4,120.32508943401965,
11,12,4,0,1.0,1.0,0,0.027777777777778,3.10526315789474,0,0.694444444444444,0.298245614035088,ReadingArea_rsl0-rcl100-esl100-rsm0-rcm2-esm310-rsr0-rcr69-esr29,exr/ReadingArea_rsl0-rcl100-esl100-rsm0-rcm2-esm310-rsr0-rcr69-esr29.exr,ReadingArea_rsl0-rcl100-esl100-rsm0-rcm2-esm310-rsr0-rcr69-esr29.npz,,,,,0,128,128,250,,right,red,0.75,521.7291858196259,,522.1657938957214,,2,3,6,lightness,readingArea,realistic,75,2023-03-18_15h26.29.599,tripletExp_regina_11082022,2022.2.4,120.32508943401965,
6,13,8,0,0.027777777777778,1.0,0,0.111111111111111,3.10526315789474,0,0.25,1.0,ReadingArea_rsl0-rcl2-esl100-rsm0-rcm11-esm310-rsr0-rcr25-esr100,exr/ReadingArea_rsl0-rcl2-esl100-rsm0-rcm11-esm310-rsr0-rcr25-esr100.exr,ReadingArea_rsl0-rcl2-esl100-rsm0-rcm11-esm310-rsr0-rcr25-esr100.npz,,,,,0,129,129,535,,right,red,1.04,523.8800268173218,,524.2991878986359,,2,3,6,lightness,readingArea,realistic,75,2023-03-18_15h26.29.599,tripletExp_regina_11082022,2022.2.4,120.32508943401965,
9,11,13,0,0.444444444444444,1.0,0,1.0,1.0,0,0.111111111111111,3.10526315789474,ReadingArea_rsl0-rcl44-esl100-rsm0-rcm100-esm100-rsr0-rcr11-esr310,exr/ReadingArea_rsl0-rcl44-esl100-rsm0-rcm100-esm100-rsr0-rcr11-esr310.exr,ReadingArea_rsl0-rcl44-esl100-rsm0-rcm100-esm100-rsr0-rcr11-esr310.npz,,,,,0,130,130,254,,left,green,1.32,526.0014688968658,,,,2,3,6,lightness,readingArea,realistic,75,2023-03-18_15h26.29.599,tripletExp_regina_11082022,2022.2.4,120.32508943401965,
5,9,12,0,1.0,0.298245614035088,0,0.444444444444444,1.0,0,0.027777777777778,3.10526315789474,ReadingArea_rsl0-rcl100-esl29-rsm0-rcm44-esm100-rsr0-rcr2-esr310,exr/ReadingArea_rsl0-rcl100-esl29-rsm0-rcm44-esm100-rsr0-rcr2-esr310.exr,ReadingArea_rsl0-rcl100-esl29-rsm0-rcm44-esm100-rsr0-rcr2-esr310.npz,,,,,0,131,131,539,,left,green,1.26,528.1431849002838,,,,2,3,6,lightness,readingArea,realistic,75,2023-03-18_15h26.29.599,tripletExp_regina_11082022,2022.2.4,120.32508943401965,
2,6,12,0,0.25,0.298245614035088,0,0.027777777777778,1.0,0,0.027777777777778,3.10526315789474,ReadingArea_rsl0-rcl25-esl29-rsm0-rcm2-esm100-rsr0-rcr2-esr310,exr/ReadingArea_rsl0-rcl25-esl29-rsm0-rcm2-esm100-rsr0-rcr2-esr310.exr,ReadingArea_rsl0-rcl25-esl29-rsm0-rcm2-esm100-rsr0-rcr2-esr310.npz,,,,,0,132,132,97,,right,red,3.45,532.0532989501953,,532.6696729660034,,2,3,6,lightness,readingArea,realistic,75,2023-03-18_15h26.29.599,tripletExp_regina_11082022,2022.2.4,120.32508943401965,
4,1,13,0,0.694444444444444,0.298245614035088,0,0.111111111111111,0.298245614035088,0,0.111111111111111,3.10526315789474,ReadingArea_rsl0-rcl69-esl29-rsm0-rcm11-esm29-rsr0-rcr11-esr310,exr/ReadingArea_rsl0-rcl69-esl29-rsm0-rcm11-esm29-rsr0-rcr11-esr310.exr,ReadingArea_rsl0-rcl69-esl29-rsm0-rcm11-esm29-rsr0-rcr11-esr310.npz,,,,,0,133,133,565,,left,green,1.43,534.3723568916321,,534.8583769798279,,2,3,6,lightness,readingArea,realistic,75,2023-03-18_15h26.29.599,tripletExp_regina_11082022,2022.2.4,120.32508943401965,
14,2,8,0,0.25,3.10526315789474,0,0.25,0.298245614035088,0,0.25,1.0,ReadingArea_rsl0-rcl25-esl310-rsm0-rcm25-esm29-rsr0-rcr25-esr100,exr/ReadingArea_rsl0-rcl25-esl310-rsm0-rcm25-esm29-rsr0-rcr25-esr100.exr,ReadingArea_rsl0-rcl25-esl310-rsm0-rcm25-esm29-rsr0-rcr25-esr100.npz,,,,,0,134,134,212,,right,red,1.12,536.559947013855,,536.9823648929596,,2,3,6,lightness,readingArea,realistic,75,2023-03-18_15h26.29.599,tripletExp_regina_11082022,2022.2.4,120.32508943401965,
12,14,4,0,0.027777777777778,3.10526315789474,0,0.25,3.10526315789474,0,0.694444444444444,0.298245614035088,ReadingArea_rsl0-rcl2-esl310-rsm0-rcm25-esm310-rsr0-rcr69-esr29,exr/ReadingArea_rsl0-rcl2-esl310-rsm0-rcm25-esm310-rsr0-rcr69-esr29.exr,ReadingArea_rsl0-rcl2-esl310-rsm0-rcm25-esm310-rsr0-rcr69-esr29.npz,,,,,0,135,135,315,,right,red,1.17,538.6763520240784,,539.1320688724518,,2,3,6,lightness,readingArea,realistic,75,2023-03-18_15h26.29.599,tripletExp_regina_11082022,2022.2.4,120.32508943401965,
12,14,8,0,0.027777777777778,3.10526315789474,0,0.25,3.10526315789474,0,0.25,1.0,ReadingArea_rsl0-rcl2-esl310-rsm0-rcm25-esm310-rsr0-rcr25-esr100,exr/ReadingArea_rsl0-rcl2-esl310-rsm0-rcm25-esm310-rsr0-rcr25-esr100.exr,ReadingArea_rsl0-rcl2-esl310-rsm0-rcm25-esm310-rsr0-rcr25-esr100.npz,,,,,0,136,136,466,,right,red,0.9,540.8361299037933,,541.2802519798279,,2,3,6,lightness,readingArea,realistic,75,2023-03-18_15h26.29.599,tripletExp_regina_11082022,2022.2.4,120.32508943401965,
6,13,0,0,0.027777777777778,1.0,0,0.111111111111111,3.10526315789474,0,0.027777777777778,0.298245614035088,ReadingArea_rsl0-rcl2-esl100-rsm0-rcm11-esm310-rsr0-rcr2-esr29,exr/ReadingArea_rsl0-rcl2-esl100-rsm0-rcm11-esm310-rsr0-rcr2-esr29.exr,ReadingArea_rsl0-rcl2-esl100-rsm0-rcm11-esm310-rsr0-rcr2-esr29.npz,,,,,0,137,137,580,,left,green,1.65,542.9961278438568,,,,2,3,6,lightness,readingArea,realistic,75,2023-03-18_15h26.29.599,tripletExp_regina_11082022,2022.2.4,120.32508943401965,
13,6,0,0,0.111111111111111,3.10526315789474,0,0.027777777777778,1.0,0,0.027777777777778,0.298245614035088,ReadingArea_rsl0-rcl11-esl310-rsm0-rcm2-esm100-rsr0-rcr2-esr29,exr/ReadingArea_rsl0-rcl11-esl310-rsm0-rcm2-esm100-rsr0-rcr2-esr29.exr,ReadingArea_rsl0-rcl11-esl310-rsm0-rcm2-esm100-rsr0-rcr2-esr29.npz,,,,,0,138,138,309,,right,red,1.89,546.8942058086395,,547.3342158794403,,2,3,6,lightness,readingArea,realistic,75,2023-03-18_15h26.29.599,tripletExp_regina_11082022,2022.2.4,120.32508943401965,
6,0,4,0,0.027777777777778,1.0,0,0.027777777777778,0.298245614035088,0,0.694444444444444,0.298245614035088,ReadingArea_rsl0-rcl2-esl100-rsm0-rcm2-esm29-rsr0-rcr69-esr29,exr/ReadingArea_rsl0-rcl2-esl100-rsm0-rcm2-esm29-rsr0-rcr69-esr29.exr,ReadingArea_rsl0-rcl2-esl100-rsm0-rcm2-esm29-rsr0-rcr69-esr29.npz,,,,,0,139,139,555,,left,green,1.06,549.0356810092926,,549.4826169013977,,2,3,6,lightness,readingArea,realistic,75,2023-03-18_15h26.29.599,tripletExp_regina_11082022,2022.2.4,120.32508943401965,
2,6,13,0,0.25,0.298245614035088,0,0.027777777777778,1.0,0,0.111111111111111,3.10526315789474,ReadingArea_rsl0-rcl25-esl29-rsm0-rcm2-esm100-rsr0-rcr11-esr310,exr/ReadingArea_rsl0-rcl25-esl29-rsm0-rcm2-esm100-rsr0-rcr11-esr310.exr,ReadingArea_rsl0-rcl25-esl29-rsm0-rcm2-esm100-rsr0-rcr11-esr310.npz,,,,,0,140,140,388,,left,green,0.89,551.1748979091644,,551.7182238101959,,2,3,6,lightness,readingArea,realistic,75,2023-03-18_15h26.29.599,tripletExp_regina_11082022,2022.2.4,120.32508943401965,
9,14,7,0,0.444444444444444,1.0,0,0.25,3.10526315789474,0,0.111111111111111,1.0,ReadingArea_rsl0-rcl44-esl100-rsm0-rcm25-esm310-rsr0-rcr11-esr100,exr/ReadingArea_rsl0-rcl44-esl100-rsm0-rcm25-esm310-rsr0-rcr11-esr100.exr,ReadingArea_rsl0-rcl44-esl100-rsm0-rcm25-esm310-rsr0-rcr11-esr100.npz,,,,,0,141,141,44,,left,green,1.04,553.4209988117218,,553.8445858955383,,2,3,6,lightness,readingArea,realistic,75,2023-03-18_15h26.29.599,tripletExp_regina_11082022,2022.2.4,120.32508943401965,
11,3,12,0,1.0,1.0,0,0.444444444444444,0.298245614035088,0,0.027777777777778,3.10526315789474,ReadingArea_rsl0-rcl100-esl100-rsm0-rcm44-esm29-rsr0-rcr2-esr310,exr/ReadingArea_rsl0-rcl100-esl100-rsm0-rcm44-esm29-rsr0-rcr2-esr310.exr,ReadingArea_rsl0-rcl100-esl100-rsm0-rcm44-esm29-rsr0-rcr2-esr310.npz,,,,,0,142,142,355,,right,red,1.04,555.5562038421631,,,,2,3,6,lightness,readingArea,realistic,75,2023-03-18_15h26.29.599,tripletExp_regina_11082022,2022.2.4,120.32508943401965,
10,3,14,0,0.694444444444444,1.0,0,0.444444444444444,0.298245614035088,0,0.25,3.10526315789474,ReadingArea_rsl0-rcl69-esl100-rsm0-rcm44-esm29-rsr0-rcr25-esr310,exr/ReadingArea_rsl0-rcl69-esl100-rsm0-rcm44-esm29-rsr0-rcr25-esr310.exr,ReadingArea_rsl0-rcl69-esl100-rsm0-rcm44-esm29-rsr0-rcr25-esr310.npz,,,,,0,143,143,597,,right,red,3.13,559.4485440254211,,,,2,3,6,lightness,readingArea,realistic,75,2023-03-18_15h26.29.599,tripletExp_regina_11082022,2022.2.4,120.32508943401965,
8,2,0,0,0.25,1.0,0,0.25,0.298245614035088,0,0.027777777777778,0.298245614035088,ReadingArea_rsl0-rcl25-esl100-rsm0-rcm25-esm29-rsr0-rcr2-esr29,exr/ReadingArea_rsl0-rcl25-esl100-rsm0-rcm25-esm29-rsr0-rcr2-esr29.exr,ReadingArea_rsl0-rcl25-esl100-rsm0-rcm25-esm29-rsr0-rcr2-esr29.npz,,,,,0,144,144,574,,left,green,1.19,561.6068778038025,,,,2,3,6,lightness,readingArea,realistic,75,2023-03-18_15h26.29.599,tripletExp_regina_11082022,2022.2.4,120.32508943401965,
14,2,7,0,0.25,3.10526315789474,0,0.25,0.298245614035088,0,0.111111111111111,1.0,ReadingArea_rsl0-rcl25-esl310-rsm0-rcm25-esm29-rsr0-rcr11-esr100,exr/ReadingArea_rsl0-rcl25-esl310-rsm0-rcm25-esm29-rsr0-rcr11-esr100.exr,ReadingArea_rsl0-rcl25-esl310-rsm0-rcm25-esm29-rsr0-rcr11-esr100.npz,,,,,0,145,145,569,,right,red,0.82,563.7534019947052,,564.260015964508,,2,3,6,lightness,readingArea,realistic,75,2023-03-18_15h26.29.599,tripletExp_regina_11082022,2022.2.4,120.32508943401965,
5,0,11,0,1.0,0.298245614035088,0,0.027777777777778,0.298245614035088,0,1.0,1.0,ReadingArea_rsl0-rcl100-esl29-rsm0-rcm2-esm29-rsr0-rcr100-esr100,exr/ReadingArea_rsl0-rcl100-esl29-rsm0-rcm2-esm29-rsr0-rcr100-esr100.exr,ReadingArea_rsl0-rcl100-esl29-rsm0-rcm2-esm29-rsr0-rcr100-esr100.npz,,,,,0,146,146,547,,left,green,1.26,565.978611946106,,566.4201459884644,,2,3,6,lightness,readingArea,realistic,75,2023-03-18_15h26.29.599,tripletExp_regina_11082022,2022.2.4,120.32508943401965,
8,1,10,0,0.25,1.0,0,0.111111111111111,0.298245614035088,0,0.694444444444444,1.0,ReadingArea_rsl0-rcl25-esl100-rsm0-rcm11-esm29-rsr0-rcr69-esr100,exr/ReadingArea_rsl0-rcl25-esl100-rsm0-rcm11-esm29-rsr0-rcr69-esr100.exr,ReadingArea_rsl0-rcl25-esl100-rsm0-rcm11-esm29-rsr0-rcr69-esr100.npz,,,,,0,147,147,442,,left,green,0.92,568.1364619731903,,568.5575158596039,,2,3,6,lightness,readingArea,realistic,75,2023-03-18_15h26.29.599,tripletExp_regina_11082022,2022.2.4,120.32508943401965,
3,4,11,0,0.444444444444444,0.298245614035088,0,0.694444444444444,0.298245614035088,0,1.0,1.0,ReadingArea_rsl0-rcl44-esl29-rsm0-rcm69-esm29-rsr0-rcr100-esr100,exr/ReadingArea_rsl0-rcl44-esl29-rsm0-rcm69-esm29-rsr0-rcr100-esr100.exr,ReadingArea_rsl0-rcl44-esl29-rsm0-rcm69-esm29-rsr0-rcr100-esr100.npz,,,,,0,148,148,207,,left,green,0.97,570.2490448951721,,570.6926329135895,,2,3,6,lightness,readingArea,realistic,75,2023-03-18_15h26.29.599,tripletExp_regina_11082022,2022.2.4,120.32508943401965,
2,5,0,0,0.25,0.298245614035088,0,1.0,0.298245614035088,0,0.027777777777778,0.298245614035088,ReadingArea_rsl0-rcl25-esl29-rsm0-rcm100-esm29-rsr0-rcr2-esr29,exr/ReadingArea_rsl0-rcl25-esl29-rsm0-rcm100-esm29-rsr0-rcr2-esr29.exr,ReadingArea_rsl0-rcl25-esl29-rsm0-rcm100-esm29-rsr0-rcr2-esr29.npz,,,,,0,149,149,414,,left,green,1.3,572.4123899936676,,572.6153960227966,,2,3,6,lightness,readingArea,realistic,75,2023-03-18_15h26.29.599,tripletExp_regina_11082022,2022.2.4,120.32508943401965,
14,7,1,0,0.25,3.10526315789474,0,0.111111111111111,1.0,0,0.111111111111111,0.298245614035088,ReadingArea_rsl0-rcl25-esl310-rsm0-rcm11-esm100-rsr0-rcr11-esr29,exr/ReadingArea_rsl0-rcl25-esl310-rsm0-rcm11-esm100-rsr0-rcr11-esr29.exr,ReadingArea_rsl0-rcl25-esl310-rsm0-rcm11-esm100-rsr0-rcr11-esr29.npz,,,,,0,150,150,298,,right,red,1.06,575.3713448047638,,575.9119298458099,,3,3,6,lightness,readingArea,realistic,75,2023-03-18_15h26.29.599,tripletExp_regina_11082022,2022.2.4,120.32508943401965,
1,14,8,0,0.111111111111111,0.298245614035088,0,0.25,3.10526315789474,0,0.25,1.0,ReadingArea_rsl0-rcl11-esl29-rsm0-rcm25-esm310-rsr0-rcr25-esr100,exr/ReadingArea_rsl0-rcl11-esl29-rsm0-rcm25-esm310-rsr0-rcr25-esr100.exr,ReadingArea_rsl0-rcl11-esl29-rsm0-rcm25-esm310-rsr0-rcr25-esr100.npz,,,,,0,151,151,108,,right,red,0.98,577.6136019229889,,578.0649979114532,,3,3,6,lightness,readingArea,realistic,75,2023-03-18_15h26.29.599,tripletExp_regina_11082022,2022.2.4,120.32508943401965,
7,13,12,0,0.111111111111111,1.0,0,0.111111111111111,3.10526315789474,0,0.027777777777778,3.10526315789474,ReadingArea_rsl0-rcl11-esl100-rsm0-rcm11-esm310-rsr0-rcr2-esr310,exr/ReadingArea_rsl0-rcl11-esl100-rsm0-rcm11-esm310-rsr0-rcr2-esr310.exr,ReadingArea_rsl0-rcl11-esl100-rsm0-rcm11-esm310-rsr0-rcr2-esr310.npz,,,,,0,152,152,438,,left,green,2.58,581.5245778560638,,581.9760339260101,,3,3,6,lightness,readingArea,realistic,75,2023-03-18_15h26.29.599,tripletExp_regina_11082022,2022.2.4,120.32508943401965,
4,13,1,0,0.694444444444444,0.298245614035088,0,0.111111111111111,3.10526315789474,0,0.111111111111111,0.298245614035088,ReadingArea_rsl0-rcl69-esl29-rsm0-rcm11-esm310-rsr0-rcr11-esr29,exr/ReadingArea_rsl0-rcl69-esl29-rsm0-rcm11-esm310-rsr0-rcr11-esr29.exr,ReadingArea_rsl0-rcl69-esl29-rsm0-rcm11-esm310-rsr0-rcr11-esr29.npz,,,,,0,153,153,192,,left,green,0.76,583.6686990261078,,,,3,3,6,lightness,readingArea,realistic,75,2023-03-18_15h26.29.599,tripletExp_regina_11082022,2022.2.4,120.32508943401965,
7,2,0,0,0.111111111111111,1.0,0,0.25,0.298245614035088,0,0.027777777777778,0.298245614035088,ReadingArea_rsl0-rcl11-esl100-rsm0-rcm25-esm29-rsr0-rcr2-esr29,exr/ReadingArea_rsl0-rcl11-esl100-rsm0-rcm25-esm29-rsr0-rcr2-esr29.exr,ReadingArea_rsl0-rcl11-esl100-rsm0-rcm25-esm29-rsr0-rcr2-esr29.npz,,,,,0,154,154,520,,left,green,0.7,585.826700925827,,586.2429389953613,,3,3,6,lightness,readingArea,realistic,75,2023-03-18_15h26.29.599,tripletExp_regina_11082022,2022.2.4,120.32508943401965,
13,3,7,0,0.111111111111111,3.10526315789474,0,0.444444444444444,0.298245614035088,0,0.111111111111111,1.0,ReadingArea_rsl0-rcl11-esl310-rsm0-rcm44-esm29-rsr0-rcr11-esr100,exr/ReadingArea_rsl0-rcl11-esl310-rsm0-rcm44-esm29-rsr0-rcr11-esr100.exr,ReadingArea_rsl0-rcl11-esl310-rsm0-rcm44-esm29-rsr0-rcr11-esr100.npz,,,,,0,155,155,497,,right,red,1.65,587.9453308582306,,588.3851299285889,,3,3,6,lightness,readingArea,realistic,75,2023-03-18_15h26.29.599,tripletExp_regina_11082022,2022.2.4,120.32508943401965,
11,7,8,0,1.0,1.0,0,0.111111111111111,1.0,0,0.25,1.0,ReadingArea_rsl0-rcl100-esl100-rsm0-rcm11-esm100-rsr0-rcr25-esr100,exr/ReadingArea_rsl0-rcl100-esl100-rsm0-rcm11-esm100-rsr0-rcr25-esr100.exr,ReadingArea_rsl0-rcl100-esl100-rsm0-rcm11-esm100-rsr0-rcr25-esr100.npz,,,,,0,156,156,37,,right,red,0.99,590.0943968296051,,,,3,3,6,lightness,readingArea,realistic,75,2023-03-18_15h26.29.599,tripletExp_regina_11082022,2022.2.4,120.32508943401965,
8,13,9,0,0.25,1.0,0,0.111111111111111,3.10526315789474,0,0.444444444444444,1.0,ReadingArea_rsl0-rcl25-esl100-rsm0-rcm11-esm310-rsr0-rcr44-esr100,exr/ReadingArea_rsl0-rcl25-esl100-rsm0-rcm11-esm310-rsr0-rcr44-esr100.exr,ReadingArea_rsl0-rcl25-esl100-rsm0-rcm11-esm310-rsr0-rcr44-esr100.npz,,,,,0,157,157,487,,left,green,3.26,593.9747109413147,,594.4208369255066,,3,3,6,lightness,readingArea,realistic,75,2023-03-18_15h26.29.599,tripletExp_regina_11082022,2022.2.4,120.32508943401965,
10,14,1,0,0.694444444444444,1.0,0,0.25,3.10526315789474,0,0.111111111111111,0.298245614035088,ReadingArea_rsl0-rcl69-esl100-rsm0-rcm25-esm310-rsr0-rcr11-esr29,exr/ReadingArea_rsl0-rcl69-esl100-rsm0-rcm25-esm310-rsr0-rcr11-esr29.exr,ReadingArea_rsl0-rcl69-esl100-rsm0-rcm25-esm310-rsr0-rcr11-esr29.npz,,,,,0,158,158,544,,left,green,0.79,596.143926858902,,596.5650849342346,,3,3,6,lightness,readingArea,realistic,75,2023-03-18_15h26.29.599,tripletExp_regina_11082022,2022.2.4,120.32508943401965,
14,5,11,0,0.25,3.10526315789474,0,1.0,0.298245614035088,0,1.0,1.0,ReadingArea_rsl0-rcl25-esl310-rsm0-rcm100-esm29-rsr0-rcr100-esr100,exr/ReadingArea_rsl0-rcl25-esl310-rsm0-rcm100-esm29-rsr0-rcr100-esr100.exr,ReadingArea_rsl0-rcl25-esl310-rsm0-rcm100-esm29-rsr0-rcr100-esr100.npz,,,,,0,159,159,161,,left,green,2.87,600.0292580127716,,,,3,3,6,lightness,readingArea,realistic,75,2023-03-18_15h26.29.599,tripletExp_regina_11082022,2022.2.4,120.32508943401965,
13,3,5,0,0.111111111111111,3.10526315789474,0,0.444444444444444,0.298245614035088,0,1.0,0.298245614035088,ReadingArea_rsl0-rcl11-esl310-rsm0-rcm44-esm29-rsr0-rcr100-esr29,exr/ReadingArea_rsl0-rcl11-esl310-rsm0-rcm44-esm29-rsr0-rcr100-esr29.exr,ReadingArea_rsl0-rcl11-esl310-rsm0-rcm44-esm29-rsr0-rcr100-esr29.npz,,,,,0,160,160,398,,left,green,3.2,603.9460728168488,,604.4382178783417,,3,3,6,lightness,readingArea,realistic,75,2023-03-18_15h26.29.599,tripletExp_regina_11082022,2022.2.4,120.32508943401965,
13,0,8,0,0.111111111111111,3.10526315789474,0,0.027777777777778,0.298245614035088,0,0.25,1.0,ReadingArea_rsl0-rcl11-esl310-rsm0-rcm2-esm29-rsr0-rcr25-esr100,exr/ReadingArea_rsl0-rcl11-esl310-rsm0-rcm2-esm29-rsr0-rcr25-esr100.exr,ReadingArea_rsl0-rcl11-esl310-rsm0-rcm2-esm29-rsr0-rcr25-esr100.npz,,,,,0,161,161,249,,right,red,3.42,607.9076910018921,,608.5116319656372,,3,3,6,lightness,readingArea,realistic,75,2023-03-18_15h26.29.599,tripletExp_regina_11082022,2022.2.4,120.32508943401965,
13,11,2,0,0.111111111111111,3.10526315789474,0,1.0,1.0,0,0.25,0.298245614035088,ReadingArea_rsl0-rcl11-esl310-rsm0-rcm100-esm100-rsr0-rcr25-esr29,exr/ReadingArea_rsl0-rcl11-esl310-rsm0-rcm100-esm100-rsr0-rcr25-esr29.exr,ReadingArea_rsl0-rcl11-esl310-rsm0-rcm100-esm100-rsr0-rcr25-esr29.npz,,,,,0,162,162,55,,left,green,1.96,610.207662820816,,610.8110818862915,,3,3,6,lightness,readingArea,realistic,75,2023-03-18_15h26.29.599,tripletExp_regina_11082022,2022.2.4,120.32508943401965,
1,14,6,0,0.111111111111111,0.298245614035088,0,0.25,3.10526315789474,0,0.027777777777778,1.0,ReadingArea_rsl0-rcl11-esl29-rsm0-rcm25-esm310-rsr0-rcr2-esr100,exr/ReadingArea_rsl0-rcl11-esl29-rsm0-rcm25-esm310-rsr0-rcr2-esr100.exr,ReadingArea_rsl0-rcl11-esl29-rsm0-rcm25-esm310-rsr0-rcr2-esr100.npz,,,,,0,163,163,475,,left,green,1.82,612.5132899284363,,612.9523649215698,,3,3,6,lightness,readingArea,realistic,75,2023-03-18_15h26.29.599,tripletExp_regina_11082022,2022.2.4,120.32508943401965,
9,6,8,0,0.444444444444444,1.0,0,0.027777777777778,1.0,0,0.25,1.0,ReadingArea_rsl0-rcl44-esl100-rsm0-rcm2-esm100-rsr0-rcr25-esr100,exr/ReadingArea_rsl0-rcl44-esl100-rsm0-rcm2-esm100-rsr0-rcr25-esr100.exr,ReadingArea_rsl0-rcl44-esl100-rsm0-rcm2-esm100-rsr0-rcr25-esr100.npz,,,,,0,164,164,312,,left,green,1.54,614.6543529033661,,615.1102948188782,,3,3,6,lightness,readingArea,realistic,75,2023-03-18_15h26.29.599,tripletExp_regina_11082022,2022.2.4,120.32508943401965,
9,12,0,0,0.444444444444444,1.0,0,0.027777777777778,3.10526315789474,0,0.027777777777778,0.298245614035088,ReadingArea_rsl0-rcl44-esl100-rsm0-rcm2-esm310-rsr0-rcr2-esr29,exr/ReadingArea_rsl0-rcl44-esl100-rsm0-rcm2-esm310-rsr0-rcr2-esr29.exr,ReadingArea_rsl0-rcl44-esl100-rsm0-rcm2-esm310-rsr0-rcr2-esr29.npz,,,,,0,165,165,175,,right,red,1.26,616.8134229183197,,617.25315284729,,3,3,6,lightness,readingArea,realistic,75,2023-03-18_15h26.29.599,tripletExp_regina_11082022,2022.2.4,120.32508943401965,
3,7,9,0,0.444444444444444,0.298245614035088,0,0.111111111111111,1.0,0,0.444444444444444,1.0,ReadingArea_rsl0-rcl44-esl29-rsm0-rcm11-esm100-rsr0-rcr44-esr100,exr/ReadingArea_rsl0-rcl44-esl29-rsm0-rcm11-esm100-rsr0-rcr44-esr100.exr,ReadingArea_rsl0-rcl44-esl29-rsm0-rcm11-esm100-rsr0-rcr44-esr100.npz,,,,,0,166,166,382,,left,green,0.98,618.948383808136,,619.3635468482971,,3,3,6,lightness,readingArea,realistic,75,2023-03-18_15h26.29.599,tripletExp_regina_11082022,2022.2.4,120.32508943401965,
6,3,1,0,0.027777777777778,1.0,0,0.444444444444444,0.298245614035088,0,0.111111111111111,0.298245614035088,ReadingArea_rsl0-rcl2-esl100-rsm0-rcm44-esm29-rsr0-rcr11-esr29,exr/ReadingArea_rsl0-rcl2-esl100-rsm0-rcm44-esm29-rsr0-rcr11-esr29.exr,ReadingArea_rsl0-rcl2-esl100-rsm0-rcm44-esm29-rsr0-rcr11-esr29.npz,,,,,0,167,167,430,,right,red,1.27,621.0575439929962,,,,3,3,6,lightness,readingArea,realistic,75,2023-03-18_15h26.29.599,tripletExp_regina_11082022,2022.2.4,120.32508943401965,
8,13,2,0,0.25,1.0,0,0.111111111111111,3.10526315789474,0,0.25,0.298245614035088,ReadingArea_rsl0-rcl25-esl100-rsm0-rcm11-esm310-rsr0-rcr25-esr29,exr/ReadingArea_rsl0-rcl25-esl100-rsm0-rcm11-esm310-rsr0-rcr25-esr29.exr,ReadingArea_rsl0-rcl25-esl100-rsm0-rcm11-esm310-rsr0-rcr25-esr29.npz,,,,,0,168,168,376,,left,green,1.49,623.215677022934,,623.7176468372345,,3,3,6,lightness,readingArea,realistic,75,2023-03-18_15h26.29.599,tripletExp_regina_11082022,2022.2.4,120.32508943401965,
9,7,2,0,0.444444444444444,1.0,0,0.111111111111111,1.0,0,0.25,0.298245614035088,ReadingArea_rsl0-rcl44-esl100-rsm0-rcm11-esm100-rsr0-rcr25-esr29,exr/ReadingArea_rsl0-rcl44-esl100-rsm0-rcm11-esm100-rsr0-rcr25-esr29.exr,ReadingArea_rsl0-rcl44-esl100-rsm0-rcm11-esm100-rsr0-rcr25-esr29.npz,,,,,0,169,169,428,,right,red,1.43,625.434173822403,,625.8805429935455,,3,3,6,lightness,readingArea,realistic,75,2023-03-18_15h26.29.599,tripletExp_regina_11082022,2022.2.4,120.32508943401965,
13,6,2,0,0.111111111111111,3.10526315789474,0,0.027777777777778,1.0,0,0.25,0.298245614035088,ReadingArea_rsl0-rcl11-esl310-rsm0-rcm2-esm100-rsr0-rcr25-esr29,exr/ReadingArea_rsl0-rcl11-esl310-rsm0-rcm2-esm100-rsr0-rcr25-esr29.exr,ReadingArea_rsl0-rcl11-esl310-rsm0-rcm2-esm100-rsr0-rcr25-esr29.npz,,,,,0,170,170,115,,right,red,1.32,627.5772960186005,,628.0162818431854,,3,3,6,lightness,readingArea,realistic,75,2023-03-18_15h26.29.599,tripletExp_regina_11082022,2022.2.4,120.32508943401965,
4,13,2,0,0.694444444444444,0.298245614035088,0,0.111111111111111,3.10526315789474,0,0.25,0.298245614035088,ReadingArea_rsl0-rcl69-esl29-rsm0-rcm11-esm310-rsr0-rcr25-esr29,exr/ReadingArea_rsl0-rcl69-esl29-rsm0-rcm11-esm310-rsr0-rcr25-esr29.exr,ReadingArea_rsl0-rcl69-esl29-rsm0-rcm11-esm310-rsr0-rcr25-esr29.npz,,,,,0,171,171,592,,left,green,2.91,631.4891219139099,,631.9444389343262,,3,3,6,lightness,readingArea,realistic,75,2023-03-18_15h26.29.599,tripletExp_regina_11082022,2022.2.4,120.32508943401965,
1,12,10,0,0.111111111111111,0.298245614035088,0,0.027777777777778,3.10526315789474,0,0.694444444444444,1.0,ReadingArea_rsl0-rcl11-esl29-rsm0-rcm2-esm310-rsr0-rcr69-esr100,exr/ReadingArea_rsl0-rcl11-esl29-rsm0-rcm2-esm310-rsr0-rcr69-esr100.exr,ReadingArea_rsl0-rcl11-esl29-rsm0-rcm2-esm310-rsr0-rcr69-esr100.npz,,,,,0,172,172,567,,left,green,1.01,633.6419539451599,,634.1464068889618,,3,3,6,lightness,readingArea,realistic,75,2023-03-18_15h26.29.599,tripletExp_regina_11082022,2022.2.4,120.32508943401965,
7,8,6,0,0.111111111111111,1.0,0,0.25,1.0,0,0.027777777777778,1.0,ReadingArea_rsl0-rcl11-esl100-rsm0-rcm25-esm100-rsr0-rcr2-esr100,exr/ReadingArea_rsl0-rcl11-esl100-rsm0-rcm25-esm100-rsr0-rcr2-esr100.exr,ReadingArea_rsl0-rcl11-esl100-rsm0-rcm25-esm100-rsr0-rcr2-esr100.npz,,,,,0,173,173,387,,left,green,1.07,635.8405849933624,,636.2886970043182,,3,3,6,lightness,readingArea,realistic,75,2023-03-18_15h26.29.599,tripletExp_regina_11082022,2022.2.4,120.32508943401965,
12,10,6,0,0.027777777777778,3.10526315789474,0,0.694444444444444,1.0,0,0.027777777777778,1.0,ReadingArea_rsl0-rcl2-esl310-rsm0-rcm69-esm100-rsr0-rcr2-esr100,exr/ReadingArea_rsl0-rcl2-esl310-rsm0-rcm69-esm100-rsr0-rcr2-esr100.exr,ReadingArea_rsl0-rcl2-esl310-rsm0-rcm69-esm100-rsr0-rcr2-esr100.npz,,,,,0,174,174,273,,left,green,1.41,637.9999179840088,,638.4338250160217,,3,3,6,lightness,readingArea,realistic,75,2023-03-18_15h26.29.599,tripletExp_regina_11082022,2022.2.4,120.32508943401965,
11,4,0,0,1.0,1.0,0,0.694444444444444,0.298245614035088,0,0.027777777777778,0.298245614035088,ReadingArea_rsl0-rcl100-esl100-rsm0-rcm69-esm29-rsr0-rcr2-esr29,exr/ReadingArea_rsl0-rcl100-esl100-rsm0-rcm69-esm29-rsr0-rcr2-esr29.exr,ReadingArea_rsl0-rcl100-esl100-rsm0-rcm69-esm29-rsr0-rcr2-esr29.npz,,,,,0,175,175,219,,left,green,1.01,640.1521489620209,,,,3,3,6,lightness,readingArea,realistic,75,2023-03-18_15h26.29.599,tripletExp_regina_11082022,2022.2.4,120.32508943401965,
14,6,12,0,0.25,3.10526315789474,0,0.027777777777778,1.0,0,0.027777777777778,3.10526315789474,ReadingArea_rsl0-rcl25-esl310-rsm0-rcm2-esm100-rsr0-rcr2-esr310,exr/ReadingArea_rsl0-rcl25-esl310-rsm0-rcm2-esm100-rsr0-rcr2-esr310.exr,ReadingArea_rsl0-rcl25-esl310-rsm0-rcm2-esm100-rsr0-rcr2-esr310.npz,,,,,0,176,176,242,,right,red,0.84,642.3220188617706,,642.748055934906,,3,3,6,lightness,readingArea,realistic,75,2023-03-18_15h26.29.599,tripletExp_regina_11082022,2022.2.4,120.32508943401965,
14,5,9,0,0.25,3.10526315789474,0,1.0,0.298245614035088,0,0.444444444444444,1.0,ReadingArea_rsl0-rcl25-esl310-rsm0-rcm100-esm29-rsr0-rcr44-esr100,exr/ReadingArea_rsl0-rcl25-esl310-rsm0-rcm100-esm29-rsr0-rcr44-esr100.exr,ReadingArea_rsl0-rcl25-esl310-rsm0-rcm100-esm29-rsr0-rcr44-esr100.npz,,,,,0,177,177,482,,right,red,1.56,644.469358921051,,,,3,3,6,lightness,readingArea,realistic,75,2023-03-18_15h26.29.599,tripletExp_regina_11082022,2022.2.4,120.32508943401965,
5,14,4,0,1.0,0.298245614035088,0,0.25,3.10526315789474,0,0.694444444444444,0.298245614035088,ReadingArea_rsl0-rcl100-esl29-rsm0-rcm25-esm310-rsr0-rcr69-esr29,exr/ReadingArea_rsl0-rcl100-esl29-rsm0-rcm25-esm310-rsr0-rcr69-esr29.exr,ReadingArea_rsl0-rcl100-esl29-rsm0-rcm25-esm310-rsr0-rcr69-esr29.npz,,,,,0,178,178,69,,left,green,1.46,646.6521008014679,,647.1078939437866,,3,3,6,lightness,readingArea,realistic,75,2023-03-18_15h26.29.599,tripletExp_regina_11082022,2022.2.4,120.32508943401965,
2,6,10,0,0.25,0.298245614035088,0,0.027777777777778,1.0,0,0.694444444444444,1.0,ReadingArea_rsl0-rcl25-esl29-rsm0-rcm2-esm100-rsr0-rcr69-esr100,exr/ReadingArea_rsl0-rcl25-esl29-rsm0-rcm2-esm100-rsr0-rcr69-esr100.exr,ReadingArea_rsl0-rcl25-esl29-rsm0-rcm2-esm100-rsr0-rcr69-esr100.npz,,,,,0,179,179,42,,left,green,1.03,648.8165860176086,,649.2528128623962,,3,3,6,lightness,readingArea,realistic,75,2023-03-18_15h26.29.599,tripletExp_regina_11082022,2022.2.4,120.32508943401965,
9,11,5,0,0.444444444444444,1.0,0,1.0,1.0,0,1.0,0.298245614035088,ReadingArea_rsl0-rcl44-esl100-rsm0-rcm100-esm100-rsr0-rcr100-esr29,exr/ReadingArea_rsl0-rcl44-esl100-rsm0-rcm100-esm100-rsr0-rcr100-esr29.exr,ReadingArea_rsl0-rcl44-esl100-rsm0-rcm100-esm100-rsr0-rcr100-esr29.npz,,,,,0,180,180,142,,right,red,3.28,652.7413828372955,,653.3804569244385,,3,3,6,lightness,readingArea,realistic,75,2023-03-18_15h26.29.599,tripletExp_regina_11082022,2022.2.4,120.32508943401965,
12,11,6,0,0.027777777777778,3.10526315789474,0,1.0,1.0,0,0.027777777777778,1.0,ReadingArea_rsl0-rcl2-esl310-rsm0-rcm100-esm100-rsr0-rcr2-esr100,exr/ReadingArea_rsl0-rcl2-esl310-rsm0-rcm100-esm100-rsr0-rcr2-esr100.exr,ReadingArea_rsl0-rcl2-esl310-rsm0-rcm100-esm100-rsr0-rcr2-esr100.npz,,,,,0,181,181,163,,left,green,1.81,655.0839569568634,,655.5201070308685,,3,3,6,lightness,readingArea,realistic,75,2023-03-18_15h26.29.599,tripletExp_regina_11082022,2022.2.4,120.32508943401965,
9,13,6,0,0.444444444444444,1.0,0,0.111111111111111,3.10526315789474,0,0.027777777777778,1.0,ReadingArea_rsl0-rcl44-esl100-rsm0-rcm11-esm310-rsr0-rcr2-esr100,exr/ReadingArea_rsl0-rcl44-esl100-rsm0-rcm11-esm310-rsr0-rcr2-esr100.exr,ReadingArea_rsl0-rcl44-esl100-rsm0-rcm11-esm310-rsr0-rcr2-esr100.npz,,,,,0,182,182,13,,left,green,1.01,657.2236618995667,,657.7507698535919,,3,3,6,lightness,readingArea,realistic,75,2023-03-18_15h26.29.599,tripletExp_regina_11082022,2022.2.4,120.32508943401965,
12,3,5,0,0.027777777777778,3.10526315789474,0,0.444444444444444,0.298245614035088,0,1.0,0.298245614035088,ReadingArea_rsl0-rcl2-esl310-rsm0-rcm44-esm29-rsr0-rcr100-esr29,exr/ReadingArea_rsl0-rcl2-esl310-rsm0-rcm44-esm29-rsr0-rcr100-esr29.exr,ReadingArea_rsl0-rcl2-esl310-rsm0-rcm44-esm29-rsr0-rcr100-esr29.npz,,,,,0,183,183,188,,left,green,1.62,659.4466128349304,,659.8920040130615,,3,3,6,lightness,readingArea,realistic,75,2023-03-18_15h26.29.599,tripletExp_regina_11082022,2022.2.4,120.32508943401965,
8,3,9,0,0.25,1.0,0,0.444444444444444,0.298245614035088,0,0.444444444444444,1.0,ReadingArea_rsl0-rcl25-esl100-rsm0-rcm44-esm29-rsr0-rcr44-esr100,exr/ReadingArea_rsl0-rcl25-esl100-rsm0-rcm44-esm29-rsr0-rcr44-esr100.exr,ReadingArea_rsl0-rcl25-esl100-rsm0-rcm44-esm29-rsr0-rcr44-esr100.npz,,,,,0,184,184,15,,left,green,1.42,661.5902450084686,,662.0328538417816,,3,3,6,lightness,readingArea,realistic,75,2023-03-18_15h26.29.599,tripletExp_regina_11082022,2022.2.4,120.32508943401965,
0,5,6,0,0.027777777777778,0.298245614035088,0,1.0,0.298245614035088,0,0.027777777777778,1.0,ReadingArea_rsl0-rcl2-esl29-rsm0-rcm100-esm29-rsr0-rcr2-esr100,exr/ReadingArea_rsl0-rcl2-esl29-rsm0-rcm100-esm29-rsr0-rcr2-esr100.exr,ReadingArea_rsl0-rcl2-esl29-rsm0-rcm100-esm29-rsr0-rcr2-esr100.npz,,,,,0,185,185,374,,right,red,1.02,663.7366139888763,,664.1773970127106,,3,3,6,lightness,readingArea,realistic,75,2023-03-18_15h26.29.599,tripletExp_regina_11082022,2022.2.4,120.32508943401965,
0,14,11,0,0.027777777777778,0.298245614035088,0,0.25,3.10526315789474,0,1.0,1.0,ReadingArea_rsl0-rcl2-esl29-rsm0-rcm25-esm310-rsr0-rcr100-esr100,exr/ReadingArea_rsl0-rcl2-esl29-rsm0-rcm25-esm310-rsr0-rcr100-esr100.exr,ReadingArea_rsl0-rcl2-esl29-rsm0-rcm25-esm310-rsr0-rcr100-esr100.npz,,,,,0,186,186,557,,right,red,0.75,665.8710198402405,,666.3347849845886,,3,3,6,lightness,readingArea,realistic,75,2023-03-18_15h26.29.599,tripletExp_regina_11082022,2022.2.4,120.32508943401965,
4,9,13,0,0.694444444444444,0.298245614035088,0,0.444444444444444,1.0,0,0.111111111111111,3.10526315789474,ReadingArea_rsl0-rcl69-esl29-rsm0-rcm44-esm100-rsr0-rcr11-esr310,exr/ReadingArea_rsl0-rcl69-esl29-rsm0-rcm44-esm100-rsr0-rcr11-esr310.exr,ReadingArea_rsl0-rcl69-esl29-rsm0-rcm44-esm100-rsr0-rcr11-esr310.npz,,,,,0,187,187,488,,left,green,4.08,671.5611279010773,,672.022213935852,,3,3,6,lightness,readingArea,realistic,75,2023-03-18_15h26.29.599,tripletExp_regina_11082022,2022.2.4,120.32508943401965,
7,8,12,0,0.111111111111111,1.0,0,0.25,1.0,0,0.027777777777778,3.10526315789474,ReadingArea_rsl0-rcl11-esl100-rsm0-rcm25-esm100-rsr0-rcr2-esr310,exr/ReadingArea_rsl0-rcl11-esl100-rsm0-rcm25-esm100-rsr0-rcr2-esr310.exr,ReadingArea_rsl0-rcl11-esl100-rsm0-rcm25-esm100-rsr0-rcr2-esr310.npz,,,,,0,188,188,271,,left,green,1.57,673.7198469638824,,674.1522779464722,,3,3,6,lightness,readingArea,realistic,75,2023-03-18_15h26.29.599,tripletExp_regina_11082022,2022.2.4,120.32508943401965,
14,0,6,0,0.25,3.10526315789474,0,0.027777777777778,0.298245614035088,0,0.027777777777778,1.0,ReadingArea_rsl0-rcl25-esl310-rsm0-rcm2-esm29-rsr0-rcr2-esr100,exr/ReadingArea_rsl0-rcl25-esl310-rsm0-rcm2-esm29-rsr0-rcr2-esr100.exr,ReadingArea_rsl0-rcl25-esl310-rsm0-rcm2-esm29-rsr0-rcr2-esr100.npz,,,,,0,189,189,496,,right,red,1.09,675.8486268520355,,676.3126618862152,,3,3,6,lightness,readingArea,realistic,75,2023-03-18_15h26.29.599,tripletExp_regina_11082022,2022.2.4,120.32508943401965,
3,11,14,0,0.444444444444444,0.298245614035088,0,1.0,1.0,0,0.25,3.10526315789474,ReadingArea_rsl0-rcl44-esl29-rsm0-rcm100-esm100-rsr0-rcr25-esr310,exr/ReadingArea_rsl0-rcl44-esl29-rsm0-rcm100-esm100-rsr0-rcr25-esr310.exr,ReadingArea_rsl0-rcl44-esl29-rsm0-rcm100-esm100-rsr0-rcr25-esr310.npz,,,,,0,190,190,570,,right,red,0.78,678.0040159225464,,678.4552338123322,,3,3,6,lightness,readingArea,realistic,75,2023-03-18_15h26.29.599,tripletExp_regina_11082022,2022.2.4,120.32508943401965,
14,2,0,0,0.25,3.10526315789474,0,0.25,0.298245614035088,0,0.027777777777778,0.298245614035088,ReadingArea_rsl0-rcl25-esl310-rsm0-rcm25-esm29-rsr0-rcr2-esr29,exr/ReadingArea_rsl0-rcl25-esl310-rsm0-rcm25-esm29-rsr0-rcr2-esr29.exr,ReadingArea_rsl0-rcl25-esl310-rsm0-rcm25-esm29-rsr0-rcr2-esr29.npz,,,,,0,191,191,460,,left,green,3.17,681.9365990161896,,682.3768768310547,,3,3,6,lightness,readingArea,realistic,75,2023-03-18_15h26.29.599,tripletExp_regina_11082022,2022.2.4,120.32508943401965,
1,5,13,0,0.111111111111111,0.298245614035088,0,1.0,0.298245614035088,0,0.111111111111111,3.10526315789474,ReadingArea_rsl0-rcl11-esl29-rsm0-rcm100-esm29-rsr0-rcr11-esr310,exr/ReadingArea_rsl0-rcl11-esl29-rsm0-rcm100-esm29-rsr0-rcr11-esr310.exr,ReadingArea_rsl0-rcl11-esl29-rsm0-rcm100-esm29-rsr0-rcr11-esr310.npz,,,,,0,192,192,598,,right,red,0.87,684.0752928256989,,684.5214388370514,,3,3,6,lightness,readingArea,realistic,75,2023-03-18_15h26.29.599,tripletExp_regina_11082022,2022.2.4,120.32508943401965,
5,10,2,0,1.0,0.298245614035088,0,0.694444444444444,1.0,0,0.25,0.298245614035088,ReadingArea_rsl0-rcl100-esl29-rsm0-rcm69-esm100-rsr0-rcr25-esr29,exr/ReadingArea_rsl0-rcl100-esl29-rsm0-rcm69-esm100-rsr0-rcr25-esr29.exr,ReadingArea_rsl0-rcl100-esl29-rsm0-rcm69-esm100-rsr0-rcr25-esr29.npz,,,,,0,193,193,489,,left,green,1.0,686.2165439128876,,686.7702670097351,,3,3,6,lightness,readingArea,realistic,75,2023-03-18_15h26.29.599,tripletExp_regina_11082022,2022.2.4,120.32508943401965,
0,11,9,0,0.027777777777778,0.298245614035088,0,1.0,1.0,0,0.444444444444444,1.0,ReadingArea_rsl0-rcl2-esl29-rsm0-rcm100-esm100-rsr0-rcr44-esr100,exr/ReadingArea_rsl0-rcl2-esl29-rsm0-rcm100-esm100-rsr0-rcr44-esr100.exr,ReadingArea_rsl0-rcl2-esl29-rsm0-rcm100-esm100-rsr0-rcr44-esr100.npz,,,,,0,194,194,32,,right,red,0.75,688.4680519104004,,688.9265139102936,,3,3,6,lightness,readingArea,realistic,75,2023-03-18_15h26.29.599,tripletExp_regina_11082022,2022.2.4,120.32508943401965,
13,10,7,0,0.111111111111111,3.10526315789474,0,0.694444444444444,1.0,0,0.111111111111111,1.0,ReadingArea_rsl0-rcl11-esl310-rsm0-rcm69-esm100-rsr0-rcr11-esr100,exr/ReadingArea_rsl0-rcl11-esl310-rsm0-rcm69-esm100-rsr0-rcr11-esr100.exr,ReadingArea_rsl0-rcl11-esl310-rsm0-rcm69-esm100-rsr0-rcr11-esr100.npz,,,,,0,195,195,385,,left,green,0.78,690.6296138763428,,691.0498819351196,,3,3,6,lightness,readingArea,realistic,75,2023-03-18_15h26.29.599,tripletExp_regina_11082022,2022.2.4,120.32508943401965,
2,9,8,0,0.25,0.298245614035088,0,0.444444444444444,1.0,0,0.25,1.0,ReadingArea_rsl0-rcl25-esl29-rsm0-rcm44-esm100-rsr0-rcr25-esr100,exr/ReadingArea_rsl0-rcl25-esl29-rsm0-rcm44-esm100-rsr0-rcr25-esr100.exr,ReadingArea_rsl0-rcl25-esl29-rsm0-rcm44-esm100-rsr0-rcr25-esr100.npz,,,,,0,196,196,407,,right,red,0.71,692.7455999851227,,693.2022278308868,,3,3,6,lightness,readingArea,realistic,75,2023-03-18_15h26.29.599,tripletExp_regina_11082022,2022.2.4,120.32508943401965,
2,1,13,0,0.25,0.298245614035088,0,0.111111111111111,0.298245614035088,0,0.111111111111111,3.10526315789474,ReadingArea_rsl0-rcl25-esl29-rsm0-rcm11-esm29-rsr0-rcr11-esr310,exr/ReadingArea_rsl0-rcl25-esl29-rsm0-rcm11-esm29-rsr0-rcr11-esr310.exr,ReadingArea_rsl0-rcl25-esl29-rsm0-rcm11-esm29-rsr0-rcr11-esr310.npz,,,,,0,197,197,290,,left,green,0.85,694.8994269371033,,695.3515129089355,,3,3,6,lightness,readingArea,realistic,75,2023-03-18_15h26.29.599,tripletExp_regina_11082022,2022.2.4,120.32508943401965,
7,8,3,0,0.111111111111111,1.0,0,0.25,1.0,0,0.444444444444444,0.298245614035088,ReadingArea_rsl0-rcl11-esl100-rsm0-rcm25-esm100-rsr0-rcr44-esr29,exr/ReadingArea_rsl0-rcl11-esl100-rsm0-rcm25-esm100-rsr0-rcr44-esr29.exr,ReadingArea_rsl0-rcl11-esl100-rsm0-rcm25-esm100-rsr0-rcr44-esr29.npz,,,,,0,198,198,459,,right,red,1.24,697.0450139045715,,,,3,3,6,lightness,readingArea,realistic,75,2023-03-18_15h26.29.599,tripletExp_regina_11082022,2022.2.4,120.32508943401965,
14,7,13,0,0.25,3.10526315789474,0,0.111111111111111,1.0,0,0.111111111111111,3.10526315789474,ReadingArea_rsl0-rcl25-esl310-rsm0-rcm11-esm100-rsr0-rcr11-esr310,exr/ReadingArea_rsl0-rcl25-esl310-rsm0-rcm11-esm100-rsr0-rcr11-esr310.exr,ReadingArea_rsl0-rcl25-esl310-rsm0-rcm11-esm100-rsr0-rcr11-esr310.npz,,,,,0,199,199,358,,right,red,0.96,699.1737759113312,,699.7703859806061,,3,3,6,lightness,readingArea,realistic,75,2023-03-18_15h26.29.599,tripletExp_regina_11082022,2022.2.4,120.32508943401965,
3,4,0,0,0.444444444444444,0.298245614035088,0,0.694444444444444,0.298245614035088,0,0.027777777777778,0.298245614035088,ReadingArea_rsl0-rcl44-esl29-rsm0-rcm69-esm29-rsr0-rcr2-esr29,exr/ReadingArea_rsl0-rcl44-esl29-rsm0-rcm69-esm29-rsr0-rcr2-esr29.exr,ReadingArea_rsl0-rcl44-esl29-rsm0-rcm69-esm29-rsr0-rcr2-esr29.npz,,,,,0,200,200,130,,left,green,1.18,701.4731078147888,,701.9166150093079,,3,3,6,lightness,readingArea,realistic,75,2023-03-18_15h26.29.599,tripletExp_regina_11082022,2022.2.4,120.32508943401965,
5,0,6,0,1.0,0.298245614035088,0,0.027777777777778,0.298245614035088,0,0.027777777777778,1.0,ReadingArea_rsl0-rcl100-esl29-rsm0-rcm2-esm29-rsr0-rcr2-esr100,exr/ReadingArea_rsl0-rcl100-esl29-rsm0-rcm2-esm29-rsr0-rcr2-esr100.exr,ReadingArea_rsl0-rcl100-esl29-rsm0-rcm2-esm29-rsr0-rcr2-esr100.npz,,,,,0,201,201,1,,right,red,0.81,703.6142148971558,,704.0433218479156,,3,3,6,lightness,readingArea,realistic,75,2023-03-18_15h26.29.599,tripletExp_regina_11082022,2022.2.4,120.32508943401965,
7,12,3,0,0.111111111111111,1.0,0,0.027777777777778,3.10526315789474,0,0.444444444444444,0.298245614035088,ReadingArea_rsl0-rcl11-esl100-rsm0-rcm2-esm310-rsr0-rcr44-esr29,exr/ReadingArea_rsl0-rcl11-esl100-rsm0-rcm2-esm310-rsr0-rcr44-esr29.exr,ReadingArea_rsl0-rcl11-esl100-rsm0-rcm2-esm310-rsr0-rcr44-esr29.npz,,,,,0,202,202,584,,left,green,1.52,705.7440309524536,,706.1823408603668,,3,3,6,lightness,readingArea,realistic,75,2023-03-18_15h26.29.599,tripletExp_regina_11082022,2022.2.4,120.32508943401965,
11,12,10,0,1.0,1.0,0,0.027777777777778,3.10526315789474,0,0.694444444444444,1.0,ReadingArea_rsl0-rcl100-esl100-rsm0-rcm2-esm310-rsr0-rcr69-esr100,exr/ReadingArea_rsl0-rcl100-esl100-rsm0-rcm2-esm310-rsr0-rcr69-esr100.exr,ReadingArea_rsl0-rcl100-esl100-rsm0-rcm2-esm310-rsr0-rcr69-esr100.npz,,,,,0,203,203,465,,right,red,1.52,707.8775959014893,,708.3146300315857,,3,3,6,lightness,readingArea,realistic,75,2023-03-18_15h26.29.599,tripletExp_regina_11082022,2022.2.4,120.32508943401965,
