index_left,index_middle,index_right,reflectance_surround_left,reflectance_center_left,emission_spot_left,reflectance_surround_middle,reflectance_center_middle,emission_spot_middle,reflectance_surround_right,reflectance_center_right,emission_spot_right,ImageName,ImageExr,ImageNpy,trials_2.thisRepN,trials_2.thisTrialN,trials_2.thisN,trials_2.thisIndex,trials.thisRepN,trials.thisTrialN,trials.thisN,trials.thisIndex,sound_2.started,BB_Trial.resp,BB_Trial.color,BB_Trial.rt,text.started,text.stopped,sound_1.started,sound_1.stopped,block,participant,session,L/B,scene,condition,nTrialsPerBlock,date,expName,psychopyVersion,frameRate,Unnamed: 42
0,9,11,0,0.027777777777778,0.298245614035088,0,0.444444444444444,1.0,0,1.0,1.0,ReadingArea_rsl0-rcl2-esl29-rsm0-rcm44-esm100-rsr0-rcr100-esr100,exr/ReadingArea_rsl0-rcl2-esl29-rsm0-rcm44-esm100-rsr0-rcr100-esr100.exr,ReadingArea_rsl0-rcl2-esl29-rsm0-rcm44-esm100-rsr0-rcr100-esr100.npz,,,,,0,0,0,448,498.1548990011215,right,red,0.9,568.1327979564667,568.5839660167694,534.2275649309158,500.28463196754456,1,7,1,lightness,readingArea,realistic,75,2023-03-25_09h59.19.044,tripletExp_regina_11082022,2022.2.4,120.83013562876666,
6,13,0,0,0.027777777777778,1.0,0,0.111111111111111,3.10526315789474,0,0.027777777777778,0.298245614035088,ReadingArea_rsl0-rcl2-esl100-rsm0-rcm11-esm310-rsr0-rcr2-esr29,exr/ReadingArea_rsl0-rcl2-esl100-rsm0-rcm11-esm310-rsr0-rcr2-esr29.exr,ReadingArea_rsl0-rcl2-esl100-rsm0-rcm11-esm310-rsr0-rcr2-esr29.npz,,,,,0,1,1,580,,left,green,1.63,570.3102447986603,578.6283469200134,,,1,7,1,lightness,readingArea,realistic,75,2023-03-25_09h59.19.044,tripletExp_regina_11082022,2022.2.4,120.83013562876666,
8,10,9,0,0.25,1.0,0,0.694444444444444,1.0,0,0.444444444444444,1.0,ReadingArea_rsl0-rcl25-esl100-rsm0-rcm69-esm100-rsr0-rcr44-esr100,exr/ReadingArea_rsl0-rcl25-esl100-rsm0-rcm69-esm100-rsr0-rcr44-esr100.exr,ReadingArea_rsl0-rcl25-esl100-rsm0-rcm69-esm100-rsr0-rcr44-esr100.npz,,,,,0,2,2,342,,right,red,1.35,580.3330948352814,580.7248849868774,,,1,7,1,lightness,readingArea,realistic,75,2023-03-25_09h59.19.044,tripletExp_regina_11082022,2022.2.4,120.83013562876666,
2,6,10,0,0.25,0.298245614035088,0,0.027777777777778,1.0,0,0.694444444444444,1.0,ReadingArea_rsl0-rcl25-esl29-rsm0-rcm2-esm100-rsr0-rcr69-esr100,exr/ReadingArea_rsl0-rcl25-esl29-rsm0-rcm2-esm100-rsr0-rcr69-esr100.exr,ReadingArea_rsl0-rcl25-esl29-rsm0-rcm2-esm100-rsr0-rcr69-esr100.npz,,,,,0,3,3,42,,left,green,1.1,582.4182028770447,582.7891149520874,,,1,7,1,lightness,readingArea,realistic,75,2023-03-25_09h59.19.044,tripletExp_regina_11082022,2022.2.4,120.83013562876666,
8,0,4,0,0.25,1.0,0,0.027777777777778,0.298245614035088,0,0.694444444444444,0.298245614035088,ReadingArea_rsl0-rcl25-esl100-rsm0-rcm2-esm29-rsr0-rcr69-esr29,exr/ReadingArea_rsl0-rcl25-esl100-rsm0-rcm2-esm29-rsr0-rcr69-esr29.exr,ReadingArea_rsl0-rcl25-esl100-rsm0-rcm2-esm29-rsr0-rcr69-esr29.npz,,,,,0,4,4,346,,right,red,3.93,588.0352640151978,588.468405008316,,,1,7,1,lightness,readingArea,realistic,75,2023-03-25_09h59.19.044,tripletExp_regina_11082022,2022.2.4,120.83013562876666,
7,8,14,0,0.111111111111111,1.0,0,0.25,1.0,0,0.25,3.10526315789474,ReadingArea_rsl0-rcl11-esl100-rsm0-rcm25-esm100-rsr0-rcr25-esr310,exr/ReadingArea_rsl0-rcl11-esl100-rsm0-rcm25-esm100-rsr0-rcr25-esr310.exr,ReadingArea_rsl0-rcl11-esl100-rsm0-rcm25-esm100-rsr0-rcr25-esr310.npz,,,,,0,5,5,300,,right,red,1.08,590.1534948348999,590.5226848125458,,,1,7,1,lightness,readingArea,realistic,75,2023-03-25_09h59.19.044,tripletExp_regina_11082022,2022.2.4,120.83013562876666,
2,1,14,0,0.25,0.298245614035088,0,0.111111111111111,0.298245614035088,0,0.25,3.10526315789474,ReadingArea_rsl0-rcl25-esl29-rsm0-rcm11-esm29-rsr0-rcr25-esr310,exr/ReadingArea_rsl0-rcl25-esl29-rsm0-rcm11-esm29-rsr0-rcr25-esr310.exr,ReadingArea_rsl0-rcl25-esl29-rsm0-rcm11-esm29-rsr0-rcr25-esr310.npz,,,,,0,6,6,59,,left,green,1.1,592.2253799438477,592.6125779151917,,,1,7,1,lightness,readingArea,realistic,75,2023-03-25_09h59.19.044,tripletExp_regina_11082022,2022.2.4,120.83013562876666,
5,2,0,0,1.0,0.298245614035088,0,0.25,0.298245614035088,0,0.027777777777778,0.298245614035088,ReadingArea_rsl0-rcl100-esl29-rsm0-rcm25-esm29-rsr0-rcr2-esr29,exr/ReadingArea_rsl0-rcl100-esl29-rsm0-rcm25-esm29-rsr0-rcr2-esr29.exr,ReadingArea_rsl0-rcl100-esl29-rsm0-rcm25-esm29-rsr0-rcr2-esr29.npz,,,,,0,7,7,476,,left,green,3.83,597.8397748470306,598.2683029174805,,,1,7,1,lightness,readingArea,realistic,75,2023-03-25_09h59.19.044,tripletExp_regina_11082022,2022.2.4,120.83013562876666,
7,8,11,0,0.111111111111111,1.0,0,0.25,1.0,0,1.0,1.0,ReadingArea_rsl0-rcl11-esl100-rsm0-rcm25-esm100-rsr0-rcr100-esr100,exr/ReadingArea_rsl0-rcl11-esl100-rsm0-rcm25-esm100-rsr0-rcr100-esr100.exr,ReadingArea_rsl0-rcl11-esl100-rsm0-rcm25-esm100-rsr0-rcr100-esr100.npz,,,,,0,8,8,363,,left,green,2.21,601.7239549160004,602.2106947898865,,,1,7,1,lightness,readingArea,realistic,75,2023-03-25_09h59.19.044,tripletExp_regina_11082022,2022.2.4,120.83013562876666,
6,0,14,0,0.027777777777778,1.0,0,0.027777777777778,0.298245614035088,0,0.25,3.10526315789474,ReadingArea_rsl0-rcl2-esl100-rsm0-rcm2-esm29-rsr0-rcr25-esr310,exr/ReadingArea_rsl0-rcl2-esl100-rsm0-rcm2-esm29-rsr0-rcr25-esr310.exr,ReadingArea_rsl0-rcl2-esl100-rsm0-rcm2-esm29-rsr0-rcr25-esr310.npz,,,,,0,9,9,169,,left,green,0.84,603.9306869506836,604.309720993042,,,1,7,1,lightness,readingArea,realistic,75,2023-03-25_09h59.19.044,tripletExp_regina_11082022,2022.2.4,120.83013562876666,
3,14,10,0,0.444444444444444,0.298245614035088,0,0.25,3.10526315789474,0,0.694444444444444,1.0,ReadingArea_rsl0-rcl44-esl29-rsm0-rcm25-esm310-rsr0-rcr69-esr100,exr/ReadingArea_rsl0-rcl44-esl29-rsm0-rcm25-esm310-rsr0-rcr69-esr100.exr,ReadingArea_rsl0-rcl44-esl29-rsm0-rcm25-esm310-rsr0-rcr69-esr100.npz,,,,,0,10,10,279,,right,red,2.66,607.7760260105133,608.1416218280792,,,1,7,1,lightness,readingArea,realistic,75,2023-03-25_09h59.19.044,tripletExp_regina_11082022,2022.2.4,120.83013562876666,
14,8,1,0,0.25,3.10526315789474,0,0.25,1.0,0,0.111111111111111,0.298245614035088,ReadingArea_rsl0-rcl25-esl310-rsm0-rcm25-esm100-rsr0-rcr11-esr29,exr/ReadingArea_rsl0-rcl25-esl310-rsm0-rcm25-esm100-rsr0-rcr11-esr29.exr,ReadingArea_rsl0-rcl25-esl310-rsm0-rcm25-esm100-rsr0-rcr11-esr29.npz,,,,,0,11,11,141,,left,green,3.4,611.5860869884491,,,,1,7,1,lightness,readingArea,realistic,75,2023-03-25_09h59.19.044,tripletExp_regina_11082022,2022.2.4,120.83013562876666,
6,10,11,0,0.027777777777778,1.0,0,0.694444444444444,1.0,0,1.0,1.0,ReadingArea_rsl0-rcl2-esl100-rsm0-rcm69-esm100-rsr0-rcr100-esr100,exr/ReadingArea_rsl0-rcl2-esl100-rsm0-rcm69-esm100-rsr0-rcr100-esr100.exr,ReadingArea_rsl0-rcl2-esl100-rsm0-rcm69-esm100-rsr0-rcr100-esr100.npz,,,,,0,12,12,116,,right,red,0.92,613.6663429737091,614.0338408946991,,,1,7,1,lightness,readingArea,realistic,75,2023-03-25_09h59.19.044,tripletExp_regina_11082022,2022.2.4,120.83013562876666,
8,9,6,0,0.25,1.0,0,0.444444444444444,1.0,0,0.027777777777778,1.0,ReadingArea_rsl0-rcl25-esl100-rsm0-rcm44-esm100-rsr0-rcr2-esr100,exr/ReadingArea_rsl0-rcl25-esl100-rsm0-rcm44-esm100-rsr0-rcr2-esr100.exr,ReadingArea_rsl0-rcl25-esl100-rsm0-rcm44-esm100-rsr0-rcr2-esr100.npz,,,,,0,13,13,3,,left,green,1.02,615.7549548149109,616.171952009201,,,1,7,1,lightness,readingArea,realistic,75,2023-03-25_09h59.19.044,tripletExp_regina_11082022,2022.2.4,120.83013562876666,
5,13,7,0,1.0,0.298245614035088,0,0.111111111111111,3.10526315789474,0,0.111111111111111,1.0,ReadingArea_rsl0-rcl100-esl29-rsm0-rcm11-esm310-rsr0-rcr11-esr100,exr/ReadingArea_rsl0-rcl100-esl29-rsm0-rcm11-esm310-rsr0-rcr11-esr100.exr,ReadingArea_rsl0-rcl100-esl29-rsm0-rcm11-esm310-rsr0-rcr11-esr100.npz,,,,,0,14,14,189,,left,green,1.09,617.8607618808746,618.2245259284973,,,1,7,1,lightness,readingArea,realistic,75,2023-03-25_09h59.19.044,tripletExp_regina_11082022,2022.2.4,120.83013562876666,
4,12,5,0,0.694444444444444,0.298245614035088,0,0.027777777777778,3.10526315789474,0,1.0,0.298245614035088,ReadingArea_rsl0-rcl69-esl29-rsm0-rcm2-esm310-rsr0-rcr100-esr29,exr/ReadingArea_rsl0-rcl69-esl29-rsm0-rcm2-esm310-rsr0-rcr100-esr29.exr,ReadingArea_rsl0-rcl69-esl29-rsm0-rcm2-esm310-rsr0-rcr100-esr29.npz,,,,,0,15,15,296,,left,green,1.16,619.9336068630219,620.3097448348999,,,1,7,1,lightness,readingArea,realistic,75,2023-03-25_09h59.19.044,tripletExp_regina_11082022,2022.2.4,120.83013562876666,
14,5,10,0,0.25,3.10526315789474,0,1.0,0.298245614035088,0,0.694444444444444,1.0,ReadingArea_rsl0-rcl25-esl310-rsm0-rcm100-esm29-rsr0-rcr69-esr100,exr/ReadingArea_rsl0-rcl25-esl310-rsm0-rcm100-esm29-rsr0-rcr69-esr100.exr,ReadingArea_rsl0-rcl25-esl310-rsm0-rcm100-esm29-rsr0-rcr69-esr100.npz,,,,,0,16,16,170,,right,red,4.39,625.5644249916077,626.039764881134,,,1,7,1,lightness,readingArea,realistic,75,2023-03-25_09h59.19.044,tripletExp_regina_11082022,2022.2.4,120.83013562876666,
13,0,9,0,0.111111111111111,3.10526315789474,0,0.027777777777778,0.298245614035088,0,0.444444444444444,1.0,ReadingArea_rsl0-rcl11-esl310-rsm0-rcm2-esm29-rsr0-rcr44-esr100,exr/ReadingArea_rsl0-rcl11-esl310-rsm0-rcm2-esm29-rsr0-rcr44-esr100.exr,ReadingArea_rsl0-rcl11-esl310-rsm0-rcm2-esm29-rsr0-rcr44-esr100.npz,,,,,0,17,17,373,,left,green,2.67,629.5214879512787,,,,1,7,1,lightness,readingArea,realistic,75,2023-03-25_09h59.19.044,tripletExp_regina_11082022,2022.2.4,120.83013562876666,
13,9,4,0,0.111111111111111,3.10526315789474,0,0.444444444444444,1.0,0,0.694444444444444,0.298245614035088,ReadingArea_rsl0-rcl11-esl310-rsm0-rcm44-esm100-rsr0-rcr69-esr29,exr/ReadingArea_rsl0-rcl11-esl310-rsm0-rcm44-esm100-rsr0-rcr69-esr29.exr,ReadingArea_rsl0-rcl11-esl310-rsm0-rcm44-esm100-rsr0-rcr69-esr29.npz,,,,,0,18,18,444,,right,red,3.86,635.1290888786316,635.5311348438263,,,1,7,1,lightness,readingArea,realistic,75,2023-03-25_09h59.19.044,tripletExp_regina_11082022,2022.2.4,120.83013562876666,
11,5,3,0,1.0,1.0,0,1.0,0.298245614035088,0,0.444444444444444,0.298245614035088,ReadingArea_rsl0-rcl100-esl100-rsm0-rcm100-esm29-rsr0-rcr44-esr29,exr/ReadingArea_rsl0-rcl100-esl100-rsm0-rcm100-esm29-rsr0-rcr44-esr29.exr,ReadingArea_rsl0-rcl100-esl100-rsm0-rcm100-esm29-rsr0-rcr44-esr29.npz,,,,,0,19,19,172,,right,red,0.87,637.2455279827118,637.6239049434662,,,1,7,1,lightness,readingArea,realistic,75,2023-03-25_09h59.19.044,tripletExp_regina_11082022,2022.2.4,120.83013562876666,
4,8,11,0,0.694444444444444,0.298245614035088,0,0.25,1.0,0,1.0,1.0,ReadingArea_rsl0-rcl69-esl29-rsm0-rcm25-esm100-rsr0-rcr100-esr100,exr/ReadingArea_rsl0-rcl69-esl29-rsm0-rcm25-esm100-rsr0-rcr100-esr100.exr,ReadingArea_rsl0-rcl69-esl29-rsm0-rcm25-esm100-rsr0-rcr100-esr100.npz,,,,,0,20,20,403,,left,green,0.91,639.3470180034637,639.7153508663177,,,1,7,1,lightness,readingArea,realistic,75,2023-03-25_09h59.19.044,tripletExp_regina_11082022,2022.2.4,120.83013562876666,
14,11,0,0,0.25,3.10526315789474,0,1.0,1.0,0,0.027777777777778,0.298245614035088,ReadingArea_rsl0-rcl25-esl310-rsm0-rcm100-esm100-rsr0-rcr2-esr29,exr/ReadingArea_rsl0-rcl25-esl310-rsm0-rcm100-esm100-rsr0-rcr2-esr29.exr,ReadingArea_rsl0-rcl25-esl310-rsm0-rcm100-esm100-rsr0-rcr2-esr29.npz,,,,,0,21,21,227,,left,green,1.16,641.4139978885651,641.7829949855804,,,1,7,1,lightness,readingArea,realistic,75,2023-03-25_09h59.19.044,tripletExp_regina_11082022,2022.2.4,120.83013562876666,
14,0,6,0,0.25,3.10526315789474,0,0.027777777777778,0.298245614035088,0,0.027777777777778,1.0,ReadingArea_rsl0-rcl25-esl310-rsm0-rcm2-esm29-rsr0-rcr2-esr100,exr/ReadingArea_rsl0-rcl25-esl310-rsm0-rcm2-esm29-rsr0-rcr2-esr100.exr,ReadingArea_rsl0-rcl25-esl310-rsm0-rcm2-esm29-rsr0-rcr2-esr100.npz,,,,,0,22,22,496,,right,red,0.83,643.4950888156891,643.8953318595886,,,1,7,1,lightness,readingArea,realistic,75,2023-03-25_09h59.19.044,tripletExp_regina_11082022,2022.2.4,120.83013562876666,
4,10,11,0,0.694444444444444,0.298245614035088,0,0.694444444444444,1.0,0,1.0,1.0,ReadingArea_rsl0-rcl69-esl29-rsm0-rcm69-esm100-rsr0-rcr100-esr100,exr/ReadingArea_rsl0-rcl69-esl29-rsm0-rcm69-esm100-rsr0-rcr100-esr100.exr,ReadingArea_rsl0-rcl69-esl29-rsm0-rcm69-esm100-rsr0-rcr100-esr100.npz,,,,,0,23,23,180,,left,green,0.92,645.6081628799438,645.9795038700104,,,1,7,1,lightness,readingArea,realistic,75,2023-03-25_09h59.19.044,tripletExp_regina_11082022,2022.2.4,120.83013562876666,
14,6,2,0,0.25,3.10526315789474,0,0.027777777777778,1.0,0,0.25,0.298245614035088,ReadingArea_rsl0-rcl25-esl310-rsm0-rcm2-esm100-rsr0-rcr25-esr29,exr/ReadingArea_rsl0-rcl25-esl310-rsm0-rcm2-esm100-rsr0-rcr25-esr29.exr,ReadingArea_rsl0-rcl25-esl310-rsm0-rcm2-esm100-rsr0-rcr25-esr29.npz,,,,,0,24,24,272,,right,red,0.88,647.6786379814148,648.0484189987183,,,1,7,1,lightness,readingArea,realistic,75,2023-03-25_09h59.19.044,tripletExp_regina_11082022,2022.2.4,120.83013562876666,
2,11,7,0,0.25,0.298245614035088,0,1.0,1.0,0,0.111111111111111,1.0,ReadingArea_rsl0-rcl25-esl29-rsm0-rcm100-esm100-rsr0-rcr11-esr100,exr/ReadingArea_rsl0-rcl25-esl29-rsm0-rcm100-esm100-rsr0-rcr11-esr100.exr,ReadingArea_rsl0-rcl25-esl29-rsm0-rcm100-esm100-rsr0-rcr11-esr100.npz,,,,,0,25,25,576,,right,red,2.8,651.520210981369,651.9027798175812,,,1,7,1,lightness,readingArea,realistic,75,2023-03-25_09h59.19.044,tripletExp_regina_11082022,2022.2.4,120.83013562876666,
7,3,0,0,0.111111111111111,1.0,0,0.444444444444444,0.298245614035088,0,0.027777777777778,0.298245614035088,ReadingArea_rsl0-rcl11-esl100-rsm0-rcm44-esm29-rsr0-rcr2-esr29,exr/ReadingArea_rsl0-rcl11-esl100-rsm0-rcm44-esm29-rsr0-rcr2-esr29.exr,ReadingArea_rsl0-rcl11-esl100-rsm0-rcm44-esm29-rsr0-rcr2-esr29.npz,,,,,0,26,26,318,,left,green,2.21,655.4093399047852,,,,1,7,1,lightness,readingArea,realistic,75,2023-03-25_09h59.19.044,tripletExp_regina_11082022,2022.2.4,120.83013562876666,
9,11,5,0,0.444444444444444,1.0,0,1.0,1.0,0,1.0,0.298245614035088,ReadingArea_rsl0-rcl44-esl100-rsm0-rcm100-esm100-rsr0-rcr100-esr29,exr/ReadingArea_rsl0-rcl44-esl100-rsm0-rcm100-esm100-rsr0-rcr100-esr29.exr,ReadingArea_rsl0-rcl44-esl100-rsm0-rcm100-esm100-rsr0-rcr100-esr29.npz,,,,,0,27,27,142,,left,green,2.17,659.4016349315643,,,,1,7,1,lightness,readingArea,realistic,75,2023-03-25_09h59.19.044,tripletExp_regina_11082022,2022.2.4,120.83013562876666,
2,11,14,0,0.25,0.298245614035088,0,1.0,1.0,0,0.25,3.10526315789474,ReadingArea_rsl0-rcl25-esl29-rsm0-rcm100-esm100-rsr0-rcr25-esr310,exr/ReadingArea_rsl0-rcl25-esl29-rsm0-rcm100-esm100-rsr0-rcr25-esr310.exr,ReadingArea_rsl0-rcl25-esl29-rsm0-rcm100-esm100-rsr0-rcr25-esr310.npz,,,,,0,28,28,534,,right,red,2.08,663.2439358234406,,,,1,7,1,lightness,readingArea,realistic,75,2023-03-25_09h59.19.044,tripletExp_regina_11082022,2022.2.4,120.83013562876666,
0,7,13,0,0.027777777777778,0.298245614035088,0,0.111111111111111,1.0,0,0.111111111111111,3.10526315789474,ReadingArea_rsl0-rcl2-esl29-rsm0-rcm11-esm100-rsr0-rcr11-esr310,exr/ReadingArea_rsl0-rcl2-esl29-rsm0-rcm11-esm100-rsr0-rcr11-esr310.exr,ReadingArea_rsl0-rcl2-esl29-rsm0-rcm11-esm100-rsr0-rcr11-esr310.npz,,,,,0,29,29,159,,right,red,2.1,667.0902090072632,667.4976119995117,,,1,7,1,lightness,readingArea,realistic,75,2023-03-25_09h59.19.044,tripletExp_regina_11082022,2022.2.4,120.83013562876666,
7,10,4,0,0.111111111111111,1.0,0,0.694444444444444,1.0,0,0.694444444444444,0.298245614035088,ReadingArea_rsl0-rcl11-esl100-rsm0-rcm69-esm100-rsr0-rcr69-esr29,exr/ReadingArea_rsl0-rcl11-esl100-rsm0-rcm69-esm100-rsr0-rcr69-esr29.exr,ReadingArea_rsl0-rcl11-esl100-rsm0-rcm69-esm100-rsr0-rcr69-esr29.npz,,,,,0,30,30,46,,right,red,2.03,670.9563579559326,671.3276360034943,,,1,7,1,lightness,readingArea,realistic,75,2023-03-25_09h59.19.044,tripletExp_regina_11082022,2022.2.4,120.83013562876666,
10,5,13,0,0.694444444444444,1.0,0,1.0,0.298245614035088,0,0.111111111111111,3.10526315789474,ReadingArea_rsl0-rcl69-esl100-rsm0-rcm100-esm29-rsr0-rcr11-esr310,exr/ReadingArea_rsl0-rcl69-esl100-rsm0-rcm100-esm29-rsr0-rcr11-esr310.exr,ReadingArea_rsl0-rcl69-esl100-rsm0-rcm100-esm29-rsr0-rcr11-esr310.npz,,,,,0,31,31,478,,right,red,1.56,673.0214898586273,673.475359916687,,,1,7,1,lightness,readingArea,realistic,75,2023-03-25_09h59.19.044,tripletExp_regina_11082022,2022.2.4,120.83013562876666,
0,13,1,0,0.027777777777778,0.298245614035088,0,0.111111111111111,3.10526315789474,0,0.111111111111111,0.298245614035088,ReadingArea_rsl0-rcl2-esl29-rsm0-rcm11-esm310-rsr0-rcr11-esr29,exr/ReadingArea_rsl0-rcl2-esl29-rsm0-rcm11-esm310-rsr0-rcr11-esr29.exr,ReadingArea_rsl0-rcl2-esl29-rsm0-rcm11-esm310-rsr0-rcr11-esr29.npz,,,,,0,32,32,458,,right,red,2.04,676.9655549526215,677.338045835495,,,1,7,1,lightness,readingArea,realistic,75,2023-03-25_09h59.19.044,tripletExp_regina_11082022,2022.2.4,120.83013562876666,
4,14,1,0,0.694444444444444,0.298245614035088,0,0.25,3.10526315789474,0,0.111111111111111,0.298245614035088,ReadingArea_rsl0-rcl69-esl29-rsm0-rcm25-esm310-rsr0-rcr11-esr29,exr/ReadingArea_rsl0-rcl69-esl29-rsm0-rcm25-esm310-rsr0-rcr11-esr29.exr,ReadingArea_rsl0-rcl69-esl29-rsm0-rcm25-esm310-rsr0-rcr11-esr29.npz,,,,,0,33,33,477,,left,green,2.11,680.8086388111115,681.1779339313507,,,1,7,1,lightness,readingArea,realistic,75,2023-03-25_09h59.19.044,tripletExp_regina_11082022,2022.2.4,120.83013562876666,
1,13,11,0,0.111111111111111,0.298245614035088,0,0.111111111111111,3.10526315789474,0,1.0,1.0,ReadingArea_rsl0-rcl11-esl29-rsm0-rcm11-esm310-rsr0-rcr100-esr100,exr/ReadingArea_rsl0-rcl11-esl29-rsm0-rcm11-esm310-rsr0-rcr100-esr100.exr,ReadingArea_rsl0-rcl11-esl29-rsm0-rcm11-esm310-rsr0-rcr100-esr100.npz,,,,,0,34,34,333,,right,red,2.05,684.6761999130249,685.0463418960571,,,1,7,1,lightness,readingArea,realistic,75,2023-03-25_09h59.19.044,tripletExp_regina_11082022,2022.2.4,120.83013562876666,
13,7,11,0,0.111111111111111,3.10526315789474,0,0.111111111111111,1.0,0,1.0,1.0,ReadingArea_rsl0-rcl11-esl310-rsm0-rcm11-esm100-rsr0-rcr100-esr100,exr/ReadingArea_rsl0-rcl11-esl310-rsm0-rcm11-esm100-rsr0-rcr100-esr100.exr,ReadingArea_rsl0-rcl11-esl310-rsm0-rcm11-esm100-rsr0-rcr100-esr100.npz,,,,,0,35,35,121,,left,green,2.05,688.5089519023895,688.8855907917023,,,1,7,1,lightness,readingArea,realistic,75,2023-03-25_09h59.19.044,tripletExp_regina_11082022,2022.2.4,120.83013562876666,
7,14,11,0,0.111111111111111,1.0,0,0.25,3.10526315789474,0,1.0,1.0,ReadingArea_rsl0-rcl11-esl100-rsm0-rcm25-esm310-rsr0-rcr100-esr100,exr/ReadingArea_rsl0-rcl11-esl100-rsm0-rcm25-esm310-rsr0-rcr100-esr100.exr,ReadingArea_rsl0-rcl11-esl100-rsm0-rcm25-esm310-rsr0-rcr100-esr100.npz,,,,,0,36,36,252,,right,red,2.24,692.3668630123138,692.7559130191803,,,1,7,1,lightness,readingArea,realistic,75,2023-03-25_09h59.19.044,tripletExp_regina_11082022,2022.2.4,120.83013562876666,
2,13,0,0,0.25,0.298245614035088,0,0.111111111111111,3.10526315789474,0,0.027777777777778,0.298245614035088,ReadingArea_rsl0-rcl25-esl29-rsm0-rcm11-esm310-rsr0-rcr2-esr29,exr/ReadingArea_rsl0-rcl25-esl29-rsm0-rcm11-esm310-rsr0-rcr2-esr29.exr,ReadingArea_rsl0-rcl25-esl29-rsm0-rcm11-esm310-rsr0-rcr2-esr29.npz,,,,,0,37,37,454,,left,green,2.21,696.209802865982,696.5836479663849,,,1,7,1,lightness,readingArea,realistic,75,2023-03-25_09h59.19.044,tripletExp_regina_11082022,2022.2.4,120.83013562876666,
14,2,8,0,0.25,3.10526315789474,0,0.25,0.298245614035088,0,0.25,1.0,ReadingArea_rsl0-rcl25-esl310-rsm0-rcm25-esm29-rsr0-rcr25-esr100,exr/ReadingArea_rsl0-rcl25-esl310-rsm0-rcm25-esm29-rsr0-rcr25-esr100.exr,ReadingArea_rsl0-rcl25-esl310-rsm0-rcm25-esm29-rsr0-rcr25-esr100.npz,,,,,0,38,38,212,,right,red,2.1,700.0871608257294,700.4733669757843,,,1,7,1,lightness,readingArea,realistic,75,2023-03-25_09h59.19.044,tripletExp_regina_11082022,2022.2.4,120.83013562876666,
6,4,0,0,0.027777777777778,1.0,0,0.694444444444444,0.298245614035088,0,0.027777777777778,0.298245614035088,ReadingArea_rsl0-rcl2-esl100-rsm0-rcm69-esm29-rsr0-rcr2-esr29,exr/ReadingArea_rsl0-rcl2-esl100-rsm0-rcm69-esm29-rsr0-rcr2-esr29.exr,ReadingArea_rsl0-rcl2-esl100-rsm0-rcm69-esm29-rsr0-rcr2-esr29.npz,,,,,0,39,39,360,,left,green,3.19,703.9645509719849,704.3442549705505,,,1,7,1,lightness,readingArea,realistic,75,2023-03-25_09h59.19.044,tripletExp_regina_11082022,2022.2.4,120.83013562876666,
10,7,13,0,0.694444444444444,1.0,0,0.111111111111111,1.0,0,0.111111111111111,3.10526315789474,ReadingArea_rsl0-rcl69-esl100-rsm0-rcm11-esm100-rsr0-rcr11-esr310,exr/ReadingArea_rsl0-rcl69-esl100-rsm0-rcm11-esm100-rsr0-rcr11-esr310.exr,ReadingArea_rsl0-rcl69-esl100-rsm0-rcm11-esm100-rsr0-rcr11-esr310.npz,,,,,0,40,40,379,,right,red,1.85,707.7993748188019,708.1776859760284,,,1,7,1,lightness,readingArea,realistic,75,2023-03-25_09h59.19.044,tripletExp_regina_11082022,2022.2.4,120.83013562876666,
13,4,7,0,0.111111111111111,3.10526315789474,0,0.694444444444444,0.298245614035088,0,0.111111111111111,1.0,ReadingArea_rsl0-rcl11-esl310-rsm0-rcm69-esm29-rsr0-rcr11-esr100,exr/ReadingArea_rsl0-rcl11-esl310-rsm0-rcm69-esm29-rsr0-rcr11-esr100.exr,ReadingArea_rsl0-rcl11-esl310-rsm0-rcm69-esm29-rsr0-rcr11-esr100.npz,,,,,0,41,41,282,,left,green,1.45,709.9011509418488,,,,1,7,1,lightness,readingArea,realistic,75,2023-03-25_09h59.19.044,tripletExp_regina_11082022,2022.2.4,120.83013562876666,
0,10,12,0,0.027777777777778,0.298245614035088,0,0.694444444444444,1.0,0,0.027777777777778,3.10526315789474,ReadingArea_rsl0-rcl2-esl29-rsm0-rcm69-esm100-rsr0-rcr2-esr310,exr/ReadingArea_rsl0-rcl2-esl29-rsm0-rcm69-esm100-rsr0-rcr2-esr310.exr,ReadingArea_rsl0-rcl2-esl29-rsm0-rcm69-esm100-rsr0-rcr2-esr310.npz,,,,,0,42,42,531,,right,red,2.12,713.7430658340454,,,,1,7,1,lightness,readingArea,realistic,75,2023-03-25_09h59.19.044,tripletExp_regina_11082022,2022.2.4,120.83013562876666,
3,4,0,0,0.444444444444444,0.298245614035088,0,0.694444444444444,0.298245614035088,0,0.027777777777778,0.298245614035088,ReadingArea_rsl0-rcl44-esl29-rsm0-rcm69-esm29-rsr0-rcr2-esr29,exr/ReadingArea_rsl0-rcl44-esl29-rsm0-rcm69-esm29-rsr0-rcr2-esr29.exr,ReadingArea_rsl0-rcl44-esl29-rsm0-rcm69-esm29-rsr0-rcr2-esr29.npz,,,,,0,43,43,130,,left,green,1.9,717.6253888607025,717.9988758563995,,,1,7,1,lightness,readingArea,realistic,75,2023-03-25_09h59.19.044,tripletExp_regina_11082022,2022.2.4,120.83013562876666,
1,9,11,0,0.111111111111111,0.298245614035088,0,0.444444444444444,1.0,0,1.0,1.0,ReadingArea_rsl0-rcl11-esl29-rsm0-rcm44-esm100-rsr0-rcr100-esr100,exr/ReadingArea_rsl0-rcl11-esl29-rsm0-rcm44-esm100-rsr0-rcr100-esr100.exr,ReadingArea_rsl0-rcl11-esl29-rsm0-rcm44-esm100-rsr0-rcr100-esr100.npz,,,,,0,44,44,215,,right,red,2.23,721.4438648223877,721.8154449462891,,,1,7,1,lightness,readingArea,realistic,75,2023-03-25_09h59.19.044,tripletExp_regina_11082022,2022.2.4,120.83013562876666,
4,2,0,0,0.694444444444444,0.298245614035088,0,0.25,0.298245614035088,0,0.027777777777778,0.298245614035088,ReadingArea_rsl0-rcl69-esl29-rsm0-rcm25-esm29-rsr0-rcr2-esr29,exr/ReadingArea_rsl0-rcl69-esl29-rsm0-rcm25-esm29-rsr0-rcr2-esr29.exr,ReadingArea_rsl0-rcl69-esl29-rsm0-rcm25-esm29-rsr0-rcr2-esr29.npz,,,,,0,45,45,71,,left,green,0.72,723.5209670066833,723.8904638290405,,,1,7,1,lightness,readingArea,realistic,75,2023-03-25_09h59.19.044,tripletExp_regina_11082022,2022.2.4,120.83013562876666,
11,0,12,0,1.0,1.0,0,0.027777777777778,0.298245614035088,0,0.027777777777778,3.10526315789474,ReadingArea_rsl0-rcl100-esl100-rsm0-rcm2-esm29-rsr0-rcr2-esr310,exr/ReadingArea_rsl0-rcl100-esl100-rsm0-rcm2-esm29-rsr0-rcr2-esr310.exr,ReadingArea_rsl0-rcl100-esl100-rsm0-rcm2-esm29-rsr0-rcr2-esr310.npz,,,,,0,46,46,166,,right,red,2.14,727.383134841919,727.7561359405518,,,1,7,1,lightness,readingArea,realistic,75,2023-03-25_09h59.19.044,tripletExp_regina_11082022,2022.2.4,120.83013562876666,
13,0,12,0,0.111111111111111,3.10526315789474,0,0.027777777777778,0.298245614035088,0,0.027777777777778,3.10526315789474,ReadingArea_rsl0-rcl11-esl310-rsm0-rcm2-esm29-rsr0-rcr2-esr310,exr/ReadingArea_rsl0-rcl11-esl310-rsm0-rcm2-esm29-rsr0-rcr2-esr310.exr,ReadingArea_rsl0-rcl11-esl310-rsm0-rcm2-esm29-rsr0-rcr2-esr310.npz,,,,,0,47,47,56,,right,red,2.14,731.2524919509888,731.6227068901062,,,1,7,1,lightness,readingArea,realistic,75,2023-03-25_09h59.19.044,tripletExp_regina_11082022,2022.2.4,120.83013562876666,
0,5,1,0,0.027777777777778,0.298245614035088,0,1.0,0.298245614035088,0,0.111111111111111,0.298245614035088,ReadingArea_rsl0-rcl2-esl29-rsm0-rcm100-esm29-rsr0-rcr11-esr29,exr/ReadingArea_rsl0-rcl2-esl29-rsm0-rcm100-esm29-rsr0-rcr11-esr29.exr,ReadingArea_rsl0-rcl2-esl29-rsm0-rcm100-esm29-rsr0-rcr11-esr29.npz,,,,,0,48,48,367,,right,red,2.1,735.0933129787445,735.463387966156,,,1,7,1,lightness,readingArea,realistic,75,2023-03-25_09h59.19.044,tripletExp_regina_11082022,2022.2.4,120.83013562876666,
6,4,13,0,0.027777777777778,1.0,0,0.694444444444444,0.298245614035088,0,0.111111111111111,3.10526315789474,ReadingArea_rsl0-rcl2-esl100-rsm0-rcm69-esm29-rsr0-rcr11-esr310,exr/ReadingArea_rsl0-rcl2-esl100-rsm0-rcm69-esm29-rsr0-rcr11-esr310.exr,ReadingArea_rsl0-rcl2-esl100-rsm0-rcm69-esm29-rsr0-rcr11-esr310.npz,,,,,0,49,49,202,,right,red,1.59,737.1853268146515,737.5753209590912,,,1,7,1,lightness,readingArea,realistic,75,2023-03-25_09h59.19.044,tripletExp_regina_11082022,2022.2.4,120.83013562876666,
2,6,13,0,0.25,0.298245614035088,0,0.027777777777778,1.0,0,0.111111111111111,3.10526315789474,ReadingArea_rsl0-rcl25-esl29-rsm0-rcm2-esm100-rsr0-rcr11-esr310,exr/ReadingArea_rsl0-rcl25-esl29-rsm0-rcm2-esm100-rsr0-rcr11-esr310.exr,ReadingArea_rsl0-rcl25-esl29-rsm0-rcm2-esm100-rsr0-rcr11-esr310.npz,,,,,0,50,50,388,,left,green,2.17,741.0182149410248,741.3927419185638,,,1,7,1,lightness,readingArea,realistic,75,2023-03-25_09h59.19.044,tripletExp_regina_11082022,2022.2.4,120.83013562876666,
1,3,4,0,0.111111111111111,0.298245614035088,0,0.444444444444444,0.298245614035088,0,0.694444444444444,0.298245614035088,ReadingArea_rsl0-rcl11-esl29-rsm0-rcm44-esm29-rsr0-rcr69-esr29,exr/ReadingArea_rsl0-rcl11-esl29-rsm0-rcm44-esm29-rsr0-rcr69-esr29.exr,ReadingArea_rsl0-rcl11-esl29-rsm0-rcm44-esm29-rsr0-rcr69-esr29.npz,,,,,0,51,51,153,,right,red,2.28,744.8552138805389,745.2277829647064,,,1,7,1,lightness,readingArea,realistic,75,2023-03-25_09h59.19.044,tripletExp_regina_11082022,2022.2.4,120.83013562876666,
12,6,9,0,0.027777777777778,3.10526315789474,0,0.027777777777778,1.0,0,0.444444444444444,1.0,ReadingArea_rsl0-rcl2-esl310-rsm0-rcm2-esm100-rsr0-rcr44-esr100,exr/ReadingArea_rsl0-rcl2-esl310-rsm0-rcm2-esm100-rsr0-rcr44-esr100.exr,ReadingArea_rsl0-rcl2-esl310-rsm0-rcm2-esm100-rsr0-rcr44-esr100.npz,,,,,0,52,52,177,,left,green,2.45,748.7375249862671,749.1219019889832,,,1,7,1,lightness,readingArea,realistic,75,2023-03-25_09h59.19.044,tripletExp_regina_11082022,2022.2.4,120.83013562876666,
2,9,12,0,0.25,0.298245614035088,0,0.444444444444444,1.0,0,0.027777777777778,3.10526315789474,ReadingArea_rsl0-rcl25-esl29-rsm0-rcm44-esm100-rsr0-rcr2-esr310,exr/ReadingArea_rsl0-rcl25-esl29-rsm0-rcm44-esm100-rsr0-rcr2-esr310.exr,ReadingArea_rsl0-rcl25-esl29-rsm0-rcm44-esm100-rsr0-rcr2-esr310.npz,,,,,0,53,53,354,,left,green,1.46,750.8282649517059,751.2036519050598,,,1,7,1,lightness,readingArea,realistic,75,2023-03-25_09h59.19.044,tripletExp_regina_11082022,2022.2.4,120.83013562876666,
1,12,11,0,0.111111111111111,0.298245614035088,0,0.027777777777778,3.10526315789474,0,1.0,1.0,ReadingArea_rsl0-rcl11-esl29-rsm0-rcm2-esm310-rsr0-rcr100-esr100,exr/ReadingArea_rsl0-rcl11-esl29-rsm0-rcm2-esm310-rsr0-rcr100-esr100.exr,ReadingArea_rsl0-rcl11-esl29-rsm0-rcm2-esm310-rsr0-rcr100-esr100.npz,,,,,0,54,54,178,,right,red,0.99,752.9099957942963,753.3933849334717,,,1,7,1,lightness,readingArea,realistic,75,2023-03-25_09h59.19.044,tripletExp_regina_11082022,2022.2.4,120.83013562876666,
8,9,1,0,0.25,1.0,0,0.444444444444444,1.0,0,0.111111111111111,0.298245614035088,ReadingArea_rsl0-rcl25-esl100-rsm0-rcm44-esm100-rsr0-rcr11-esr29,exr/ReadingArea_rsl0-rcl25-esl100-rsm0-rcm44-esm100-rsr0-rcr11-esr29.exr,ReadingArea_rsl0-rcl25-esl100-rsm0-rcm44-esm100-rsr0-rcr11-esr29.npz,,,,,0,55,55,266,,left,green,0.77,755.1166548728943,,,,1,7,1,lightness,readingArea,realistic,75,2023-03-25_09h59.19.044,tripletExp_regina_11082022,2022.2.4,120.83013562876666,
10,13,1,0,0.694444444444444,1.0,0,0.111111111111111,3.10526315789474,0,0.111111111111111,0.298245614035088,ReadingArea_rsl0-rcl69-esl100-rsm0-rcm11-esm310-rsr0-rcr11-esr29,exr/ReadingArea_rsl0-rcl69-esl100-rsm0-rcm11-esm310-rsr0-rcr11-esr29.exr,ReadingArea_rsl0-rcl69-esl100-rsm0-rcm11-esm310-rsr0-rcr11-esr29.npz,,,,,0,56,56,149,,left,green,0.76,757.199304819107,757.5822598934174,,,1,7,1,lightness,readingArea,realistic,75,2023-03-25_09h59.19.044,tripletExp_regina_11082022,2022.2.4,120.83013562876666,
7,9,3,0,0.111111111111111,1.0,0,0.444444444444444,1.0,0,0.444444444444444,0.298245614035088,ReadingArea_rsl0-rcl11-esl100-rsm0-rcm44-esm100-rsr0-rcr44-esr29,exr/ReadingArea_rsl0-rcl11-esl100-rsm0-rcm44-esm100-rsr0-rcr44-esr29.exr,ReadingArea_rsl0-rcl11-esl100-rsm0-rcm44-esm100-rsr0-rcr44-esr29.npz,,,,,0,57,57,311,,left,green,2.09,761.0752599239349,761.4666438102722,,,1,7,1,lightness,readingArea,realistic,75,2023-03-25_09h59.19.044,tripletExp_regina_11082022,2022.2.4,120.83013562876666,
8,12,13,0,0.25,1.0,0,0.027777777777778,3.10526315789474,0,0.111111111111111,3.10526315789474,ReadingArea_rsl0-rcl25-esl100-rsm0-rcm2-esm310-rsr0-rcr11-esr310,exr/ReadingArea_rsl0-rcl25-esl100-rsm0-rcm2-esm310-rsr0-rcr11-esr310.exr,ReadingArea_rsl0-rcl25-esl100-rsm0-rcm2-esm310-rsr0-rcr11-esr310.npz,,,,,0,58,58,275,,left,green,1.77,763.1585159301758,763.5410118103027,,,1,7,1,lightness,readingArea,realistic,75,2023-03-25_09h59.19.044,tripletExp_regina_11082022,2022.2.4,120.83013562876666,
5,4,12,0,1.0,0.298245614035088,0,0.694444444444444,0.298245614035088,0,0.027777777777778,3.10526315789474,ReadingArea_rsl0-rcl100-esl29-rsm0-rcm69-esm29-rsr0-rcr2-esr310,exr/ReadingArea_rsl0-rcl100-esl29-rsm0-rcm69-esm29-rsr0-rcr2-esr310.exr,ReadingArea_rsl0-rcl100-esl29-rsm0-rcm69-esm29-rsr0-rcr2-esr310.npz,,,,,0,59,59,82,,left,green,1.17,765.2368350028992,765.717288017273,,,1,7,1,lightness,readingArea,realistic,75,2023-03-25_09h59.19.044,tripletExp_regina_11082022,2022.2.4,120.83013562876666,
2,5,0,0,0.25,0.298245614035088,0,1.0,0.298245614035088,0,0.027777777777778,0.298245614035088,ReadingArea_rsl0-rcl25-esl29-rsm0-rcm100-esm29-rsr0-rcr2-esr29,exr/ReadingArea_rsl0-rcl25-esl29-rsm0-rcm100-esm29-rsr0-rcr2-esr29.exr,ReadingArea_rsl0-rcl25-esl29-rsm0-rcm100-esm29-rsr0-rcr2-esr29.npz,,,,,0,60,60,414,,left,green,1.03,767.4212830066681,767.8183779716492,,,1,7,1,lightness,readingArea,realistic,75,2023-03-25_09h59.19.044,tripletExp_regina_11082022,2022.2.4,120.83013562876666,
13,4,0,0,0.111111111111111,3.10526315789474,0,0.694444444444444,0.298245614035088,0,0.027777777777778,0.298245614035088,ReadingArea_rsl0-rcl11-esl310-rsm0-rcm69-esm29-rsr0-rcr2-esr29,exr/ReadingArea_rsl0-rcl11-esl310-rsm0-rcm69-esm29-rsr0-rcr2-esr29.exr,ReadingArea_rsl0-rcl11-esl310-rsm0-rcm69-esm29-rsr0-rcr2-esr29.npz,,,,,0,61,61,269,,left,green,0.81,769.5190978050232,,,,1,7,1,lightness,readingArea,realistic,75,2023-03-25_09h59.19.044,tripletExp_regina_11082022,2022.2.4,120.83013562876666,
9,14,7,0,0.444444444444444,1.0,0,0.25,3.10526315789474,0,0.111111111111111,1.0,ReadingArea_rsl0-rcl44-esl100-rsm0-rcm25-esm310-rsr0-rcr11-esr100,exr/ReadingArea_rsl0-rcl44-esl100-rsm0-rcm25-esm310-rsr0-rcr11-esr100.exr,ReadingArea_rsl0-rcl44-esl100-rsm0-rcm25-esm310-rsr0-rcr11-esr100.npz,,,,,0,62,62,44,,left,green,0.8,771.6127398014069,771.977452993393,,,1,7,1,lightness,readingArea,realistic,75,2023-03-25_09h59.19.044,tripletExp_regina_11082022,2022.2.4,120.83013562876666,
12,13,14,0,0.027777777777778,3.10526315789474,0,0.111111111111111,3.10526315789474,0,0.25,3.10526315789474,ReadingArea_rsl0-rcl2-esl310-rsm0-rcm11-esm310-rsr0-rcr25-esr310,exr/ReadingArea_rsl0-rcl2-esl310-rsm0-rcm11-esm310-rsr0-rcr25-esr310.exr,ReadingArea_rsl0-rcl2-esl310-rsm0-rcm11-esm310-rsr0-rcr25-esr310.npz,,,,,0,63,63,208,,left,green,1.21,773.6734538078308,774.0861809253693,,,1,7,1,lightness,readingArea,realistic,75,2023-03-25_09h59.19.044,tripletExp_regina_11082022,2022.2.4,120.83013562876666,
2,0,3,0,0.25,0.298245614035088,0,0.027777777777778,0.298245614035088,0,0.444444444444444,0.298245614035088,ReadingArea_rsl0-rcl25-esl29-rsm0-rcm2-esm29-rsr0-rcr44-esr29,exr/ReadingArea_rsl0-rcl25-esl29-rsm0-rcm2-esm29-rsr0-rcr44-esr29.exr,ReadingArea_rsl0-rcl25-esl29-rsm0-rcm2-esm29-rsr0-rcr44-esr29.npz,,,,,0,64,64,338,,left,green,2.23,777.5555689334869,778.0600500106812,,,1,7,1,lightness,readingArea,realistic,75,2023-03-25_09h59.19.044,tripletExp_regina_11082022,2022.2.4,120.83013562876666,
8,4,2,0,0.25,1.0,0,0.694444444444444,0.298245614035088,0,0.25,0.298245614035088,ReadingArea_rsl0-rcl25-esl100-rsm0-rcm69-esm29-rsr0-rcr25-esr29,exr/ReadingArea_rsl0-rcl25-esl100-rsm0-rcm69-esm29-rsr0-rcr25-esr29.exr,ReadingArea_rsl0-rcl25-esl100-rsm0-rcm69-esm29-rsr0-rcr25-esr29.npz,,,,,0,65,65,184,,left,green,0.91,779.7775268554688,780.1493699550629,,,1,7,1,lightness,readingArea,realistic,75,2023-03-25_09h59.19.044,tripletExp_regina_11082022,2022.2.4,120.83013562876666,
6,11,8,0,0.027777777777778,1.0,0,1.0,1.0,0,0.25,1.0,ReadingArea_rsl0-rcl2-esl100-rsm0-rcm100-esm100-rsr0-rcr25-esr100,exr/ReadingArea_rsl0-rcl2-esl100-rsm0-rcm100-esm100-rsr0-rcr25-esr100.exr,ReadingArea_rsl0-rcl2-esl100-rsm0-rcm100-esm100-rsr0-rcr25-esr100.npz,,,,,0,66,66,176,,right,red,2.35,783.6642329692841,784.0517728328705,,,1,7,1,lightness,readingArea,realistic,75,2023-03-25_09h59.19.044,tripletExp_regina_11082022,2022.2.4,120.83013562876666,
8,4,1,0,0.25,1.0,0,0.694444444444444,0.298245614035088,0,0.111111111111111,0.298245614035088,ReadingArea_rsl0-rcl25-esl100-rsm0-rcm69-esm29-rsr0-rcr11-esr29,exr/ReadingArea_rsl0-rcl25-esl100-rsm0-rcm69-esm29-rsr0-rcr11-esr29.exr,ReadingArea_rsl0-rcl25-esl100-rsm0-rcm69-esm29-rsr0-rcr11-esr29.npz,,,,,0,67,67,286,,left,green,2.09,787.5212979316711,,,,1,7,1,lightness,readingArea,realistic,75,2023-03-25_09h59.19.044,tripletExp_regina_11082022,2022.2.4,120.83013562876666,
10,6,13,0,0.694444444444444,1.0,0,0.027777777777778,1.0,0,0.111111111111111,3.10526315789474,ReadingArea_rsl0-rcl69-esl100-rsm0-rcm2-esm100-rsr0-rcr11-esr310,exr/ReadingArea_rsl0-rcl69-esl100-rsm0-rcm2-esm100-rsr0-rcr11-esr310.exr,ReadingArea_rsl0-rcl69-esl100-rsm0-rcm2-esm100-rsr0-rcr11-esr310.npz,,,,,0,68,68,41,,right,red,2.16,791.382091999054,791.7581939697266,,,1,7,1,lightness,readingArea,realistic,75,2023-03-25_09h59.19.044,tripletExp_regina_11082022,2022.2.4,120.83013562876666,
2,14,9,0,0.25,0.298245614035088,0,0.25,3.10526315789474,0,0.444444444444444,1.0,ReadingArea_rsl0-rcl25-esl29-rsm0-rcm25-esm310-rsr0-rcr44-esr100,exr/ReadingArea_rsl0-rcl25-esl29-rsm0-rcm25-esm310-rsr0-rcr44-esr100.exr,ReadingArea_rsl0-rcl25-esl29-rsm0-rcm25-esm310-rsr0-rcr44-esr100.npz,,,,,0,69,69,51,,right,red,2.29,795.2194550037384,795.696671962738,,,1,7,1,lightness,readingArea,realistic,75,2023-03-25_09h59.19.044,tripletExp_regina_11082022,2022.2.4,120.83013562876666,
8,12,3,0,0.25,1.0,0,0.027777777777778,3.10526315789474,0,0.444444444444444,0.298245614035088,ReadingArea_rsl0-rcl25-esl100-rsm0-rcm2-esm310-rsr0-rcr44-esr29,exr/ReadingArea_rsl0-rcl25-esl100-rsm0-rcm2-esm310-rsr0-rcr44-esr29.exr,ReadingArea_rsl0-rcl25-esl100-rsm0-rcm2-esm310-rsr0-rcr44-esr29.npz,,,,,0,70,70,6,,right,red,2.23,799.1671538352966,799.5583097934723,,,1,7,1,lightness,readingArea,realistic,75,2023-03-25_09h59.19.044,tripletExp_regina_11082022,2022.2.4,120.83013562876666,
6,13,5,0,0.027777777777778,1.0,0,0.111111111111111,3.10526315789474,0,1.0,0.298245614035088,ReadingArea_rsl0-rcl2-esl100-rsm0-rcm11-esm310-rsr0-rcr100-esr29,exr/ReadingArea_rsl0-rcl2-esl100-rsm0-rcm11-esm310-rsr0-rcr100-esr29.exr,ReadingArea_rsl0-rcl2-esl100-rsm0-rcm11-esm310-rsr0-rcr100-esr29.npz,,,,,0,71,71,53,,right,red,1.4,801.2739808559418,,,,1,7,1,lightness,readingArea,realistic,75,2023-03-25_09h59.19.044,tripletExp_regina_11082022,2022.2.4,120.83013562876666,
3,10,9,0,0.444444444444444,0.298245614035088,0,0.694444444444444,1.0,0,0.444444444444444,1.0,ReadingArea_rsl0-rcl44-esl29-rsm0-rcm69-esm100-rsr0-rcr44-esr100,exr/ReadingArea_rsl0-rcl44-esl29-rsm0-rcm69-esm100-rsr0-rcr44-esr100.exr,ReadingArea_rsl0-rcl44-esl29-rsm0-rcm69-esm100-rsr0-rcr44-esr100.npz,,,,,0,72,72,222,,right,red,0.94,803.3793318271637,803.7528228759766,,,1,7,1,lightness,readingArea,realistic,75,2023-03-25_09h59.19.044,tripletExp_regina_11082022,2022.2.4,120.83013562876666,
1,11,14,0,0.111111111111111,0.298245614035088,0,1.0,1.0,0,0.25,3.10526315789474,ReadingArea_rsl0-rcl11-esl29-rsm0-rcm100-esm100-rsr0-rcr25-esr310,exr/ReadingArea_rsl0-rcl11-esl29-rsm0-rcm100-esm100-rsr0-rcr25-esr310.exr,ReadingArea_rsl0-rcl11-esl29-rsm0-rcm100-esm100-rsr0-rcr25-esr310.npz,,,,,0,73,73,399,,right,red,0.8,805.4445779323578,805.8221619129181,,,1,7,1,lightness,readingArea,realistic,75,2023-03-25_09h59.19.044,tripletExp_regina_11082022,2022.2.4,120.83013562876666,
11,13,8,0,1.0,1.0,0,0.111111111111111,3.10526315789474,0,0.25,1.0,ReadingArea_rsl0-rcl100-esl100-rsm0-rcm11-esm310-rsr0-rcr25-esr100,exr/ReadingArea_rsl0-rcl100-esl100-rsm0-rcm11-esm310-rsr0-rcr25-esr100.exr,ReadingArea_rsl0-rcl100-esl100-rsm0-rcm11-esm310-rsr0-rcr25-esr100.npz,,,,,0,74,74,198,,right,red,2.13,809.2967298030853,809.4987800121307,,,1,7,1,lightness,readingArea,realistic,75,2023-03-25_09h59.19.044,tripletExp_regina_11082022,2022.2.4,120.83013562876666,
2,0,13,0,0.25,0.298245614035088,0,0.027777777777778,0.298245614035088,0,0.111111111111111,3.10526315789474,ReadingArea_rsl0-rcl25-esl29-rsm0-rcm2-esm29-rsr0-rcr11-esr310,exr/ReadingArea_rsl0-rcl25-esl29-rsm0-rcm2-esm29-rsr0-rcr11-esr310.exr,ReadingArea_rsl0-rcl25-esl29-rsm0-rcm2-esm29-rsr0-rcr11-esr310.npz,,,,,0,75,75,50,,left,green,2.32,823.1028938293457,823.4925668239594,,,2,7,1,lightness,readingArea,realistic,75,2023-03-25_09h59.19.044,tripletExp_regina_11082022,2022.2.4,120.83013562876666,
5,0,10,0,1.0,0.298245614035088,0,0.027777777777778,0.298245614035088,0,0.694444444444444,1.0,ReadingArea_rsl0-rcl100-esl29-rsm0-rcm2-esm29-rsr0-rcr69-esr100,exr/ReadingArea_rsl0-rcl100-esl29-rsm0-rcm2-esm29-rsr0-rcr69-esr100.exr,ReadingArea_rsl0-rcl100-esl29-rsm0-rcm2-esm29-rsr0-rcr69-esr100.npz,,,,,0,76,76,361,,left,green,2.12,826.9397678375244,827.3255219459534,,,2,7,1,lightness,readingArea,realistic,75,2023-03-25_09h59.19.044,tripletExp_regina_11082022,2022.2.4,120.83013562876666,
14,0,3,0,0.25,3.10526315789474,0,0.027777777777778,0.298245614035088,0,0.444444444444444,0.298245614035088,ReadingArea_rsl0-rcl25-esl310-rsm0-rcm2-esm29-rsr0-rcr44-esr29,exr/ReadingArea_rsl0-rcl25-esl310-rsm0-rcm2-esm29-rsr0-rcr44-esr29.exr,ReadingArea_rsl0-rcl25-esl310-rsm0-rcm2-esm29-rsr0-rcr44-esr29.npz,,,,,0,77,77,75,,right,red,2.34,830.816773891449,831.1920340061188,,,2,7,1,lightness,readingArea,realistic,75,2023-03-25_09h59.19.044,tripletExp_regina_11082022,2022.2.4,120.83013562876666,
0,10,14,0,0.027777777777778,0.298245614035088,0,0.694444444444444,1.0,0,0.25,3.10526315789474,ReadingArea_rsl0-rcl2-esl29-rsm0-rcm69-esm100-rsr0-rcr25-esr310,exr/ReadingArea_rsl0-rcl2-esl29-rsm0-rcm69-esm100-rsr0-rcr25-esr310.exr,ReadingArea_rsl0-rcl2-esl29-rsm0-rcm69-esm100-rsr0-rcr25-esr310.npz,,,,,0,78,78,31,,right,red,2.39,834.6688499450684,835.0482909679413,,,2,7,1,lightness,readingArea,realistic,75,2023-03-25_09h59.19.044,tripletExp_regina_11082022,2022.2.4,120.83013562876666,
2,1,3,0,0.25,0.298245614035088,0,0.111111111111111,0.298245614035088,0,0.444444444444444,0.298245614035088,ReadingArea_rsl0-rcl25-esl29-rsm0-rcm11-esm29-rsr0-rcr44-esr29,exr/ReadingArea_rsl0-rcl25-esl29-rsm0-rcm11-esm29-rsr0-rcr44-esr29.exr,ReadingArea_rsl0-rcl25-esl29-rsm0-rcm11-esm29-rsr0-rcr44-esr29.npz,,,,,0,79,79,85,,left,green,3.93,840.3390979766846,840.7232429981232,,,2,7,1,lightness,readingArea,realistic,75,2023-03-25_09h59.19.044,tripletExp_regina_11082022,2022.2.4,120.83013562876666,
0,8,6,0,0.027777777777778,0.298245614035088,0,0.25,1.0,0,0.027777777777778,1.0,ReadingArea_rsl0-rcl2-esl29-rsm0-rcm25-esm100-rsr0-rcr2-esr100,exr/ReadingArea_rsl0-rcl2-esl29-rsm0-rcm25-esm100-rsr0-rcr2-esr100.exr,ReadingArea_rsl0-rcl2-esl29-rsm0-rcm25-esm100-rsr0-rcr2-esr100.npz,,,,,0,80,80,92,,right,red,3.8,845.9743959903717,846.4876430034637,,,2,7,1,lightness,readingArea,realistic,75,2023-03-25_09h59.19.044,tripletExp_regina_11082022,2022.2.4,120.83013562876666,
1,14,0,0,0.111111111111111,0.298245614035088,0,0.25,3.10526315789474,0,0.027777777777778,0.298245614035088,ReadingArea_rsl0-rcl11-esl29-rsm0-rcm25-esm310-rsr0-rcr2-esr29,exr/ReadingArea_rsl0-rcl11-esl29-rsm0-rcm25-esm310-rsr0-rcr2-esr29.exr,ReadingArea_rsl0-rcl11-esl29-rsm0-rcm25-esm310-rsr0-rcr2-esr29.npz,,,,,0,81,81,394,,left,green,3.27,849.9381659030914,850.3244359493256,,,2,7,1,lightness,readingArea,realistic,75,2023-03-25_09h59.19.044,tripletExp_regina_11082022,2022.2.4,120.83013562876666,
5,10,2,0,1.0,0.298245614035088,0,0.694444444444444,1.0,0,0.25,0.298245614035088,ReadingArea_rsl0-rcl100-esl29-rsm0-rcm69-esm100-rsr0-rcr25-esr29,exr/ReadingArea_rsl0-rcl100-esl29-rsm0-rcm69-esm100-rsr0-rcr25-esr29.exr,ReadingArea_rsl0-rcl100-esl29-rsm0-rcm69-esm100-rsr0-rcr25-esr29.npz,,,,,0,82,82,489,,left,green,3.77,855.5357739925385,855.9154629707336,,,2,7,1,lightness,readingArea,realistic,75,2023-03-25_09h59.19.044,tripletExp_regina_11082022,2022.2.4,120.83013562876666,
1,14,7,0,0.111111111111111,0.298245614035088,0,0.25,3.10526315789474,0,0.111111111111111,1.0,ReadingArea_rsl0-rcl11-esl29-rsm0-rcm25-esm310-rsr0-rcr11-esr100,exr/ReadingArea_rsl0-rcl11-esl29-rsm0-rcm25-esm310-rsr0-rcr11-esr100.exr,ReadingArea_rsl0-rcl11-esl29-rsm0-rcm25-esm310-rsr0-rcr11-esr100.npz,,,,,0,83,83,583,,right,red,3.83,861.1735048294067,861.5506808757782,,,2,7,1,lightness,readingArea,realistic,75,2023-03-25_09h59.19.044,tripletExp_regina_11082022,2022.2.4,120.83013562876666,
0,13,12,0,0.027777777777778,0.298245614035088,0,0.111111111111111,3.10526315789474,0,0.027777777777778,3.10526315789474,ReadingArea_rsl0-rcl2-esl29-rsm0-rcm11-esm310-rsr0-rcr2-esr310,exr/ReadingArea_rsl0-rcl2-esl29-rsm0-rcm11-esm310-rsr0-rcr2-esr310.exr,ReadingArea_rsl0-rcl2-esl29-rsm0-rcm11-esm310-rsr0-rcr2-esr310.npz,,,,,0,84,84,501,,right,red,3.24,865.0090939998627,,,,2,7,1,lightness,readingArea,realistic,75,2023-03-25_09h59.19.044,tripletExp_regina_11082022,2022.2.4,120.83013562876666,
13,8,0,0,0.111111111111111,3.10526315789474,0,0.25,1.0,0,0.027777777777778,0.298245614035088,ReadingArea_rsl0-rcl11-esl310-rsm0-rcm25-esm100-rsr0-rcr2-esr29,exr/ReadingArea_rsl0-rcl11-esl310-rsm0-rcm25-esm100-rsr0-rcr2-esr29.exr,ReadingArea_rsl0-rcl11-esl310-rsm0-rcm25-esm100-rsr0-rcr2-esr29.npz,,,,,0,85,85,429,,left,green,2.14,868.8529708385468,869.2353708744049,,,2,7,1,lightness,readingArea,realistic,75,2023-03-25_09h59.19.044,tripletExp_regina_11082022,2022.2.4,120.83013562876666,
3,1,0,0,0.444444444444444,0.298245614035088,0,0.111111111111111,0.298245614035088,0,0.027777777777778,0.298245614035088,ReadingArea_rsl0-rcl44-esl29-rsm0-rcm11-esm29-rsr0-rcr2-esr29,exr/ReadingArea_rsl0-rcl44-esl29-rsm0-rcm11-esm29-rsr0-rcr2-esr29.exr,ReadingArea_rsl0-rcl44-esl29-rsm0-rcm11-esm29-rsr0-rcr2-esr29.npz,,,,,0,86,86,343,,right,red,2.44,872.6967778205872,873.0760300159454,,,2,7,1,lightness,readingArea,realistic,75,2023-03-25_09h59.19.044,tripletExp_regina_11082022,2022.2.4,120.83013562876666,
5,4,10,0,1.0,0.298245614035088,0,0.694444444444444,0.298245614035088,0,0.694444444444444,1.0,ReadingArea_rsl0-rcl100-esl29-rsm0-rcm69-esm29-rsr0-rcr69-esr100,exr/ReadingArea_rsl0-rcl100-esl29-rsm0-rcm69-esm29-rsr0-rcr69-esr100.exr,ReadingArea_rsl0-rcl100-esl29-rsm0-rcm69-esm29-rsr0-rcr69-esr100.npz,,,,,0,87,87,536,,left,green,2.37,876.521714925766,876.9083487987518,,,2,7,1,lightness,readingArea,realistic,75,2023-03-25_09h59.19.044,tripletExp_regina_11082022,2022.2.4,120.83013562876666,
5,2,10,0,1.0,0.298245614035088,0,0.25,0.298245614035088,0,0.694444444444444,1.0,ReadingArea_rsl0-rcl100-esl29-rsm0-rcm25-esm29-rsr0-rcr69-esr100,exr/ReadingArea_rsl0-rcl100-esl29-rsm0-rcm25-esm29-rsr0-rcr69-esr100.exr,ReadingArea_rsl0-rcl100-esl29-rsm0-rcm25-esm29-rsr0-rcr69-esr100.npz,,,,,0,88,88,595,,left,green,3.91,882.1576910018921,882.6339769363403,,,2,7,1,lightness,readingArea,realistic,75,2023-03-25_09h59.19.044,tripletExp_regina_11082022,2022.2.4,120.83013562876666,
1,10,0,0,0.111111111111111,0.298245614035088,0,0.694444444444444,1.0,0,0.027777777777778,0.298245614035088,ReadingArea_rsl0-rcl11-esl29-rsm0-rcm69-esm100-rsr0-rcr2-esr29,exr/ReadingArea_rsl0-rcl11-esl29-rsm0-rcm69-esm100-rsr0-rcr2-esr29.exr,ReadingArea_rsl0-rcl11-esl29-rsm0-rcm69-esm100-rsr0-rcr2-esr29.npz,,,,,0,89,89,196,,left,green,3.63,887.8918249607086,888.2790629863739,,,2,7,1,lightness,readingArea,realistic,75,2023-03-25_09h59.19.044,tripletExp_regina_11082022,2022.2.4,120.83013562876666,
12,1,2,0,0.027777777777778,3.10526315789474,0,0.111111111111111,0.298245614035088,0,0.25,0.298245614035088,ReadingArea_rsl0-rcl2-esl310-rsm0-rcm11-esm29-rsr0-rcr25-esr29,exr/ReadingArea_rsl0-rcl2-esl310-rsm0-rcm11-esm29-rsr0-rcr25-esr29.exr,ReadingArea_rsl0-rcl2-esl310-rsm0-rcm11-esm29-rsr0-rcr25-esr29.npz,,,,,0,90,90,231,,right,red,4.08,893.5093169212341,894.0724627971649,,,2,7,1,lightness,readingArea,realistic,75,2023-03-25_09h59.19.044,tripletExp_regina_11082022,2022.2.4,120.83013562876666,
7,13,5,0,0.111111111111111,1.0,0,0.111111111111111,3.10526315789474,0,1.0,0.298245614035088,ReadingArea_rsl0-rcl11-esl100-rsm0-rcm11-esm310-rsr0-rcr100-esr29,exr/ReadingArea_rsl0-rcl11-esl100-rsm0-rcm11-esm310-rsr0-rcr100-esr29.exr,ReadingArea_rsl0-rcl11-esl100-rsm0-rcm11-esm310-rsr0-rcr100-esr29.npz,,,,,0,91,91,332,,right,red,3.77,899.332906961441,899.8108868598938,,,2,7,1,lightness,readingArea,realistic,75,2023-03-25_09h59.19.044,tripletExp_regina_11082022,2022.2.4,120.83013562876666,
10,8,1,0,0.694444444444444,1.0,0,0.25,1.0,0,0.111111111111111,0.298245614035088,ReadingArea_rsl0-rcl69-esl100-rsm0-rcm25-esm100-rsr0-rcr11-esr29,exr/ReadingArea_rsl0-rcl69-esl100-rsm0-rcm25-esm100-rsr0-rcr11-esr29.exr,ReadingArea_rsl0-rcl69-esl100-rsm0-rcm25-esm100-rsr0-rcr11-esr29.npz,,,,,0,92,92,247,,left,green,3.77,905.0293929576874,905.4212849140168,,,2,7,1,lightness,readingArea,realistic,75,2023-03-25_09h59.19.044,tripletExp_regina_11082022,2022.2.4,120.83013562876666,
9,13,0,0,0.444444444444444,1.0,0,0.111111111111111,3.10526315789474,0,0.027777777777778,0.298245614035088,ReadingArea_rsl0-rcl44-esl100-rsm0-rcm11-esm310-rsr0-rcr2-esr29,exr/ReadingArea_rsl0-rcl44-esl100-rsm0-rcm11-esm310-rsr0-rcr2-esr29.exr,ReadingArea_rsl0-rcl44-esl100-rsm0-rcm11-esm310-rsr0-rcr2-esr29.npz,,,,,0,93,93,205,,left,green,2.14,908.8930149078368,909.2733249664308,,,2,7,1,lightness,readingArea,realistic,75,2023-03-25_09h59.19.044,tripletExp_regina_11082022,2022.2.4,120.83013562876666,
2,8,4,0,0.25,0.298245614035088,0,0.25,1.0,0,0.694444444444444,0.298245614035088,ReadingArea_rsl0-rcl25-esl29-rsm0-rcm25-esm100-rsr0-rcr69-esr29,exr/ReadingArea_rsl0-rcl25-esl29-rsm0-rcm25-esm100-rsr0-rcr69-esr29.exr,ReadingArea_rsl0-rcl25-esl29-rsm0-rcm25-esm100-rsr0-rcr69-esr29.npz,,,,,0,94,94,507,,right,red,2.22,912.755980014801,913.1374039649965,,,2,7,1,lightness,readingArea,realistic,75,2023-03-25_09h59.19.044,tripletExp_regina_11082022,2022.2.4,120.83013562876666,
14,6,5,0,0.25,3.10526315789474,0,0.027777777777778,1.0,0,1.0,0.298245614035088,ReadingArea_rsl0-rcl25-esl310-rsm0-rcm2-esm100-rsr0-rcr100-esr29,exr/ReadingArea_rsl0-rcl25-esl310-rsm0-rcm2-esm100-rsr0-rcr100-esr29.exr,ReadingArea_rsl0-rcl25-esl310-rsm0-rcm2-esm100-rsr0-rcr100-esr29.npz,,,,,0,95,95,297,,right,red,2.33,916.600445985794,,,,2,7,1,lightness,readingArea,realistic,75,2023-03-25_09h59.19.044,tripletExp_regina_11082022,2022.2.4,120.83013562876666,
3,4,11,0,0.444444444444444,0.298245614035088,0,0.694444444444444,0.298245614035088,0,1.0,1.0,ReadingArea_rsl0-rcl44-esl29-rsm0-rcm69-esm29-rsr0-rcr100-esr100,exr/ReadingArea_rsl0-rcl44-esl29-rsm0-rcm69-esm29-rsr0-rcr100-esr100.exr,ReadingArea_rsl0-rcl44-esl29-rsm0-rcm69-esm29-rsr0-rcr100-esr100.npz,,,,,0,96,96,207,,left,green,2.06,920.4491448402404,920.9304769039154,,,2,7,1,lightness,readingArea,realistic,75,2023-03-25_09h59.19.044,tripletExp_regina_11082022,2022.2.4,120.83013562876666,
9,11,6,0,0.444444444444444,1.0,0,1.0,1.0,0,0.027777777777778,1.0,ReadingArea_rsl0-rcl44-esl100-rsm0-rcm100-esm100-rsr0-rcr2-esr100,exr/ReadingArea_rsl0-rcl44-esl100-rsm0-rcm100-esm100-rsr0-rcr2-esr100.exr,ReadingArea_rsl0-rcl44-esl100-rsm0-rcm100-esm100-rsr0-rcr2-esr100.npz,,,,,0,97,97,404,,left,green,2.43,924.4291579723358,924.8077688217164,,,2,7,1,lightness,readingArea,realistic,75,2023-03-25_09h59.19.044,tripletExp_regina_11082022,2022.2.4,120.83013562876666,
4,8,14,0,0.694444444444444,0.298245614035088,0,0.25,1.0,0,0.25,3.10526315789474,ReadingArea_rsl0-rcl69-esl29-rsm0-rcm25-esm100-rsr0-rcr25-esr310,exr/ReadingArea_rsl0-rcl69-esl29-rsm0-rcm25-esm100-rsr0-rcr25-esr310.exr,ReadingArea_rsl0-rcl69-esl29-rsm0-rcm25-esm100-rsr0-rcr25-esr310.npz,,,,,0,98,98,234,,left,green,3.89,930.0655519962312,930.456170797348,,,2,7,1,lightness,readingArea,realistic,75,2023-03-25_09h59.19.044,tripletExp_regina_11082022,2022.2.4,120.83013562876666,
10,7,2,0,0.694444444444444,1.0,0,0.111111111111111,1.0,0,0.25,0.298245614035088,ReadingArea_rsl0-rcl69-esl100-rsm0-rcm11-esm100-rsr0-rcr25-esr29,exr/ReadingArea_rsl0-rcl69-esl100-rsm0-rcm11-esm100-rsr0-rcr25-esr29.exr,ReadingArea_rsl0-rcl69-esl100-rsm0-rcm11-esm100-rsr0-rcr25-esr29.npz,,,,,0,99,99,523,,right,red,3.5,933.9347069263458,934.3063979148864,,,2,7,1,lightness,readingArea,realistic,75,2023-03-25_09h59.19.044,tripletExp_regina_11082022,2022.2.4,120.83013562876666,
14,13,0,0,0.25,3.10526315789474,0,0.111111111111111,3.10526315789474,0,0.027777777777778,0.298245614035088,ReadingArea_rsl0-rcl25-esl310-rsm0-rcm11-esm310-rsr0-rcr2-esr29,exr/ReadingArea_rsl0-rcl25-esl310-rsm0-rcm11-esm310-rsr0-rcr2-esr29.exr,ReadingArea_rsl0-rcl25-esl310-rsm0-rcm11-esm310-rsr0-rcr2-esr29.npz,,,,,0,100,100,417,,left,green,2.5,937.7789368629456,,,,2,7,1,lightness,readingArea,realistic,75,2023-03-25_09h59.19.044,tripletExp_regina_11082022,2022.2.4,120.83013562876666,
7,8,12,0,0.111111111111111,1.0,0,0.25,1.0,0,0.027777777777778,3.10526315789474,ReadingArea_rsl0-rcl11-esl100-rsm0-rcm25-esm100-rsr0-rcr2-esr310,exr/ReadingArea_rsl0-rcl11-esl100-rsm0-rcm25-esm100-rsr0-rcr2-esr310.exr,ReadingArea_rsl0-rcl11-esl100-rsm0-rcm25-esm100-rsr0-rcr2-esr310.npz,,,,,0,101,101,271,,right,red,3.95,943.4184169769288,943.797492980957,,,2,7,1,lightness,readingArea,realistic,75,2023-03-25_09h59.19.044,tripletExp_regina_11082022,2022.2.4,120.83013562876666,
8,11,1,0,0.25,1.0,0,1.0,1.0,0,0.111111111111111,0.298245614035088,ReadingArea_rsl0-rcl25-esl100-rsm0-rcm100-esm100-rsr0-rcr11-esr29,exr/ReadingArea_rsl0-rcl25-esl100-rsm0-rcm100-esm100-rsr0-rcr11-esr29.exr,ReadingArea_rsl0-rcl25-esl100-rsm0-rcm100-esm100-rsr0-rcr11-esr29.npz,,,,,0,102,102,132,,left,green,3.92,949.0620379447936,949.4672667980194,,,2,7,1,lightness,readingArea,realistic,75,2023-03-25_09h59.19.044,tripletExp_regina_11082022,2022.2.4,120.83013562876666,
11,7,14,0,1.0,1.0,0,0.111111111111111,1.0,0,0.25,3.10526315789474,ReadingArea_rsl0-rcl100-esl100-rsm0-rcm11-esm100-rsr0-rcr25-esr310,exr/ReadingArea_rsl0-rcl100-esl100-rsm0-rcm11-esm100-rsr0-rcr25-esr310.exr,ReadingArea_rsl0-rcl100-esl100-rsm0-rcm11-esm100-rsr0-rcr25-esr310.npz,,,,,0,103,103,119,,right,red,4.19,954.717355966568,955.1759178638458,,,2,7,1,lightness,readingArea,realistic,75,2023-03-25_09h59.19.044,tripletExp_regina_11082022,2022.2.4,120.83013562876666,
2,4,10,0,0.25,0.298245614035088,0,0.694444444444444,0.298245614035088,0,0.694444444444444,1.0,ReadingArea_rsl0-rcl25-esl29-rsm0-rcm69-esm29-rsr0-rcr69-esr100,exr/ReadingArea_rsl0-rcl25-esl29-rsm0-rcm69-esm29-rsr0-rcr69-esr100.exr,ReadingArea_rsl0-rcl25-esl29-rsm0-rcm69-esm29-rsr0-rcr69-esr100.npz,,,,,0,104,104,174,,left,green,3.38,958.6392369270324,959.0161509513856,,,2,7,1,lightness,readingArea,realistic,75,2023-03-25_09h59.19.044,tripletExp_regina_11082022,2022.2.4,120.83013562876666,
2,11,8,0,0.25,0.298245614035088,0,1.0,1.0,0,0.25,1.0,ReadingArea_rsl0-rcl25-esl29-rsm0-rcm100-esm100-rsr0-rcr25-esr100,exr/ReadingArea_rsl0-rcl25-esl29-rsm0-rcm100-esm100-rsr0-rcr25-esr100.exr,ReadingArea_rsl0-rcl25-esl29-rsm0-rcm100-esm100-rsr0-rcr25-esr100.npz,,,,,0,105,105,364,,right,red,2.75,962.503448009491,962.8840630054474,,,2,7,1,lightness,readingArea,realistic,75,2023-03-25_09h59.19.044,tripletExp_regina_11082022,2022.2.4,120.83013562876666,
12,7,9,0,0.027777777777778,3.10526315789474,0,0.111111111111111,1.0,0,0.444444444444444,1.0,ReadingArea_rsl0-rcl2-esl310-rsm0-rcm11-esm100-rsr0-rcr44-esr100,exr/ReadingArea_rsl0-rcl2-esl310-rsm0-rcm11-esm100-rsr0-rcr44-esr100.exr,ReadingArea_rsl0-rcl2-esl310-rsm0-rcm11-esm100-rsr0-rcr44-esr100.npz,,,,,0,106,106,124,,left,green,2.11,966.3532028198242,966.7442309856416,,,2,7,1,lightness,readingArea,realistic,75,2023-03-25_09h59.19.044,tripletExp_regina_11082022,2022.2.4,120.83013562876666,
12,3,11,0,0.027777777777778,3.10526315789474,0,0.444444444444444,0.298245614035088,0,1.0,1.0,ReadingArea_rsl0-rcl2-esl310-rsm0-rcm44-esm29-rsr0-rcr100-esr100,exr/ReadingArea_rsl0-rcl2-esl310-rsm0-rcm44-esm29-rsr0-rcr100-esr100.exr,ReadingArea_rsl0-rcl2-esl310-rsm0-rcm44-esm29-rsr0-rcr100-esr100.npz,,,,,0,107,107,83,,left,green,2.15,970.224905014038,970.5988698005676,,,2,7,1,lightness,readingArea,realistic,75,2023-03-25_09h59.19.044,tripletExp_regina_11082022,2022.2.4,120.83013562876666,
14,7,1,0,0.25,3.10526315789474,0,0.111111111111111,1.0,0,0.111111111111111,0.298245614035088,ReadingArea_rsl0-rcl25-esl310-rsm0-rcm11-esm100-rsr0-rcr11-esr29,exr/ReadingArea_rsl0-rcl25-esl310-rsm0-rcm11-esm100-rsr0-rcr11-esr29.exr,ReadingArea_rsl0-rcl25-esl310-rsm0-rcm11-esm100-rsr0-rcr11-esr29.npz,,,,,0,108,108,298,,right,red,1.97,974.07577085495,,,,2,7,1,lightness,readingArea,realistic,75,2023-03-25_09h59.19.044,tripletExp_regina_11082022,2022.2.4,120.83013562876666,
0,5,7,0,0.027777777777778,0.298245614035088,0,1.0,0.298245614035088,0,0.111111111111111,1.0,ReadingArea_rsl0-rcl2-esl29-rsm0-rcm100-esm29-rsr0-rcr11-esr100,exr/ReadingArea_rsl0-rcl2-esl29-rsm0-rcm100-esm29-rsr0-rcr11-esr100.exr,ReadingArea_rsl0-rcl2-esl29-rsm0-rcm100-esm29-rsr0-rcr11-esr100.npz,,,,,0,109,109,217,,right,red,3.92,979.69358086586,,,,2,7,1,lightness,readingArea,realistic,75,2023-03-25_09h59.19.044,tripletExp_regina_11082022,2022.2.4,120.83013562876666,
11,6,8,0,1.0,1.0,0,0.027777777777778,1.0,0,0.25,1.0,ReadingArea_rsl0-rcl100-esl100-rsm0-rcm2-esm100-rsr0-rcr25-esr100,exr/ReadingArea_rsl0-rcl100-esl100-rsm0-rcm2-esm100-rsr0-rcr25-esr100.exr,ReadingArea_rsl0-rcl100-esl100-rsm0-rcm2-esm100-rsr0-rcr25-esr100.npz,,,,,0,110,110,599,,right,red,3.74,985.337026834488,985.8255138397216,,,2,7,1,lightness,readingArea,realistic,75,2023-03-25_09h59.19.044,tripletExp_regina_11082022,2022.2.4,120.83013562876666,
7,9,5,0,0.111111111111111,1.0,0,0.444444444444444,1.0,0,1.0,0.298245614035088,ReadingArea_rsl0-rcl11-esl100-rsm0-rcm44-esm100-rsr0-rcr100-esr29,exr/ReadingArea_rsl0-rcl11-esl100-rsm0-rcm44-esm100-rsr0-rcr100-esr29.exr,ReadingArea_rsl0-rcl11-esl100-rsm0-rcm44-esm100-rsr0-rcr100-esr29.npz,,,,,0,111,111,291,,right,red,3.88,991.0733988285064,991.4426069259644,,,2,7,1,lightness,readingArea,realistic,75,2023-03-25_09h59.19.044,tripletExp_regina_11082022,2022.2.4,120.83013562876666,
6,9,5,0,0.027777777777778,1.0,0,0.444444444444444,1.0,0,1.0,0.298245614035088,ReadingArea_rsl0-rcl2-esl100-rsm0-rcm44-esm100-rsr0-rcr100-esr29,exr/ReadingArea_rsl0-rcl2-esl100-rsm0-rcm44-esm100-rsr0-rcr100-esr29.exr,ReadingArea_rsl0-rcl2-esl100-rsm0-rcm44-esm100-rsr0-rcr100-esr29.npz,,,,,0,112,112,29,,right,red,2.09,994.9236209392548,995.3046720027924,,,2,7,1,lightness,readingArea,realistic,75,2023-03-25_09h59.19.044,tripletExp_regina_11082022,2022.2.4,120.83013562876666,
6,4,2,0,0.027777777777778,1.0,0,0.694444444444444,0.298245614035088,0,0.25,0.298245614035088,ReadingArea_rsl0-rcl2-esl100-rsm0-rcm69-esm29-rsr0-rcr25-esr29,exr/ReadingArea_rsl0-rcl2-esl100-rsm0-rcm69-esm29-rsr0-rcr25-esr29.exr,ReadingArea_rsl0-rcl2-esl100-rsm0-rcm69-esm29-rsr0-rcr25-esr29.npz,,,,,0,113,113,134,,right,red,4.42,1000.5577819347382,1000.9394578933716,,,2,7,1,lightness,readingArea,realistic,75,2023-03-25_09h59.19.044,tripletExp_regina_11082022,2022.2.4,120.83013562876666,
10,5,4,0,0.694444444444444,1.0,0,1.0,0.298245614035088,0,0.694444444444444,0.298245614035088,ReadingArea_rsl0-rcl69-esl100-rsm0-rcm100-esm29-rsr0-rcr69-esr29,exr/ReadingArea_rsl0-rcl69-esl100-rsm0-rcm100-esm29-rsr0-rcr69-esr29.exr,ReadingArea_rsl0-rcl69-esl100-rsm0-rcm100-esm29-rsr0-rcr69-esr29.npz,,,,,0,114,114,455,,right,red,3.55,1004.4335548877716,1004.8145089149476,,,2,7,1,lightness,readingArea,realistic,75,2023-03-25_09h59.19.044,tripletExp_regina_11082022,2022.2.4,120.83013562876666,
3,9,0,0,0.444444444444444,0.298245614035088,0,0.444444444444444,1.0,0,0.027777777777778,0.298245614035088,ReadingArea_rsl0-rcl44-esl29-rsm0-rcm44-esm100-rsr0-rcr2-esr29,exr/ReadingArea_rsl0-rcl44-esl29-rsm0-rcm44-esm100-rsr0-rcr2-esr29.exr,ReadingArea_rsl0-rcl44-esl29-rsm0-rcm44-esm100-rsr0-rcr2-esr29.npz,,,,,0,115,115,551,,left,green,3.94,1010.092351913452,1010.4726660251616,,,2,7,1,lightness,readingArea,realistic,75,2023-03-25_09h59.19.044,tripletExp_regina_11082022,2022.2.4,120.83013562876666,
10,2,0,0,0.694444444444444,1.0,0,0.25,0.298245614035088,0,0.027777777777778,0.298245614035088,ReadingArea_rsl0-rcl69-esl100-rsm0-rcm25-esm29-rsr0-rcr2-esr29,exr/ReadingArea_rsl0-rcl69-esl100-rsm0-rcm25-esm29-rsr0-rcr2-esr29.exr,ReadingArea_rsl0-rcl69-esl100-rsm0-rcm25-esm29-rsr0-rcr2-esr29.npz,,,,,0,116,116,427,,right,red,2.51,1013.9231159687042,1014.3008618354796,,,2,7,1,lightness,readingArea,realistic,75,2023-03-25_09h59.19.044,tripletExp_regina_11082022,2022.2.4,120.83013562876666,
2,9,10,0,0.25,0.298245614035088,0,0.444444444444444,1.0,0,0.694444444444444,1.0,ReadingArea_rsl0-rcl25-esl29-rsm0-rcm44-esm100-rsr0-rcr69-esr100,exr/ReadingArea_rsl0-rcl25-esl29-rsm0-rcm44-esm100-rsr0-rcr69-esr100.exr,ReadingArea_rsl0-rcl25-esl29-rsm0-rcm44-esm100-rsr0-rcr69-esr100.npz,,,,,0,117,117,117,,right,red,2.22,1017.802563905716,1018.190051794052,,,2,7,1,lightness,readingArea,realistic,75,2023-03-25_09h59.19.044,tripletExp_regina_11082022,2022.2.4,120.83013562876666,
14,13,3,0,0.25,3.10526315789474,0,0.111111111111111,3.10526315789474,0,0.444444444444444,0.298245614035088,ReadingArea_rsl0-rcl25-esl310-rsm0-rcm11-esm310-rsr0-rcr44-esr29,exr/ReadingArea_rsl0-rcl25-esl310-rsm0-rcm11-esm310-rsr0-rcr44-esr29.exr,ReadingArea_rsl0-rcl25-esl310-rsm0-rcm11-esm310-rsr0-rcr44-esr29.npz,,,,,0,118,118,256,,right,red,3.08,1021.6647799015044,1022.0567638874054,,,2,7,1,lightness,readingArea,realistic,75,2023-03-25_09h59.19.044,tripletExp_regina_11082022,2022.2.4,120.83013562876666,
0,1,6,0,0.027777777777778,0.298245614035088,0,0.111111111111111,0.298245614035088,0,0.027777777777778,1.0,ReadingArea_rsl0-rcl2-esl29-rsm0-rcm11-esm29-rsr0-rcr2-esr100,exr/ReadingArea_rsl0-rcl2-esl29-rsm0-rcm11-esm29-rsr0-rcr2-esr100.exr,ReadingArea_rsl0-rcl2-esl29-rsm0-rcm11-esm29-rsr0-rcr2-esr100.npz,,,,,0,119,119,375,,right,red,1.05,1023.7589919567108,,,,2,7,1,lightness,readingArea,realistic,75,2023-03-25_09h59.19.044,tripletExp_regina_11082022,2022.2.4,120.83013562876666,
12,3,0,0,0.027777777777778,3.10526315789474,0,0.444444444444444,0.298245614035088,0,0.027777777777778,0.298245614035088,ReadingArea_rsl0-rcl2-esl310-rsm0-rcm44-esm29-rsr0-rcr2-esr29,exr/ReadingArea_rsl0-rcl2-esl310-rsm0-rcm44-esm29-rsr0-rcr2-esr29.exr,ReadingArea_rsl0-rcl2-esl310-rsm0-rcm44-esm29-rsr0-rcr2-esr29.npz,,,,,0,120,120,502,,left,green,2.18,1027.6203458309174,1028.0125999450684,,,2,7,1,lightness,readingArea,realistic,75,2023-03-25_09h59.19.044,tripletExp_regina_11082022,2022.2.4,120.83013562876666,
14,2,6,0,0.25,3.10526315789474,0,0.25,0.298245614035088,0,0.027777777777778,1.0,ReadingArea_rsl0-rcl25-esl310-rsm0-rcm25-esm29-rsr0-rcr2-esr100,exr/ReadingArea_rsl0-rcl25-esl310-rsm0-rcm25-esm29-rsr0-rcr2-esr100.exr,ReadingArea_rsl0-rcl25-esl310-rsm0-rcm25-esm29-rsr0-rcr2-esr100.npz,,,,,0,121,121,350,,right,red,2.19,1031.486965894699,1031.8768467903135,,,2,7,1,lightness,readingArea,realistic,75,2023-03-25_09h59.19.044,tripletExp_regina_11082022,2022.2.4,120.83013562876666,
0,4,7,0,0.027777777777778,0.298245614035088,0,0.694444444444444,0.298245614035088,0,0.111111111111111,1.0,ReadingArea_rsl0-rcl2-esl29-rsm0-rcm69-esm29-rsr0-rcr11-esr100,exr/ReadingArea_rsl0-rcl2-esl29-rsm0-rcm69-esm29-rsr0-rcr11-esr100.exr,ReadingArea_rsl0-rcl2-esl29-rsm0-rcm69-esm29-rsr0-rcr11-esr100.npz,,,,,0,122,122,200,,right,red,3.91,1037.1134469509125,1037.4958589076996,,,2,7,1,lightness,readingArea,realistic,75,2023-03-25_09h59.19.044,tripletExp_regina_11082022,2022.2.4,120.83013562876666,
10,11,4,0,0.694444444444444,1.0,0,1.0,1.0,0,0.694444444444444,0.298245614035088,ReadingArea_rsl0-rcl69-esl100-rsm0-rcm100-esm100-rsr0-rcr69-esr29,exr/ReadingArea_rsl0-rcl69-esl100-rsm0-rcm100-esm100-rsr0-rcr69-esr29.exr,ReadingArea_rsl0-rcl69-esl100-rsm0-rcm100-esm100-rsr0-rcr69-esr29.npz,,,,,0,123,123,239,,left,green,3.76,1042.743666887283,1043.1082417964935,,,2,7,1,lightness,readingArea,realistic,75,2023-03-25_09h59.19.044,tripletExp_regina_11082022,2022.2.4,120.83013562876666,
14,6,13,0,0.25,3.10526315789474,0,0.027777777777778,1.0,0,0.111111111111111,3.10526315789474,ReadingArea_rsl0-rcl25-esl310-rsm0-rcm2-esm100-rsr0-rcr11-esr310,exr/ReadingArea_rsl0-rcl25-esl310-rsm0-rcm2-esm100-rsr0-rcr11-esr310.exr,ReadingArea_rsl0-rcl25-esl310-rsm0-rcm2-esm100-rsr0-rcr11-esr310.npz,,,,,0,124,124,91,,right,red,3.37,1046.585383892059,1047.0265789031982,,,2,7,1,lightness,readingArea,realistic,75,2023-03-25_09h59.19.044,tripletExp_regina_11082022,2022.2.4,120.83013562876666,
8,6,11,0,0.25,1.0,0,0.027777777777778,1.0,0,1.0,1.0,ReadingArea_rsl0-rcl25-esl100-rsm0-rcm2-esm100-rsr0-rcr100-esr100,exr/ReadingArea_rsl0-rcl25-esl100-rsm0-rcm2-esm100-rsr0-rcr100-esr100.exr,ReadingArea_rsl0-rcl25-esl100-rsm0-rcm2-esm100-rsr0-rcr100-esr100.npz,,,,,0,125,125,236,,left,green,2.27,1050.5219118595123,1050.9057109355929,,,2,7,1,lightness,readingArea,realistic,75,2023-03-25_09h59.19.044,tripletExp_regina_11082022,2022.2.4,120.83013562876666,
2,12,13,0,0.25,0.298245614035088,0,0.027777777777778,3.10526315789474,0,0.111111111111111,3.10526315789474,ReadingArea_rsl0-rcl25-esl29-rsm0-rcm2-esm310-rsr0-rcr11-esr310,exr/ReadingArea_rsl0-rcl25-esl29-rsm0-rcm2-esm310-rsr0-rcr11-esr310.exr,ReadingArea_rsl0-rcl25-esl29-rsm0-rcm2-esm310-rsr0-rcr11-esr310.npz,,,,,0,126,126,232,,left,green,1.02,1052.5983548164368,1052.9803869724274,,,2,7,1,lightness,readingArea,realistic,75,2023-03-25_09h59.19.044,tripletExp_regina_11082022,2022.2.4,120.83013562876666,
7,1,9,0,0.111111111111111,1.0,0,0.111111111111111,0.298245614035088,0,0.444444444444444,1.0,ReadingArea_rsl0-rcl11-esl100-rsm0-rcm11-esm29-rsr0-rcr44-esr100,exr/ReadingArea_rsl0-rcl11-esl100-rsm0-rcm11-esm29-rsr0-rcr44-esr100.exr,ReadingArea_rsl0-rcl11-esl100-rsm0-rcm11-esm29-rsr0-rcr44-esr100.npz,,,,,0,127,127,89,,left,green,3.81,1058.1967179775238,1058.6766188144684,,,2,7,1,lightness,readingArea,realistic,75,2023-03-25_09h59.19.044,tripletExp_regina_11082022,2022.2.4,120.83013562876666,
0,1,7,0,0.027777777777778,0.298245614035088,0,0.111111111111111,0.298245614035088,0,0.111111111111111,1.0,ReadingArea_rsl0-rcl2-esl29-rsm0-rcm11-esm29-rsr0-rcr11-esr100,exr/ReadingArea_rsl0-rcl2-esl29-rsm0-rcm11-esm29-rsr0-rcr11-esr100.exr,ReadingArea_rsl0-rcl2-esl29-rsm0-rcm11-esm29-rsr0-rcr11-esr100.npz,,,,,0,128,128,243,,right,red,4.42,1063.8961689472198,1064.2758269309998,,,2,7,1,lightness,readingArea,realistic,75,2023-03-25_09h59.19.044,tripletExp_regina_11082022,2022.2.4,120.83013562876666,
3,7,8,0,0.444444444444444,0.298245614035088,0,0.111111111111111,1.0,0,0.25,1.0,ReadingArea_rsl0-rcl44-esl29-rsm0-rcm11-esm100-rsr0-rcr25-esr100,exr/ReadingArea_rsl0-rcl44-esl29-rsm0-rcm11-esm100-rsr0-rcr25-esr100.exr,ReadingArea_rsl0-rcl44-esl29-rsm0-rcm11-esm100-rsr0-rcr25-esr100.npz,,,,,0,129,129,246,,left,green,3.81,1069.5184049606323,1069.971894979477,,,2,7,1,lightness,readingArea,realistic,75,2023-03-25_09h59.19.044,tripletExp_regina_11082022,2022.2.4,120.83013562876666,
14,6,11,0,0.25,3.10526315789474,0,0.027777777777778,1.0,0,1.0,1.0,ReadingArea_rsl0-rcl25-esl310-rsm0-rcm2-esm100-rsr0-rcr100-esr100,exr/ReadingArea_rsl0-rcl25-esl310-rsm0-rcm2-esm100-rsr0-rcr100-esr100.exr,ReadingArea_rsl0-rcl25-esl310-rsm0-rcm2-esm100-rsr0-rcr100-esr100.npz,,,,,0,130,130,337,,left,green,3.85,1075.2241067886353,1075.6967148780825,,,2,7,1,lightness,readingArea,realistic,75,2023-03-25_09h59.19.044,tripletExp_regina_11082022,2022.2.4,120.83013562876666,
8,1,3,0,0.25,1.0,0,0.111111111111111,0.298245614035088,0,0.444444444444444,0.298245614035088,ReadingArea_rsl0-rcl25-esl100-rsm0-rcm11-esm29-rsr0-rcr44-esr29,exr/ReadingArea_rsl0-rcl25-esl100-rsm0-rcm11-esm29-rsr0-rcr44-esr29.exr,ReadingArea_rsl0-rcl25-esl100-rsm0-rcm11-esm29-rsr0-rcr44-esr29.npz,,,,,0,131,131,490,,right,red,4.0,1080.9633088111875,1081.3804659843445,,,2,7,1,lightness,readingArea,realistic,75,2023-03-25_09h59.19.044,tripletExp_regina_11082022,2022.2.4,120.83013562876666,
8,3,12,0,0.25,1.0,0,0.444444444444444,0.298245614035088,0,0.027777777777778,3.10526315789474,ReadingArea_rsl0-rcl25-esl100-rsm0-rcm44-esm29-rsr0-rcr2-esr310,exr/ReadingArea_rsl0-rcl25-esl100-rsm0-rcm44-esm29-rsr0-rcr2-esr310.exr,ReadingArea_rsl0-rcl25-esl100-rsm0-rcm44-esm29-rsr0-rcr2-esr310.npz,,,,,0,132,132,22,,right,red,2.3,1084.855516910553,1085.2359189987185,,,2,7,1,lightness,readingArea,realistic,75,2023-03-25_09h59.19.044,tripletExp_regina_11082022,2022.2.4,120.83013562876666,
3,7,9,0,0.444444444444444,0.298245614035088,0,0.111111111111111,1.0,0,0.444444444444444,1.0,ReadingArea_rsl0-rcl44-esl29-rsm0-rcm11-esm100-rsr0-rcr44-esr100,exr/ReadingArea_rsl0-rcl44-esl29-rsm0-rcm11-esm100-rsr0-rcr44-esr100.exr,ReadingArea_rsl0-rcl44-esl29-rsm0-rcm11-esm100-rsr0-rcr44-esr100.npz,,,,,0,133,133,382,,left,green,2.43,1088.7269718647003,,,,2,7,1,lightness,readingArea,realistic,75,2023-03-25_09h59.19.044,tripletExp_regina_11082022,2022.2.4,120.83013562876666,
3,12,6,0,0.444444444444444,0.298245614035088,0,0.027777777777778,3.10526315789474,0,0.027777777777778,1.0,ReadingArea_rsl0-rcl44-esl29-rsm0-rcm2-esm310-rsr0-rcr2-esr100,exr/ReadingArea_rsl0-rcl44-esl29-rsm0-rcm2-esm310-rsr0-rcr2-esr100.exr,ReadingArea_rsl0-rcl44-esl29-rsm0-rcm2-esm310-rsr0-rcr2-esr100.npz,,,,,0,134,134,353,,right,red,3.83,1094.3686418533323,1094.751787900925,,,2,7,1,lightness,readingArea,realistic,75,2023-03-25_09h59.19.044,tripletExp_regina_11082022,2022.2.4,120.83013562876666,
6,12,7,0,0.027777777777778,1.0,0,0.027777777777778,3.10526315789474,0,0.111111111111111,1.0,ReadingArea_rsl0-rcl2-esl100-rsm0-rcm2-esm310-rsr0-rcr11-esr100,exr/ReadingArea_rsl0-rcl2-esl100-rsm0-rcm2-esm310-rsr0-rcr11-esr100.exr,ReadingArea_rsl0-rcl2-esl100-rsm0-rcm2-esm310-rsr0-rcr11-esr100.npz,,,,,0,135,135,157,,right,red,2.23,1098.2235789299011,1098.6104288101196,,,2,7,1,lightness,readingArea,realistic,75,2023-03-25_09h59.19.044,tripletExp_regina_11082022,2022.2.4,120.83013562876666,
10,1,0,0,0.694444444444444,1.0,0,0.111111111111111,0.298245614035088,0,0.027777777777778,0.298245614035088,ReadingArea_rsl0-rcl69-esl100-rsm0-rcm11-esm29-rsr0-rcr2-esr29,exr/ReadingArea_rsl0-rcl69-esl100-rsm0-rcm11-esm29-rsr0-rcr2-esr29.exr,ReadingArea_rsl0-rcl69-esl100-rsm0-rcm11-esm29-rsr0-rcr2-esr29.npz,,,,,0,136,136,276,,right,red,3.73,1103.8612530231476,1104.2431089878082,,,2,7,1,lightness,readingArea,realistic,75,2023-03-25_09h59.19.044,tripletExp_regina_11082022,2022.2.4,120.83013562876666,
13,8,5,0,0.111111111111111,3.10526315789474,0,0.25,1.0,0,1.0,0.298245614035088,ReadingArea_rsl0-rcl11-esl310-rsm0-rcm25-esm100-rsr0-rcr100-esr29,exr/ReadingArea_rsl0-rcl11-esl310-rsm0-rcm25-esm100-rsr0-rcr100-esr29.exr,ReadingArea_rsl0-rcl11-esl310-rsm0-rcm25-esm100-rsr0-rcr100-esr29.npz,,,,,0,137,137,209,,right,red,4.18,1109.5017919540403,1109.9913568496704,,,2,7,1,lightness,readingArea,realistic,75,2023-03-25_09h59.19.044,tripletExp_regina_11082022,2022.2.4,120.83013562876666,
10,7,4,0,0.694444444444444,1.0,0,0.111111111111111,1.0,0,0.694444444444444,0.298245614035088,ReadingArea_rsl0-rcl69-esl100-rsm0-rcm11-esm100-rsr0-rcr69-esr29,exr/ReadingArea_rsl0-rcl69-esl100-rsm0-rcm11-esm100-rsr0-rcr69-esr29.exr,ReadingArea_rsl0-rcl69-esl100-rsm0-rcm11-esm100-rsr0-rcr69-esr29.npz,,,,,0,138,138,223,,right,red,2.2,1113.4537088871002,1113.8379118442535,,,2,7,1,lightness,readingArea,realistic,75,2023-03-25_09h59.19.044,tripletExp_regina_11082022,2022.2.4,120.83013562876666,
7,2,6,0,0.111111111111111,1.0,0,0.25,0.298245614035088,0,0.027777777777778,1.0,ReadingArea_rsl0-rcl11-esl100-rsm0-rcm25-esm29-rsr0-rcr2-esr100,exr/ReadingArea_rsl0-rcl11-esl100-rsm0-rcm25-esm29-rsr0-rcr2-esr100.exr,ReadingArea_rsl0-rcl11-esl100-rsm0-rcm25-esm29-rsr0-rcr2-esr100.npz,,,,,0,139,139,506,,left,green,2.19,1117.317255973816,1117.70072889328,,,2,7,1,lightness,readingArea,realistic,75,2023-03-25_09h59.19.044,tripletExp_regina_11082022,2022.2.4,120.83013562876666,
1,5,14,0,0.111111111111111,0.298245614035088,0,1.0,0.298245614035088,0,0.25,3.10526315789474,ReadingArea_rsl0-rcl11-esl29-rsm0-rcm100-esm29-rsr0-rcr25-esr310,exr/ReadingArea_rsl0-rcl11-esl29-rsm0-rcm100-esm29-rsr0-rcr25-esr310.exr,ReadingArea_rsl0-rcl11-esl29-rsm0-rcm100-esm29-rsr0-rcr25-esr310.npz,,,,,0,140,140,191,,right,red,2.19,1121.1605668067932,1121.545289993286,,,2,7,1,lightness,readingArea,realistic,75,2023-03-25_09h59.19.044,tripletExp_regina_11082022,2022.2.4,120.83013562876666,
5,8,7,0,1.0,0.298245614035088,0,0.25,1.0,0,0.111111111111111,1.0,ReadingArea_rsl0-rcl100-esl29-rsm0-rcm25-esm100-rsr0-rcr11-esr100,exr/ReadingArea_rsl0-rcl100-esl29-rsm0-rcm25-esm100-rsr0-rcr11-esr100.exr,ReadingArea_rsl0-rcl100-esl29-rsm0-rcm25-esm100-rsr0-rcr11-esr100.npz,,,,,0,141,141,36,,left,green,2.48,1125.0333399772644,1125.422691822052,,,2,7,1,lightness,readingArea,realistic,75,2023-03-25_09h59.19.044,tripletExp_regina_11082022,2022.2.4,120.83013562876666,
4,8,10,0,0.694444444444444,0.298245614035088,0,0.25,1.0,0,0.694444444444444,1.0,ReadingArea_rsl0-rcl69-esl29-rsm0-rcm25-esm100-rsr0-rcr69-esr100,exr/ReadingArea_rsl0-rcl69-esl29-rsm0-rcm25-esm100-rsr0-rcr69-esr100.exr,ReadingArea_rsl0-rcl69-esl29-rsm0-rcm25-esm100-rsr0-rcr69-esr100.npz,,,,,0,142,142,221,,left,green,3.86,1130.6443037986755,1131.0264039039612,,,2,7,1,lightness,readingArea,realistic,75,2023-03-25_09h59.19.044,tripletExp_regina_11082022,2022.2.4,120.83013562876666,
2,14,7,0,0.25,0.298245614035088,0,0.25,3.10526315789474,0,0.111111111111111,1.0,ReadingArea_rsl0-rcl25-esl29-rsm0-rcm25-esm310-rsr0-rcr11-esr100,exr/ReadingArea_rsl0-rcl25-esl29-rsm0-rcm25-esm310-rsr0-rcr11-esr100.exr,ReadingArea_rsl0-rcl25-esl29-rsm0-rcm25-esm310-rsr0-rcr11-esr100.npz,,,,,0,143,143,310,,right,red,3.72,1136.26522898674,1136.7444188594818,,,2,7,1,lightness,readingArea,realistic,75,2023-03-25_09h59.19.044,tripletExp_regina_11082022,2022.2.4,120.83013562876666,
13,1,3,0,0.111111111111111,3.10526315789474,0,0.111111111111111,0.298245614035088,0,0.444444444444444,0.298245614035088,ReadingArea_rsl0-rcl11-esl310-rsm0-rcm11-esm29-rsr0-rcr44-esr29,exr/ReadingArea_rsl0-rcl11-esl310-rsm0-rcm11-esm29-rsr0-rcr44-esr29.exr,ReadingArea_rsl0-rcl11-esl310-rsm0-rcm11-esm29-rsr0-rcr44-esr29.npz,,,,,0,144,144,588,,left,green,4.0,1142.0110030174255,,,,2,7,1,lightness,readingArea,realistic,75,2023-03-25_09h59.19.044,tripletExp_regina_11082022,2022.2.4,120.83013562876666,
7,12,1,0,0.111111111111111,1.0,0,0.027777777777778,3.10526315789474,0,0.111111111111111,0.298245614035088,ReadingArea_rsl0-rcl11-esl100-rsm0-rcm2-esm310-rsr0-rcr11-esr29,exr/ReadingArea_rsl0-rcl11-esl100-rsm0-rcm2-esm310-rsr0-rcr11-esr29.exr,ReadingArea_rsl0-rcl11-esl100-rsm0-rcm2-esm310-rsr0-rcr11-esr29.npz,,,,,0,145,145,20,,left,green,2.41,1145.9348409175873,1146.3181228637695,,,2,7,1,lightness,readingArea,realistic,75,2023-03-25_09h59.19.044,tripletExp_regina_11082022,2022.2.4,120.83013562876666,
5,8,2,0,1.0,0.298245614035088,0,0.25,1.0,0,0.25,0.298245614035088,ReadingArea_rsl0-rcl100-esl29-rsm0-rcm25-esm100-rsr0-rcr25-esr29,exr/ReadingArea_rsl0-rcl100-esl29-rsm0-rcm25-esm100-rsr0-rcr25-esr29.exr,ReadingArea_rsl0-rcl100-esl29-rsm0-rcm25-esm100-rsr0-rcr25-esr29.npz,,,,,0,146,146,65,,left,green,3.94,1151.5644989013672,1151.9476418495178,,,2,7,1,lightness,readingArea,realistic,75,2023-03-25_09h59.19.044,tripletExp_regina_11082022,2022.2.4,120.83013562876666,
2,8,7,0,0.25,0.298245614035088,0,0.25,1.0,0,0.111111111111111,1.0,ReadingArea_rsl0-rcl25-esl29-rsm0-rcm25-esm100-rsr0-rcr11-esr100,exr/ReadingArea_rsl0-rcl25-esl29-rsm0-rcm25-esm100-rsr0-rcr11-esr100.exr,ReadingArea_rsl0-rcl25-esl29-rsm0-rcm25-esm100-rsr0-rcr11-esr100.npz,,,,,0,147,147,393,,left,green,3.89,1157.2154388427734,1157.5999100208282,,,2,7,1,lightness,readingArea,realistic,75,2023-03-25_09h59.19.044,tripletExp_regina_11082022,2022.2.4,120.83013562876666,
5,9,12,0,1.0,0.298245614035088,0,0.444444444444444,1.0,0,0.027777777777778,3.10526315789474,ReadingArea_rsl0-rcl100-esl29-rsm0-rcm44-esm100-rsr0-rcr2-esr310,exr/ReadingArea_rsl0-rcl100-esl29-rsm0-rcm44-esm100-rsr0-rcr2-esr310.exr,ReadingArea_rsl0-rcl100-esl29-rsm0-rcm44-esm100-rsr0-rcr2-esr310.npz,,,,,0,148,148,539,,left,green,3.08,1161.0560128688812,,,,2,7,1,lightness,readingArea,realistic,75,2023-03-25_09h59.19.044,tripletExp_regina_11082022,2022.2.4,120.83013562876666,
3,0,4,0,0.444444444444444,0.298245614035088,0,0.027777777777778,0.298245614035088,0,0.694444444444444,0.298245614035088,ReadingArea_rsl0-rcl44-esl29-rsm0-rcm2-esm29-rsr0-rcr69-esr29,exr/ReadingArea_rsl0-rcl44-esl29-rsm0-rcm2-esm29-rsr0-rcr69-esr29.exr,ReadingArea_rsl0-rcl44-esl29-rsm0-rcm2-esm29-rsr0-rcr69-esr29.npz,,,,,0,149,149,111,,left,green,3.98,1166.6903109550476,1166.8965158462524,,,2,7,1,lightness,readingArea,realistic,75,2023-03-25_09h59.19.044,tripletExp_regina_11082022,2022.2.4,120.83013562876666,
6,10,8,0,0.027777777777778,1.0,0,0.694444444444444,1.0,0,0.25,1.0,ReadingArea_rsl0-rcl2-esl100-rsm0-rcm69-esm100-rsr0-rcr25-esr100,exr/ReadingArea_rsl0-rcl2-esl100-rsm0-rcm69-esm100-rsr0-rcr25-esr100.exr,ReadingArea_rsl0-rcl2-esl100-rsm0-rcm69-esm100-rsr0-rcr25-esr100.npz,,,,,0,150,150,167,,right,red,2.56,1178.7047049999237,1179.0904338359833,,,3,7,1,lightness,readingArea,realistic,75,2023-03-25_09h59.19.044,tripletExp_regina_11082022,2022.2.4,120.83013562876666,
13,10,9,0,0.111111111111111,3.10526315789474,0,0.694444444444444,1.0,0,0.444444444444444,1.0,ReadingArea_rsl0-rcl11-esl310-rsm0-rcm69-esm100-rsr0-rcr44-esr100,exr/ReadingArea_rsl0-rcl11-esl310-rsm0-rcm69-esm100-rsr0-rcr44-esr100.exr,ReadingArea_rsl0-rcl11-esl310-rsm0-rcm69-esm100-rsr0-rcr44-esr100.npz,,,,,0,151,151,330,,right,red,2.25,1182.589064836502,1182.9724209308624,,,3,7,1,lightness,readingArea,realistic,75,2023-03-25_09h59.19.044,tripletExp_regina_11082022,2022.2.4,120.83013562876666,
11,7,8,0,1.0,1.0,0,0.111111111111111,1.0,0,0.25,1.0,ReadingArea_rsl0-rcl100-esl100-rsm0-rcm11-esm100-rsr0-rcr25-esr100,exr/ReadingArea_rsl0-rcl100-esl100-rsm0-rcm11-esm100-rsr0-rcr25-esr100.exr,ReadingArea_rsl0-rcl100-esl100-rsm0-rcm11-esm100-rsr0-rcr25-esr100.npz,,,,,0,152,152,37,,right,red,2.16,1186.4680829048157,,,,3,7,1,lightness,readingArea,realistic,75,2023-03-25_09h59.19.044,tripletExp_regina_11082022,2022.2.4,120.83013562876666,
12,6,8,0,0.027777777777778,3.10526315789474,0,0.027777777777778,1.0,0,0.25,1.0,ReadingArea_rsl0-rcl2-esl310-rsm0-rcm2-esm100-rsr0-rcr25-esr100,exr/ReadingArea_rsl0-rcl2-esl310-rsm0-rcm2-esm100-rsr0-rcr25-esr100.exr,ReadingArea_rsl0-rcl2-esl310-rsm0-rcm2-esm100-rsr0-rcr25-esr100.npz,,,,,0,153,153,540,,left,green,4.38,1192.2095108032229,1192.6815588474274,,,3,7,1,lightness,readingArea,realistic,75,2023-03-25_09h59.19.044,tripletExp_regina_11082022,2022.2.4,120.83013562876666,
1,3,12,0,0.111111111111111,0.298245614035088,0,0.444444444444444,0.298245614035088,0,0.027777777777778,3.10526315789474,ReadingArea_rsl0-rcl11-esl29-rsm0-rcm44-esm29-rsr0-rcr2-esr310,exr/ReadingArea_rsl0-rcl11-esl29-rsm0-rcm44-esm29-rsr0-rcr2-esr310.exr,ReadingArea_rsl0-rcl11-esl29-rsm0-rcm44-esm29-rsr0-rcr2-esr310.npz,,,,,0,154,154,323,,right,red,3.87,1197.9159309864044,1198.3437249660492,,,3,7,1,lightness,readingArea,realistic,75,2023-03-25_09h59.19.044,tripletExp_regina_11082022,2022.2.4,120.83013562876666,
4,11,14,0,0.694444444444444,0.298245614035088,0,1.0,1.0,0,0.25,3.10526315789474,ReadingArea_rsl0-rcl69-esl29-rsm0-rcm100-esm100-rsr0-rcr25-esr310,exr/ReadingArea_rsl0-rcl69-esl29-rsm0-rcm100-esm100-rsr0-rcr25-esr310.exr,ReadingArea_rsl0-rcl69-esl29-rsm0-rcm100-esm100-rsr0-rcr25-esr310.npz,,,,,0,155,155,165,,right,red,3.91,1203.589879989624,1204.0525159835815,,,3,7,1,lightness,readingArea,realistic,75,2023-03-25_09h59.19.044,tripletExp_regina_11082022,2022.2.4,120.83013562876666,
1,13,14,0,0.111111111111111,0.298245614035088,0,0.111111111111111,3.10526315789474,0,0.25,3.10526315789474,ReadingArea_rsl0-rcl11-esl29-rsm0-rcm11-esm310-rsr0-rcr25-esr310,exr/ReadingArea_rsl0-rcl11-esl29-rsm0-rcm11-esm310-rsr0-rcr25-esr310.exr,ReadingArea_rsl0-rcl11-esl29-rsm0-rcm11-esm310-rsr0-rcr25-esr310.npz,,,,,0,156,156,183,,right,red,4.29,1209.3296937942505,,,,3,7,1,lightness,readingArea,realistic,75,2023-03-25_09h59.19.044,tripletExp_regina_11082022,2022.2.4,120.83013562876666,
14,12,10,0,0.25,3.10526315789474,0,0.027777777777778,3.10526315789474,0,0.694444444444444,1.0,ReadingArea_rsl0-rcl25-esl310-rsm0-rcm2-esm310-rsr0-rcr69-esr100,exr/ReadingArea_rsl0-rcl25-esl310-rsm0-rcm2-esm310-rsr0-rcr69-esr100.exr,ReadingArea_rsl0-rcl25-esl310-rsm0-rcm2-esm310-rsr0-rcr69-esr100.npz,,,,,0,157,157,331,,right,red,4.03,1215.0315189361572,1215.490247964859,,,3,7,1,lightness,readingArea,realistic,75,2023-03-25_09h59.19.044,tripletExp_regina_11082022,2022.2.4,120.83013562876666,
13,10,3,0,0.111111111111111,3.10526315789474,0,0.694444444444444,1.0,0,0.444444444444444,0.298245614035088,ReadingArea_rsl0-rcl11-esl310-rsm0-rcm69-esm100-rsr0-rcr44-esr29,exr/ReadingArea_rsl0-rcl11-esl310-rsm0-rcm69-esm100-rsr0-rcr44-esr29.exr,ReadingArea_rsl0-rcl11-esl310-rsm0-rcm69-esm100-rsr0-rcr44-esr29.npz,,,,,0,158,158,224,,left,green,4.03,1220.7541449069977,1221.159807920456,,,3,7,1,lightness,readingArea,realistic,75,2023-03-25_09h59.19.044,tripletExp_regina_11082022,2022.2.4,120.83013562876666,
2,1,8,0,0.25,0.298245614035088,0,0.111111111111111,0.298245614035088,0,0.25,1.0,ReadingArea_rsl0-rcl25-esl29-rsm0-rcm11-esm29-rsr0-rcr25-esr100,exr/ReadingArea_rsl0-rcl25-esl29-rsm0-rcm11-esm29-rsr0-rcr25-esr100.exr,ReadingArea_rsl0-rcl25-esl29-rsm0-rcm11-esm29-rsr0-rcr25-esr100.npz,,,,,0,159,159,125,,left,green,3.64,1226.3930008411407,1226.8628039360046,,,3,7,1,lightness,readingArea,realistic,75,2023-03-25_09h59.19.044,tripletExp_regina_11082022,2022.2.4,120.83013562876666,
9,0,3,0,0.444444444444444,1.0,0,0.027777777777778,0.298245614035088,0,0.444444444444444,0.298245614035088,ReadingArea_rsl0-rcl44-esl100-rsm0-rcm2-esm29-rsr0-rcr44-esr29,exr/ReadingArea_rsl0-rcl44-esl100-rsm0-rcm2-esm29-rsr0-rcr44-esr29.exr,ReadingArea_rsl0-rcl44-esl100-rsm0-rcm2-esm29-rsr0-rcr44-esr29.npz,,,,,0,160,160,2,,right,red,3.61,1232.1070358753204,1232.4881739616394,,,3,7,1,lightness,readingArea,realistic,75,2023-03-25_09h59.19.044,tripletExp_regina_11082022,2022.2.4,120.83013562876666,
4,2,9,0,0.694444444444444,0.298245614035088,0,0.25,0.298245614035088,0,0.444444444444444,1.0,ReadingArea_rsl0-rcl69-esl29-rsm0-rcm25-esm29-rsr0-rcr44-esr100,exr/ReadingArea_rsl0-rcl69-esl29-rsm0-rcm25-esm29-rsr0-rcr44-esr100.exr,ReadingArea_rsl0-rcl69-esl29-rsm0-rcm25-esm29-rsr0-rcr44-esr100.npz,,,,,0,161,161,479,,right,red,2.2,1235.982738018036,1236.3610928058624,,,3,7,1,lightness,readingArea,realistic,75,2023-03-25_09h59.19.044,tripletExp_regina_11082022,2022.2.4,120.83013562876666,
12,11,6,0,0.027777777777778,3.10526315789474,0,1.0,1.0,0,0.027777777777778,1.0,ReadingArea_rsl0-rcl2-esl310-rsm0-rcm100-esm100-rsr0-rcr2-esr100,exr/ReadingArea_rsl0-rcl2-esl310-rsm0-rcm100-esm100-rsr0-rcr2-esr100.exr,ReadingArea_rsl0-rcl2-esl310-rsm0-rcm100-esm100-rsr0-rcr2-esr100.npz,,,,,0,162,162,163,,left,green,3.9,1241.6159889698029,1241.998608827591,,,3,7,1,lightness,readingArea,realistic,75,2023-03-25_09h59.19.044,tripletExp_regina_11082022,2022.2.4,120.83013562876666,
3,2,11,0,0.444444444444444,0.298245614035088,0,0.25,0.298245614035088,0,1.0,1.0,ReadingArea_rsl0-rcl44-esl29-rsm0-rcm25-esm29-rsr0-rcr100-esr100,exr/ReadingArea_rsl0-rcl44-esl29-rsm0-rcm25-esm29-rsr0-rcr100-esr100.exr,ReadingArea_rsl0-rcl44-esl29-rsm0-rcm25-esm29-rsr0-rcr100-esr100.npz,,,,,0,163,163,257,,left,green,3.73,1247.2594559192655,1247.7381858825684,,,3,7,1,lightness,readingArea,realistic,75,2023-03-25_09h59.19.044,tripletExp_regina_11082022,2022.2.4,120.83013562876666,
13,10,12,0,0.111111111111111,3.10526315789474,0,0.694444444444444,1.0,0,0.027777777777778,3.10526315789474,ReadingArea_rsl0-rcl11-esl310-rsm0-rcm69-esm100-rsr0-rcr2-esr310,exr/ReadingArea_rsl0-rcl11-esl310-rsm0-rcm69-esm100-rsr0-rcr2-esr310.exr,ReadingArea_rsl0-rcl11-esl310-rsm0-rcm69-esm100-rsr0-rcr2-esr310.npz,,,,,0,164,164,384,,left,green,3.28,1251.216008901596,1251.6018249988556,,,3,7,1,lightness,readingArea,realistic,75,2023-03-25_09h59.19.044,tripletExp_regina_11082022,2022.2.4,120.83013562876666,
5,3,10,0,1.0,0.298245614035088,0,0.444444444444444,0.298245614035088,0,0.694444444444444,1.0,ReadingArea_rsl0-rcl100-esl29-rsm0-rcm44-esm29-rsr0-rcr69-esr100,exr/ReadingArea_rsl0-rcl100-esl29-rsm0-rcm44-esm29-rsr0-rcr69-esr100.exr,ReadingArea_rsl0-rcl100-esl29-rsm0-rcm44-esm29-rsr0-rcr69-esr100.npz,,,,,0,165,165,546,,left,green,3.24,1255.089721918106,1255.4787409305573,,,3,7,1,lightness,readingArea,realistic,75,2023-03-25_09h59.19.044,tripletExp_regina_11082022,2022.2.4,120.83013562876666,
10,0,3,0,0.694444444444444,1.0,0,0.027777777777778,0.298245614035088,0,0.444444444444444,0.298245614035088,ReadingArea_rsl0-rcl69-esl100-rsm0-rcm2-esm29-rsr0-rcr44-esr29,exr/ReadingArea_rsl0-rcl69-esl100-rsm0-rcm2-esm29-rsr0-rcr44-esr29.exr,ReadingArea_rsl0-rcl69-esl100-rsm0-rcm2-esm29-rsr0-rcr44-esr29.npz,,,,,0,166,166,87,,right,red,3.98,1260.7401649951937,1261.1480448246002,,,3,7,1,lightness,readingArea,realistic,75,2023-03-25_09h59.19.044,tripletExp_regina_11082022,2022.2.4,120.83013562876666,
10,11,0,0,0.694444444444444,1.0,0,1.0,1.0,0,0.027777777777778,0.298245614035088,ReadingArea_rsl0-rcl69-esl100-rsm0-rcm100-esm100-rsr0-rcr2-esr29,exr/ReadingArea_rsl0-rcl69-esl100-rsm0-rcm100-esm100-rsr0-rcr2-esr29.exr,ReadingArea_rsl0-rcl69-esl100-rsm0-rcm100-esm100-rsr0-rcr2-esr29.npz,,,,,0,167,167,58,,left,green,0.78,1262.8572578430176,1263.2444829940796,,,3,7,1,lightness,readingArea,realistic,75,2023-03-25_09h59.19.044,tripletExp_regina_11082022,2022.2.4,120.83013562876666,
11,13,1,0,1.0,1.0,0,0.111111111111111,3.10526315789474,0,0.111111111111111,0.298245614035088,ReadingArea_rsl0-rcl100-esl100-rsm0-rcm11-esm310-rsr0-rcr11-esr29,exr/ReadingArea_rsl0-rcl100-esl100-rsm0-rcm11-esm310-rsr0-rcr11-esr29.exr,ReadingArea_rsl0-rcl100-esl100-rsm0-rcm11-esm310-rsr0-rcr11-esr29.npz,,,,,0,168,168,185,,left,green,3.94,1268.5149159431458,1268.9061210155487,,,3,7,1,lightness,readingArea,realistic,75,2023-03-25_09h59.19.044,tripletExp_regina_11082022,2022.2.4,120.83013562876666,
3,8,7,0,0.444444444444444,0.298245614035088,0,0.25,1.0,0,0.111111111111111,1.0,ReadingArea_rsl0-rcl44-esl29-rsm0-rcm25-esm100-rsr0-rcr11-esr100,exr/ReadingArea_rsl0-rcl44-esl29-rsm0-rcm25-esm100-rsr0-rcr11-esr100.exr,ReadingArea_rsl0-rcl44-esl29-rsm0-rcm25-esm100-rsr0-rcr11-esr100.npz,,,,,0,169,169,484,,right,red,3.95,1274.1577098369598,1274.5455288887024,,,3,7,1,lightness,readingArea,realistic,75,2023-03-25_09h59.19.044,tripletExp_regina_11082022,2022.2.4,120.83013562876666,
12,5,4,0,0.027777777777778,3.10526315789474,0,1.0,0.298245614035088,0,0.694444444444444,0.298245614035088,ReadingArea_rsl0-rcl2-esl310-rsm0-rcm100-esm29-rsr0-rcr69-esr29,exr/ReadingArea_rsl0-rcl2-esl310-rsm0-rcm100-esm29-rsr0-rcr69-esr29.exr,ReadingArea_rsl0-rcl2-esl310-rsm0-rcm100-esm29-rsr0-rcr69-esr29.npz,,,,,0,170,170,566,,right,red,3.9,1279.762943983078,1280.1642529964447,,,3,7,1,lightness,readingArea,realistic,75,2023-03-25_09h59.19.044,tripletExp_regina_11082022,2022.2.4,120.83013562876666,
12,9,11,0,0.027777777777778,3.10526315789474,0,0.444444444444444,1.0,0,1.0,1.0,ReadingArea_rsl0-rcl2-esl310-rsm0-rcm44-esm100-rsr0-rcr100-esr100,exr/ReadingArea_rsl0-rcl2-esl310-rsm0-rcm44-esm100-rsr0-rcr100-esr100.exr,ReadingArea_rsl0-rcl2-esl310-rsm0-rcm44-esm100-rsr0-rcr100-esr100.npz,,,,,0,171,171,18,,right,red,3.96,1285.404649019241,1285.908452987671,,,3,7,1,lightness,readingArea,realistic,75,2023-03-25_09h59.19.044,tripletExp_regina_11082022,2022.2.4,120.83013562876666,
5,2,8,0,1.0,0.298245614035088,0,0.25,0.298245614035088,0,0.25,1.0,ReadingArea_rsl0-rcl100-esl29-rsm0-rcm25-esm29-rsr0-rcr25-esr100,exr/ReadingArea_rsl0-rcl100-esl29-rsm0-rcm25-esm29-rsr0-rcr25-esr100.exr,ReadingArea_rsl0-rcl100-esl29-rsm0-rcm25-esm29-rsr0-rcr25-esr100.npz,,,,,0,172,172,538,,right,red,3.89,1291.1513068675995,1291.5907158851624,,,3,7,1,lightness,readingArea,realistic,75,2023-03-25_09h59.19.044,tripletExp_regina_11082022,2022.2.4,120.83013562876666,
9,12,6,0,0.444444444444444,1.0,0,0.027777777777778,3.10526315789474,0,0.027777777777778,1.0,ReadingArea_rsl0-rcl44-esl100-rsm0-rcm2-esm310-rsr0-rcr2-esr100,exr/ReadingArea_rsl0-rcl44-esl100-rsm0-rcm2-esm310-rsr0-rcr2-esr100.exr,ReadingArea_rsl0-rcl44-esl100-rsm0-rcm2-esm310-rsr0-rcr2-esr100.npz,,,,,0,173,173,5,,right,red,3.99,1296.816231966019,1297.1839728355408,,,3,7,1,lightness,readingArea,realistic,75,2023-03-25_09h59.19.044,tripletExp_regina_11082022,2022.2.4,120.83013562876666,
2,4,14,0,0.25,0.298245614035088,0,0.694444444444444,0.298245614035088,0,0.25,3.10526315789474,ReadingArea_rsl0-rcl25-esl29-rsm0-rcm69-esm29-rsr0-rcr25-esr310,exr/ReadingArea_rsl0-rcl25-esl29-rsm0-rcm69-esm29-rsr0-rcr25-esr310.exr,ReadingArea_rsl0-rcl25-esl29-rsm0-rcm69-esm29-rsr0-rcr25-esr310.npz,,,,,0,174,174,356,,left,green,3.83,1302.4709179401398,1302.901112794876,,,3,7,1,lightness,readingArea,realistic,75,2023-03-25_09h59.19.044,tripletExp_regina_11082022,2022.2.4,120.83013562876666,
6,0,10,0,0.027777777777778,1.0,0,0.027777777777778,0.298245614035088,0,0.694444444444444,1.0,ReadingArea_rsl0-rcl2-esl100-rsm0-rcm2-esm29-rsr0-rcr69-esr100,exr/ReadingArea_rsl0-rcl2-esl100-rsm0-rcm2-esm29-rsr0-rcr69-esr100.exr,ReadingArea_rsl0-rcl2-esl100-rsm0-rcm2-esm29-rsr0-rcr69-esr100.npz,,,,,0,175,175,532,,left,green,3.92,1308.165296792984,1308.555773973465,,,3,7,1,lightness,readingArea,realistic,75,2023-03-25_09h59.19.044,tripletExp_regina_11082022,2022.2.4,120.83013562876666,
9,6,11,0,0.444444444444444,1.0,0,0.027777777777778,1.0,0,1.0,1.0,ReadingArea_rsl0-rcl44-esl100-rsm0-rcm2-esm100-rsr0-rcr100-esr100,exr/ReadingArea_rsl0-rcl44-esl100-rsm0-rcm2-esm100-rsr0-rcr100-esr100.exr,ReadingArea_rsl0-rcl44-esl100-rsm0-rcm2-esm100-rsr0-rcr100-esr100.npz,,,,,0,176,176,572,,left,green,3.89,1313.8016269207,1314.2016909122467,,,3,7,1,lightness,readingArea,realistic,75,2023-03-25_09h59.19.044,tripletExp_regina_11082022,2022.2.4,120.83013562876666,
10,5,1,0,0.694444444444444,1.0,0,1.0,0.298245614035088,0,0.111111111111111,0.298245614035088,ReadingArea_rsl0-rcl69-esl100-rsm0-rcm100-esm29-rsr0-rcr11-esr29,exr/ReadingArea_rsl0-rcl69-esl100-rsm0-rcm100-esm29-rsr0-rcr11-esr29.exr,ReadingArea_rsl0-rcl69-esl100-rsm0-rcm100-esm29-rsr0-rcr11-esr29.npz,,,,,0,177,177,152,,left,green,3.57,1319.461545944214,1319.9449589252472,,,3,7,1,lightness,readingArea,realistic,75,2023-03-25_09h59.19.044,tripletExp_regina_11082022,2022.2.4,120.83013562876666,
13,6,2,0,0.111111111111111,3.10526315789474,0,0.027777777777778,1.0,0,0.25,0.298245614035088,ReadingArea_rsl0-rcl11-esl310-rsm0-rcm2-esm100-rsr0-rcr25-esr29,exr/ReadingArea_rsl0-rcl11-esl310-rsm0-rcm2-esm100-rsr0-rcr25-esr29.exr,ReadingArea_rsl0-rcl11-esl310-rsm0-rcm2-esm100-rsr0-rcr25-esr29.npz,,,,,0,178,178,115,,right,red,3.89,1325.2049407958984,1325.6455028057098,,,3,7,1,lightness,readingArea,realistic,75,2023-03-25_09h59.19.044,tripletExp_regina_11082022,2022.2.4,120.83013562876666,
3,6,10,0,0.444444444444444,0.298245614035088,0,0.027777777777778,1.0,0,0.694444444444444,1.0,ReadingArea_rsl0-rcl44-esl29-rsm0-rcm2-esm100-rsr0-rcr69-esr100,exr/ReadingArea_rsl0-rcl44-esl29-rsm0-rcm2-esm100-rsr0-rcr69-esr100.exr,ReadingArea_rsl0-rcl44-esl29-rsm0-rcm2-esm100-rsr0-rcr69-esr100.npz,,,,,0,179,179,138,,left,green,3.99,1330.875020980835,1331.2730519771576,,,3,7,1,lightness,readingArea,realistic,75,2023-03-25_09h59.19.044,tripletExp_regina_11082022,2022.2.4,120.83013562876666,
13,11,8,0,0.111111111111111,3.10526315789474,0,1.0,1.0,0,0.25,1.0,ReadingArea_rsl0-rcl11-esl310-rsm0-rcm100-esm100-rsr0-rcr25-esr100,exr/ReadingArea_rsl0-rcl11-esl310-rsm0-rcm100-esm100-rsr0-rcr25-esr100.exr,ReadingArea_rsl0-rcl11-esl310-rsm0-rcm100-esm100-rsr0-rcr25-esr100.npz,,,,,0,180,180,410,,left,green,3.91,1336.5248789787292,,,,3,7,1,lightness,readingArea,realistic,75,2023-03-25_09h59.19.044,tripletExp_regina_11082022,2022.2.4,120.83013562876666,
14,8,3,0,0.25,3.10526315789474,0,0.25,1.0,0,0.444444444444444,0.298245614035088,ReadingArea_rsl0-rcl25-esl310-rsm0-rcm25-esm100-rsr0-rcr44-esr29,exr/ReadingArea_rsl0-rcl25-esl310-rsm0-rcm25-esm100-rsr0-rcr44-esr29.exr,ReadingArea_rsl0-rcl25-esl310-rsm0-rcm25-esm100-rsr0-rcr44-esr29.npz,,,,,0,181,181,100,,right,red,4.02,1342.243992805481,1342.683058977127,,,3,7,1,lightness,readingArea,realistic,75,2023-03-25_09h59.19.044,tripletExp_regina_11082022,2022.2.4,120.83013562876666,
7,4,2,0,0.111111111111111,1.0,0,0.694444444444444,0.298245614035088,0,0.25,0.298245614035088,ReadingArea_rsl0-rcl11-esl100-rsm0-rcm69-esm29-rsr0-rcr25-esr29,exr/ReadingArea_rsl0-rcl11-esl100-rsm0-rcm69-esm29-rsr0-rcr25-esr29.exr,ReadingArea_rsl0-rcl11-esl100-rsm0-rcm69-esm29-rsr0-rcr25-esr29.npz,,,,,0,182,182,146,,left,green,3.85,1347.9026877880096,1348.2969648838043,,,3,7,1,lightness,readingArea,realistic,75,2023-03-25_09h59.19.044,tripletExp_regina_11082022,2022.2.4,120.83013562876666,
4,8,3,0,0.694444444444444,0.298245614035088,0,0.25,1.0,0,0.444444444444444,0.298245614035088,ReadingArea_rsl0-rcl69-esl29-rsm0-rcm25-esm100-rsr0-rcr44-esr29,exr/ReadingArea_rsl0-rcl69-esl29-rsm0-rcm25-esm100-rsr0-rcr44-esr29.exr,ReadingArea_rsl0-rcl69-esl29-rsm0-rcm25-esm100-rsr0-rcr44-esr29.npz,,,,,0,183,183,292,,left,green,3.98,1353.5667128562927,1353.9651679992676,,,3,7,1,lightness,readingArea,realistic,75,2023-03-25_09h59.19.044,tripletExp_regina_11082022,2022.2.4,120.83013562876666,
12,6,3,0,0.027777777777778,3.10526315789474,0,0.027777777777778,1.0,0,0.444444444444444,0.298245614035088,ReadingArea_rsl0-rcl2-esl310-rsm0-rcm2-esm100-rsr0-rcr44-esr29,exr/ReadingArea_rsl0-rcl2-esl310-rsm0-rcm2-esm100-rsr0-rcr44-esr29.exr,ReadingArea_rsl0-rcl2-esl310-rsm0-rcm2-esm100-rsr0-rcr44-esr29.npz,,,,,0,184,184,139,,left,green,3.93,1359.2153069972992,1359.602481842041,,,3,7,1,lightness,readingArea,realistic,75,2023-03-25_09h59.19.044,tripletExp_regina_11082022,2022.2.4,120.83013562876666,
6,13,8,0,0.027777777777778,1.0,0,0.111111111111111,3.10526315789474,0,0.25,1.0,ReadingArea_rsl0-rcl2-esl100-rsm0-rcm11-esm310-rsr0-rcr25-esr100,exr/ReadingArea_rsl0-rcl2-esl100-rsm0-rcm11-esm310-rsr0-rcr25-esr100.exr,ReadingArea_rsl0-rcl2-esl100-rsm0-rcm11-esm310-rsr0-rcr25-esr100.npz,,,,,0,185,185,535,,right,red,3.98,1364.8417270183563,1365.2304809093475,,,3,7,1,lightness,readingArea,realistic,75,2023-03-25_09h59.19.044,tripletExp_regina_11082022,2022.2.4,120.83013562876666,
6,2,12,0,0.027777777777778,1.0,0,0.25,0.298245614035088,0,0.027777777777778,3.10526315789474,ReadingArea_rsl0-rcl2-esl100-rsm0-rcm25-esm29-rsr0-rcr2-esr310,exr/ReadingArea_rsl0-rcl2-esl100-rsm0-rcm25-esm29-rsr0-rcr2-esr310.exr,ReadingArea_rsl0-rcl2-esl100-rsm0-rcm25-esm29-rsr0-rcr2-esr310.npz,,,,,0,186,186,480,,right,red,4.01,1370.4661707878113,1370.8564488887787,,,3,7,1,lightness,readingArea,realistic,75,2023-03-25_09h59.19.044,tripletExp_regina_11082022,2022.2.4,120.83013562876666,
0,9,14,0,0.027777777777778,0.298245614035088,0,0.444444444444444,1.0,0,0.25,3.10526315789474,ReadingArea_rsl0-rcl2-esl29-rsm0-rcm44-esm100-rsr0-rcr25-esr310,exr/ReadingArea_rsl0-rcl2-esl29-rsm0-rcm44-esm100-rsr0-rcr25-esr310.exr,ReadingArea_rsl0-rcl2-esl29-rsm0-rcm44-esm100-rsr0-rcr25-esr310.npz,,,,,0,187,187,433,,right,red,3.91,1376.1010818481443,1376.5377399921415,,,3,7,1,lightness,readingArea,realistic,75,2023-03-25_09h59.19.044,tripletExp_regina_11082022,2022.2.4,120.83013562876666,
3,13,10,0,0.444444444444444,0.298245614035088,0,0.111111111111111,3.10526315789474,0,0.694444444444444,1.0,ReadingArea_rsl0-rcl44-esl29-rsm0-rcm11-esm310-rsr0-rcr69-esr100,exr/ReadingArea_rsl0-rcl44-esl29-rsm0-rcm11-esm310-rsr0-rcr69-esr100.exr,ReadingArea_rsl0-rcl44-esl29-rsm0-rcm11-esm310-rsr0-rcr69-esr100.npz,,,,,0,188,188,416,,right,red,4.36,1381.7776379585266,1382.1678729057312,,,3,7,1,lightness,readingArea,realistic,75,2023-03-25_09h59.19.044,tripletExp_regina_11082022,2022.2.4,120.83013562876666,
12,13,7,0,0.027777777777778,3.10526315789474,0,0.111111111111111,3.10526315789474,0,0.111111111111111,1.0,ReadingArea_rsl0-rcl2-esl310-rsm0-rcm11-esm310-rsr0-rcr11-esr100,exr/ReadingArea_rsl0-rcl2-esl310-rsm0-rcm11-esm310-rsr0-rcr11-esr100.exr,ReadingArea_rsl0-rcl2-esl310-rsm0-rcm11-esm310-rsr0-rcr11-esr100.npz,,,,,0,189,189,408,,right,red,3.85,1387.446053981781,1387.8918368816376,,,3,7,1,lightness,readingArea,realistic,75,2023-03-25_09h59.19.044,tripletExp_regina_11082022,2022.2.4,120.83013562876666,
4,2,5,0,0.694444444444444,0.298245614035088,0,0.25,0.298245614035088,0,1.0,0.298245614035088,ReadingArea_rsl0-rcl69-esl29-rsm0-rcm25-esm29-rsr0-rcr100-esr29,exr/ReadingArea_rsl0-rcl69-esl29-rsm0-rcm25-esm29-rsr0-rcr100-esr29.exr,ReadingArea_rsl0-rcl69-esl29-rsm0-rcm25-esm29-rsr0-rcr100-esr29.npz,,,,,0,190,190,101,,left,green,4.04,1393.152724981308,1393.5412759780884,,,3,7,1,lightness,readingArea,realistic,75,2023-03-25_09h59.19.044,tripletExp_regina_11082022,2022.2.4,120.83013562876666,
2,1,10,0,0.25,0.298245614035088,0,0.111111111111111,0.298245614035088,0,0.694444444444444,1.0,ReadingArea_rsl0-rcl25-esl29-rsm0-rcm11-esm29-rsr0-rcr69-esr100,exr/ReadingArea_rsl0-rcl25-esl29-rsm0-rcm11-esm29-rsr0-rcr69-esr100.exr,ReadingArea_rsl0-rcl25-esl29-rsm0-rcm11-esm29-rsr0-rcr69-esr100.npz,,,,,0,191,191,585,,left,green,3.87,1398.7701439857483,1399.1609318256378,,,3,7,1,lightness,readingArea,realistic,75,2023-03-25_09h59.19.044,tripletExp_regina_11082022,2022.2.4,120.83013562876666,
4,12,6,0,0.694444444444444,0.298245614035088,0,0.027777777777778,3.10526315789474,0,0.027777777777778,1.0,ReadingArea_rsl0-rcl69-esl29-rsm0-rcm2-esm310-rsr0-rcr2-esr100,exr/ReadingArea_rsl0-rcl69-esl29-rsm0-rcm2-esm310-rsr0-rcr2-esr100.exr,ReadingArea_rsl0-rcl69-esl29-rsm0-rcm2-esm310-rsr0-rcr2-esr100.npz,,,,,0,192,192,99,,right,red,4.07,1404.4035758972168,1404.7998259067535,,,3,7,1,lightness,readingArea,realistic,75,2023-03-25_09h59.19.044,tripletExp_regina_11082022,2022.2.4,120.83013562876666,
9,11,3,0,0.444444444444444,1.0,0,1.0,1.0,0,0.444444444444444,0.298245614035088,ReadingArea_rsl0-rcl44-esl100-rsm0-rcm100-esm100-rsr0-rcr44-esr29,exr/ReadingArea_rsl0-rcl44-esl100-rsm0-rcm100-esm100-rsr0-rcr44-esr29.exr,ReadingArea_rsl0-rcl44-esl100-rsm0-rcm100-esm100-rsr0-rcr44-esr29.npz,,,,,0,193,193,348,,left,green,3.88,1410.0458869934082,1410.441253900528,,,3,7,1,lightness,readingArea,realistic,75,2023-03-25_09h59.19.044,tripletExp_regina_11082022,2022.2.4,120.83013562876666,
10,0,14,0,0.694444444444444,1.0,0,0.027777777777778,0.298245614035088,0,0.25,3.10526315789474,ReadingArea_rsl0-rcl69-esl100-rsm0-rcm2-esm29-rsr0-rcr25-esr310,exr/ReadingArea_rsl0-rcl69-esl100-rsm0-rcm2-esm29-rsr0-rcr25-esr310.exr,ReadingArea_rsl0-rcl69-esl100-rsm0-rcm2-esm29-rsr0-rcr25-esr310.npz,,,,,0,194,194,95,,left,green,3.97,1415.6919898986816,1416.0916140079498,,,3,7,1,lightness,readingArea,realistic,75,2023-03-25_09h59.19.044,tripletExp_regina_11082022,2022.2.4,120.83013562876666,
12,8,9,0,0.027777777777778,3.10526315789474,0,0.25,1.0,0,0.444444444444444,1.0,ReadingArea_rsl0-rcl2-esl310-rsm0-rcm25-esm100-rsr0-rcr44-esr100,exr/ReadingArea_rsl0-rcl2-esl310-rsm0-rcm25-esm100-rsr0-rcr44-esr100.exr,ReadingArea_rsl0-rcl2-esl310-rsm0-rcm25-esm100-rsr0-rcr44-esr100.npz,,,,,0,195,195,517,,right,red,3.85,1421.3182518482208,1421.720270872116,,,3,7,1,lightness,readingArea,realistic,75,2023-03-25_09h59.19.044,tripletExp_regina_11082022,2022.2.4,120.83013562876666,
0,8,3,0,0.027777777777778,0.298245614035088,0,0.25,1.0,0,0.444444444444444,0.298245614035088,ReadingArea_rsl0-rcl2-esl29-rsm0-rcm25-esm100-rsr0-rcr44-esr29,exr/ReadingArea_rsl0-rcl2-esl29-rsm0-rcm25-esm100-rsr0-rcr44-esr29.exr,ReadingArea_rsl0-rcl2-esl29-rsm0-rcm25-esm100-rsr0-rcr44-esr29.npz,,,,,0,196,196,301,,right,red,3.78,1426.9998559951782,1427.39289188385,,,3,7,1,lightness,readingArea,realistic,75,2023-03-25_09h59.19.044,tripletExp_regina_11082022,2022.2.4,120.83013562876666,
9,0,8,0,0.444444444444444,1.0,0,0.027777777777778,0.298245614035088,0,0.25,1.0,ReadingArea_rsl0-rcl44-esl100-rsm0-rcm2-esm29-rsr0-rcr25-esr100,exr/ReadingArea_rsl0-rcl44-esl100-rsm0-rcm2-esm29-rsr0-rcr25-esr100.exr,ReadingArea_rsl0-rcl44-esl100-rsm0-rcm2-esm29-rsr0-rcr25-esr100.npz,,,,,0,197,197,27,,right,red,3.86,1432.664850950241,,,,3,7,1,lightness,readingArea,realistic,75,2023-03-25_09h59.19.044,tripletExp_regina_11082022,2022.2.4,120.83013562876666,
3,4,5,0,0.444444444444444,0.298245614035088,0,0.694444444444444,0.298245614035088,0,1.0,0.298245614035088,ReadingArea_rsl0-rcl44-esl29-rsm0-rcm69-esm29-rsr0-rcr100-esr29,exr/ReadingArea_rsl0-rcl44-esl29-rsm0-rcm69-esm29-rsr0-rcr100-esr29.exr,ReadingArea_rsl0-rcl44-esl29-rsm0-rcm69-esm29-rsr0-rcr100-esr29.npz,,,,,0,198,198,233,,left,green,3.87,1438.3275218009949,1438.7194747924805,,,3,7,1,lightness,readingArea,realistic,75,2023-03-25_09h59.19.044,tripletExp_regina_11082022,2022.2.4,120.83013562876666,
10,14,1,0,0.694444444444444,1.0,0,0.25,3.10526315789474,0,0.111111111111111,0.298245614035088,ReadingArea_rsl0-rcl69-esl100-rsm0-rcm25-esm310-rsr0-rcr11-esr29,exr/ReadingArea_rsl0-rcl69-esl100-rsm0-rcm25-esm310-rsr0-rcr11-esr29.exr,ReadingArea_rsl0-rcl69-esl100-rsm0-rcm25-esm310-rsr0-rcr11-esr29.npz,,,,,0,199,199,544,,left,green,4.05,1443.9787259101868,1444.3736188411713,,,3,7,1,lightness,readingArea,realistic,75,2023-03-25_09h59.19.044,tripletExp_regina_11082022,2022.2.4,120.83013562876666,
7,14,5,0,0.111111111111111,1.0,0,0.25,3.10526315789474,0,1.0,0.298245614035088,ReadingArea_rsl0-rcl11-esl100-rsm0-rcm25-esm310-rsr0-rcr100-esr29,exr/ReadingArea_rsl0-rcl11-esl100-rsm0-rcm25-esm310-rsr0-rcr100-esr29.exr,ReadingArea_rsl0-rcl11-esl100-rsm0-rcm25-esm310-rsr0-rcr100-esr29.npz,,,,,0,200,200,372,,right,red,4.02,1449.5672929286957,,,,3,7,1,lightness,readingArea,realistic,75,2023-03-25_09h59.19.044,tripletExp_regina_11082022,2022.2.4,120.83013562876666,
11,4,0,0,1.0,1.0,0,0.694444444444444,0.298245614035088,0,0.027777777777778,0.298245614035088,ReadingArea_rsl0-rcl100-esl100-rsm0-rcm69-esm29-rsr0-rcr2-esr29,exr/ReadingArea_rsl0-rcl100-esl100-rsm0-rcm69-esm29-rsr0-rcr2-esr29.exr,ReadingArea_rsl0-rcl100-esl100-rsm0-rcm69-esm29-rsr0-rcr2-esr29.npz,,,,,0,201,201,219,,left,green,3.78,1455.190997838974,1455.5781698226929,,,3,7,1,lightness,readingArea,realistic,75,2023-03-25_09h59.19.044,tripletExp_regina_11082022,2022.2.4,120.83013562876666,
0,1,8,0,0.027777777777778,0.298245614035088,0,0.111111111111111,0.298245614035088,0,0.25,1.0,ReadingArea_rsl0-rcl2-esl29-rsm0-rcm11-esm29-rsr0-rcr25-esr100,exr/ReadingArea_rsl0-rcl2-esl29-rsm0-rcm11-esm29-rsr0-rcr25-esr100.exr,ReadingArea_rsl0-rcl2-esl29-rsm0-rcm11-esm29-rsr0-rcr25-esr100.npz,,,,,0,202,202,107,,left,green,3.95,1460.8213880062103,1461.210557937622,,,3,7,1,lightness,readingArea,realistic,75,2023-03-25_09h59.19.044,tripletExp_regina_11082022,2022.2.4,120.83013562876666,
12,7,1,0,0.027777777777778,3.10526315789474,0,0.111111111111111,1.0,0,0.111111111111111,0.298245614035088,ReadingArea_rsl0-rcl2-esl310-rsm0-rcm11-esm100-rsr0-rcr11-esr29,exr/ReadingArea_rsl0-rcl2-esl310-rsm0-rcm11-esm100-rsr0-rcr11-esr29.exr,ReadingArea_rsl0-rcl2-esl310-rsm0-rcm11-esm100-rsr0-rcr11-esr29.npz,,,,,0,203,203,264,,left,green,4.18,1466.4419548511505,1466.8370378017426,,,3,7,1,lightness,readingArea,realistic,75,2023-03-25_09h59.19.044,tripletExp_regina_11082022,2022.2.4,120.83013562876666,
