index_left,index_middle,index_right,reflectance_surround_left,reflectance_center_left,emission_spot_left,reflectance_surround_middle,reflectance_center_middle,emission_spot_middle,reflectance_surround_right,reflectance_center_right,emission_spot_right,ImageName,ImageExr,ImageNpy,trials_2.thisRepN,trials_2.thisTrialN,trials_2.thisN,trials_2.thisIndex,trials.thisRepN,trials.thisTrialN,trials.thisN,trials.thisIndex,sound_1.started,BB_Trial.resp,BB_Trial.color,BB_Trial.rt,text.started,text.stopped,block,participant,session,L/B,scene,condition,nTrialsPerBlock,date,expName,psychopyVersion,frameRate,Unnamed: 40
8,13,2,0,0.25,1.0,0,0.111111111111111,3.10526315789474,0,0.25,0.298245614035088,ReadingArea_rsl0-rcl25-esl100-rsm0-rcm11-esm310-rsr0-rcr25-esr29,exr/ReadingArea_rsl0-rcl25-esl100-rsm0-rcm11-esm310-rsr0-rcr25-esr29.exr,ReadingArea_rsl0-rcl25-esl100-rsm0-rcm11-esm310-rsr0-rcr25-esr29.npz,,,,,0,0,0,376,257.5989695072174,left,green,0.85,265.6439619064331,257.0632288455963,1,3,3,brightness,readingArea,realistic,75,2023-03-17_14h40.46.001,tripletExp_regina_11082022,2022.2.4,119.47711896996198,
1,9,11,0,0.111111111111111,0.298245614035088,0,0.444444444444444,1.0,0,1.0,1.0,ReadingArea_rsl0-rcl11-esl29-rsm0-rcm44-esm100-rsr0-rcr100-esr100,exr/ReadingArea_rsl0-rcl11-esl29-rsm0-rcm44-esm100-rsr0-rcr100-esr100.exr,ReadingArea_rsl0-rcl11-esl29-rsm0-rcm44-esm100-rsr0-rcr100-esr100.npz,,,,,0,1,1,215,,right,red,0.59,267.7132089138031,268.09920287132263,1,3,3,brightness,readingArea,realistic,75,2023-03-17_14h40.46.001,tripletExp_regina_11082022,2022.2.4,119.47711896996198,
3,0,4,0,0.444444444444444,0.298245614035088,0,0.027777777777778,0.298245614035088,0,0.694444444444444,0.298245614035088,ReadingArea_rsl0-rcl44-esl29-rsm0-rcm2-esm29-rsr0-rcr69-esr29,exr/ReadingArea_rsl0-rcl44-esl29-rsm0-rcm2-esm29-rsr0-rcr69-esr29.exr,ReadingArea_rsl0-rcl44-esl29-rsm0-rcm2-esm29-rsr0-rcr69-esr29.npz,,,,,0,2,2,111,,left,green,2.48,271.55275893211365,271.8858630657196,1,3,3,brightness,readingArea,realistic,75,2023-03-17_14h40.46.001,tripletExp_regina_11082022,2022.2.4,119.47711896996198,
6,11,1,0,0.027777777777778,1.0,0,1.0,1.0,0,0.111111111111111,0.298245614035088,ReadingArea_rsl0-rcl2-esl100-rsm0-rcm100-esm100-rsr0-rcr11-esr29,exr/ReadingArea_rsl0-rcl2-esl100-rsm0-rcm100-esm100-rsr0-rcr11-esr29.exr,ReadingArea_rsl0-rcl2-esl100-rsm0-rcm100-esm100-rsr0-rcr11-esr29.npz,,,,,0,3,3,436,,right,red,2.62,275.32834100723267,275.661493062973,1,3,3,brightness,readingArea,realistic,75,2023-03-17_14h40.46.001,tripletExp_regina_11082022,2022.2.4,119.47711896996198,
2,14,1,0,0.25,0.298245614035088,0,0.25,3.10526315789474,0,0.111111111111111,0.298245614035088,ReadingArea_rsl0-rcl25-esl29-rsm0-rcm25-esm310-rsr0-rcr11-esr29,exr/ReadingArea_rsl0-rcl25-esl29-rsm0-rcm25-esm310-rsr0-rcr11-esr29.exr,ReadingArea_rsl0-rcl25-esl29-rsm0-rcm25-esm310-rsr0-rcr11-esr29.npz,,,,,0,4,4,579,,left,green,1.2,277.358197927475,277.6886489391327,1,3,3,brightness,readingArea,realistic,75,2023-03-17_14h40.46.001,tripletExp_regina_11082022,2022.2.4,119.47711896996198,
13,4,12,0,0.111111111111111,3.10526315789474,0,0.694444444444444,0.298245614035088,0,0.027777777777778,3.10526315789474,ReadingArea_rsl0-rcl11-esl310-rsm0-rcm69-esm29-rsr0-rcr2-esr310,exr/ReadingArea_rsl0-rcl11-esl310-rsm0-rcm69-esm29-rsr0-rcr2-esr310.exr,ReadingArea_rsl0-rcl11-esl310-rsm0-rcm69-esm29-rsr0-rcr2-esr310.npz,,,,,0,5,5,122,,left,green,0.74,279.3816468715668,279.71156787872314,1,3,3,brightness,readingArea,realistic,75,2023-03-17_14h40.46.001,tripletExp_regina_11082022,2022.2.4,119.47711896996198,
12,6,2,0,0.027777777777778,3.10526315789474,0,0.027777777777778,1.0,0,0.25,0.298245614035088,ReadingArea_rsl0-rcl2-esl310-rsm0-rcm2-esm100-rsr0-rcr25-esr29,exr/ReadingArea_rsl0-rcl2-esl310-rsm0-rcm2-esm100-rsr0-rcr25-esr29.exr,ReadingArea_rsl0-rcl2-esl310-rsm0-rcm2-esm100-rsr0-rcr25-esr29.npz,,,,,0,6,6,106,,left,green,1.55,281.433837890625,281.7649278640747,1,3,3,brightness,readingArea,realistic,75,2023-03-17_14h40.46.001,tripletExp_regina_11082022,2022.2.4,119.47711896996198,
10,5,4,0,0.694444444444444,1.0,0,1.0,0.298245614035088,0,0.694444444444444,0.298245614035088,ReadingArea_rsl0-rcl69-esl100-rsm0-rcm100-esm29-rsr0-rcr69-esr29,exr/ReadingArea_rsl0-rcl69-esl100-rsm0-rcm100-esm29-rsr0-rcr69-esr29.exr,ReadingArea_rsl0-rcl69-esl100-rsm0-rcm100-esm29-rsr0-rcr69-esr29.npz,,,,,0,7,7,455,,right,red,0.95,283.478031873703,283.80483198165894,1,3,3,brightness,readingArea,realistic,75,2023-03-17_14h40.46.001,tripletExp_regina_11082022,2022.2.4,119.47711896996198,
4,7,5,0,0.694444444444444,0.298245614035088,0,0.111111111111111,1.0,0,1.0,0.298245614035088,ReadingArea_rsl0-rcl69-esl29-rsm0-rcm11-esm100-rsr0-rcr100-esr29,exr/ReadingArea_rsl0-rcl69-esl29-rsm0-rcm11-esm100-rsr0-rcr100-esr29.exr,ReadingArea_rsl0-rcl69-esl29-rsm0-rcm11-esm100-rsr0-rcr100-esr29.npz,,,,,0,8,8,195,,left,green,1.27,285.5037009716034,,1,3,3,brightness,readingArea,realistic,75,2023-03-17_14h40.46.001,tripletExp_regina_11082022,2022.2.4,119.47711896996198,
8,13,9,0,0.25,1.0,0,0.111111111111111,3.10526315789474,0,0.444444444444444,1.0,ReadingArea_rsl0-rcl25-esl100-rsm0-rcm11-esm310-rsr0-rcr44-esr100,exr/ReadingArea_rsl0-rcl25-esl100-rsm0-rcm11-esm310-rsr0-rcr44-esr100.exr,ReadingArea_rsl0-rcl25-esl100-rsm0-rcm11-esm310-rsr0-rcr44-esr100.npz,,,,,0,9,9,487,,left,green,0.74,287.56167101860046,287.8873379230499,1,3,3,brightness,readingArea,realistic,75,2023-03-17_14h40.46.001,tripletExp_regina_11082022,2022.2.4,119.47711896996198,
8,10,6,0,0.25,1.0,0,0.694444444444444,1.0,0,0.027777777777778,1.0,ReadingArea_rsl0-rcl25-esl100-rsm0-rcm69-esm100-rsr0-rcr2-esr100,exr/ReadingArea_rsl0-rcl25-esl100-rsm0-rcm69-esm100-rsr0-rcr2-esr100.exr,ReadingArea_rsl0-rcl25-esl100-rsm0-rcm69-esm100-rsr0-rcr2-esr100.npz,,,,,0,10,10,129,,left,green,0.72,289.5797939300537,,1,3,3,brightness,readingArea,realistic,75,2023-03-17_14h40.46.001,tripletExp_regina_11082022,2022.2.4,119.47711896996198,
14,12,5,0,0.25,3.10526315789474,0,0.027777777777778,3.10526315789474,0,1.0,0.298245614035088,ReadingArea_rsl0-rcl25-esl310-rsm0-rcm2-esm310-rsr0-rcr100-esr29,exr/ReadingArea_rsl0-rcl25-esl310-rsm0-rcm2-esm310-rsr0-rcr100-esr29.exr,ReadingArea_rsl0-rcl25-esl310-rsm0-rcm2-esm310-rsr0-rcr100-esr29.npz,,,,,0,11,11,335,,right,red,0.88,291.6058979034424,291.93961906433105,1,3,3,brightness,readingArea,realistic,75,2023-03-17_14h40.46.001,tripletExp_regina_11082022,2022.2.4,119.47711896996198,
7,13,12,0,0.111111111111111,1.0,0,0.111111111111111,3.10526315789474,0,0.027777777777778,3.10526315789474,ReadingArea_rsl0-rcl11-esl100-rsm0-rcm11-esm310-rsr0-rcr2-esr310,exr/ReadingArea_rsl0-rcl11-esl100-rsm0-rcm11-esm310-rsr0-rcr2-esr310.exr,ReadingArea_rsl0-rcl11-esl100-rsm0-rcm11-esm310-rsr0-rcr2-esr310.npz,,,,,0,12,12,438,,left,green,1.2,293.66198086738586,294.010262966156,1,3,3,brightness,readingArea,realistic,75,2023-03-17_14h40.46.001,tripletExp_regina_11082022,2022.2.4,119.47711896996198,
0,1,8,0,0.027777777777778,0.298245614035088,0,0.111111111111111,0.298245614035088,0,0.25,1.0,ReadingArea_rsl0-rcl2-esl29-rsm0-rcm11-esm29-rsr0-rcr25-esr100,exr/ReadingArea_rsl0-rcl2-esl29-rsm0-rcm11-esm29-rsr0-rcr25-esr100.exr,ReadingArea_rsl0-rcl2-esl29-rsm0-rcm11-esm29-rsr0-rcr25-esr100.npz,,,,,0,13,13,107,,left,green,3.89,299.2944350242615,299.6803879737854,1,3,3,brightness,readingArea,realistic,75,2023-03-17_14h40.46.001,tripletExp_regina_11082022,2022.2.4,119.47711896996198,
7,5,11,0,0.111111111111111,1.0,0,1.0,0.298245614035088,0,1.0,1.0,ReadingArea_rsl0-rcl11-esl100-rsm0-rcm100-esm29-rsr0-rcr100-esr100,exr/ReadingArea_rsl0-rcl11-esl100-rsm0-rcm100-esm29-rsr0-rcr100-esr100.exr,ReadingArea_rsl0-rcl11-esl100-rsm0-rcm100-esm29-rsr0-rcr100-esr100.npz,,,,,0,14,14,10,,left,green,1.45,301.36251306533813,301.6893529891968,1,3,3,brightness,readingArea,realistic,75,2023-03-17_14h40.46.001,tripletExp_regina_11082022,2022.2.4,119.47711896996198,
14,1,13,0,0.25,3.10526315789474,0,0.111111111111111,0.298245614035088,0,0.111111111111111,3.10526315789474,ReadingArea_rsl0-rcl25-esl310-rsm0-rcm11-esm29-rsr0-rcr11-esr310,exr/ReadingArea_rsl0-rcl25-esl310-rsm0-rcm11-esm29-rsr0-rcr11-esr310.exr,ReadingArea_rsl0-rcl25-esl310-rsm0-rcm11-esm29-rsr0-rcr11-esr310.npz,,,,,0,15,15,265,,right,red,1.06,303.41422605514526,303.7432749271393,1,3,3,brightness,readingArea,realistic,75,2023-03-17_14h40.46.001,tripletExp_regina_11082022,2022.2.4,119.47711896996198,
12,6,3,0,0.027777777777778,3.10526315789474,0,0.027777777777778,1.0,0,0.444444444444444,0.298245614035088,ReadingArea_rsl0-rcl2-esl310-rsm0-rcm2-esm100-rsr0-rcr44-esr29,exr/ReadingArea_rsl0-rcl2-esl310-rsm0-rcm2-esm100-rsr0-rcr44-esr29.exr,ReadingArea_rsl0-rcl2-esl310-rsm0-rcm2-esm100-rsr0-rcr44-esr29.npz,,,,,0,16,16,139,,left,green,1.34,305.46661591529846,305.79923605918884,1,3,3,brightness,readingArea,realistic,75,2023-03-17_14h40.46.001,tripletExp_regina_11082022,2022.2.4,119.47711896996198,
5,4,10,0,1.0,0.298245614035088,0,0.694444444444444,0.298245614035088,0,0.694444444444444,1.0,ReadingArea_rsl0-rcl100-esl29-rsm0-rcm69-esm29-rsr0-rcr69-esr100,exr/ReadingArea_rsl0-rcl100-esl29-rsm0-rcm69-esm29-rsr0-rcr69-esr100.exr,ReadingArea_rsl0-rcl100-esl29-rsm0-rcm69-esm29-rsr0-rcr69-esr100.npz,,,,,0,17,17,536,,left,green,0.97,307.50792384147644,,1,3,3,brightness,readingArea,realistic,75,2023-03-17_14h40.46.001,tripletExp_regina_11082022,2022.2.4,119.47711896996198,
9,6,11,0,0.444444444444444,1.0,0,0.027777777777778,1.0,0,1.0,1.0,ReadingArea_rsl0-rcl44-esl100-rsm0-rcm2-esm100-rsr0-rcr100-esr100,exr/ReadingArea_rsl0-rcl44-esl100-rsm0-rcm2-esm100-rsr0-rcr100-esr100.exr,ReadingArea_rsl0-rcl44-esl100-rsm0-rcm2-esm100-rsr0-rcr100-esr100.npz,,,,,0,18,18,572,,left,green,0.76,309.53755402565,309.86956691741943,1,3,3,brightness,readingArea,realistic,75,2023-03-17_14h40.46.001,tripletExp_regina_11082022,2022.2.4,119.47711896996198,
12,4,9,0,0.027777777777778,3.10526315789474,0,0.694444444444444,0.298245614035088,0,0.444444444444444,1.0,ReadingArea_rsl0-rcl2-esl310-rsm0-rcm69-esm29-rsr0-rcr44-esr100,exr/ReadingArea_rsl0-rcl2-esl310-rsm0-rcm69-esm29-rsr0-rcr44-esr100.exr,ReadingArea_rsl0-rcl2-esl310-rsm0-rcm69-esm29-rsr0-rcr44-esr100.npz,,,,,0,19,19,380,,right,red,1.34,311.58350896835327,311.9212210178375,1,3,3,brightness,readingArea,realistic,75,2023-03-17_14h40.46.001,tripletExp_regina_11082022,2022.2.4,119.47711896996198,
1,6,11,0,0.111111111111111,0.298245614035088,0,0.027777777777778,1.0,0,1.0,1.0,ReadingArea_rsl0-rcl11-esl29-rsm0-rcm2-esm100-rsr0-rcr100-esr100,exr/ReadingArea_rsl0-rcl11-esl29-rsm0-rcm2-esm100-rsr0-rcr100-esr100.exr,ReadingArea_rsl0-rcl11-esl29-rsm0-rcm2-esm100-rsr0-rcr100-esr100.npz,,,,,0,20,20,39,,left,green,0.64,313.62399792671204,313.95121002197266,1,3,3,brightness,readingArea,realistic,75,2023-03-17_14h40.46.001,tripletExp_regina_11082022,2022.2.4,119.47711896996198,
11,5,8,0,1.0,1.0,0,1.0,0.298245614035088,0,0.25,1.0,ReadingArea_rsl0-rcl100-esl100-rsm0-rcm100-esm29-rsr0-rcr25-esr100,exr/ReadingArea_rsl0-rcl100-esl100-rsm0-rcm100-esm29-rsr0-rcr25-esr100.exr,ReadingArea_rsl0-rcl100-esl100-rsm0-rcm100-esm29-rsr0-rcr25-esr100.npz,,,,,0,21,21,86,,right,red,0.97,315.67460203170776,316.00731587409973,1,3,3,brightness,readingArea,realistic,75,2023-03-17_14h40.46.001,tripletExp_regina_11082022,2022.2.4,119.47711896996198,
10,6,8,0,0.694444444444444,1.0,0,0.027777777777778,1.0,0,0.25,1.0,ReadingArea_rsl0-rcl69-esl100-rsm0-rcm2-esm100-rsr0-rcr25-esr100,exr/ReadingArea_rsl0-rcl69-esl100-rsm0-rcm2-esm100-rsr0-rcr25-esr100.exr,ReadingArea_rsl0-rcl69-esl100-rsm0-rcm2-esm100-rsr0-rcr25-esr100.npz,,,,,0,22,22,145,,right,red,0.88,317.70270895957947,318.0371689796448,1,3,3,brightness,readingArea,realistic,75,2023-03-17_14h40.46.001,tripletExp_regina_11082022,2022.2.4,119.47711896996198,
6,11,7,0,0.027777777777778,1.0,0,1.0,1.0,0,0.111111111111111,1.0,ReadingArea_rsl0-rcl2-esl100-rsm0-rcm100-esm100-rsr0-rcr11-esr100,exr/ReadingArea_rsl0-rcl2-esl100-rsm0-rcm100-esm100-rsr0-rcr11-esr100.exr,ReadingArea_rsl0-rcl2-esl100-rsm0-rcm100-esm100-rsr0-rcr11-esr100.npz,,,,,0,23,23,571,,right,red,1.81,321.50073194503784,321.8290259838104,1,3,3,brightness,readingArea,realistic,75,2023-03-17_14h40.46.001,tripletExp_regina_11082022,2022.2.4,119.47711896996198,
4,10,11,0,0.694444444444444,0.298245614035088,0,0.694444444444444,1.0,0,1.0,1.0,ReadingArea_rsl0-rcl69-esl29-rsm0-rcm69-esm100-rsr0-rcr100-esr100,exr/ReadingArea_rsl0-rcl69-esl29-rsm0-rcm69-esm100-rsr0-rcr100-esr100.exr,ReadingArea_rsl0-rcl69-esl29-rsm0-rcm69-esm100-rsr0-rcr100-esr100.npz,,,,,0,24,24,180,,right,red,0.72,323.54296684265137,,1,3,3,brightness,readingArea,realistic,75,2023-03-17_14h40.46.001,tripletExp_regina_11082022,2022.2.4,119.47711896996198,
12,8,6,0,0.027777777777778,3.10526315789474,0,0.25,1.0,0,0.027777777777778,1.0,ReadingArea_rsl0-rcl2-esl310-rsm0-rcm25-esm100-rsr0-rcr2-esr100,exr/ReadingArea_rsl0-rcl2-esl310-rsm0-rcm25-esm100-rsr0-rcr2-esr100.exr,ReadingArea_rsl0-rcl2-esl310-rsm0-rcm25-esm100-rsr0-rcr2-esr100.npz,,,,,0,25,25,281,,left,green,0.7,325.57772994041443,325.91112089157104,1,3,3,brightness,readingArea,realistic,75,2023-03-17_14h40.46.001,tripletExp_regina_11082022,2022.2.4,119.47711896996198,
10,13,1,0,0.694444444444444,1.0,0,0.111111111111111,3.10526315789474,0,0.111111111111111,0.298245614035088,ReadingArea_rsl0-rcl69-esl100-rsm0-rcm11-esm310-rsr0-rcr11-esr29,exr/ReadingArea_rsl0-rcl69-esl100-rsm0-rcm11-esm310-rsr0-rcr11-esr29.exr,ReadingArea_rsl0-rcl69-esl100-rsm0-rcm11-esm310-rsr0-rcr11-esr29.npz,,,,,0,26,26,149,,left,green,0.66,327.6171998977661,327.9473259449005,1,3,3,brightness,readingArea,realistic,75,2023-03-17_14h40.46.001,tripletExp_regina_11082022,2022.2.4,119.47711896996198,
0,9,6,0,0.027777777777778,0.298245614035088,0,0.444444444444444,1.0,0,0.027777777777778,1.0,ReadingArea_rsl0-rcl2-esl29-rsm0-rcm44-esm100-rsr0-rcr2-esr100,exr/ReadingArea_rsl0-rcl2-esl29-rsm0-rcm44-esm100-rsr0-rcr2-esr100.exr,ReadingArea_rsl0-rcl2-esl29-rsm0-rcm44-esm100-rsr0-rcr2-esr100.npz,,,,,0,27,27,365,,right,red,1.06,329.6472568511963,329.98041892051697,1,3,3,brightness,readingArea,realistic,75,2023-03-17_14h40.46.001,tripletExp_regina_11082022,2022.2.4,119.47711896996198,
6,5,11,0,0.027777777777778,1.0,0,1.0,0.298245614035088,0,1.0,1.0,ReadingArea_rsl0-rcl2-esl100-rsm0-rcm100-esm29-rsr0-rcr100-esr100,exr/ReadingArea_rsl0-rcl2-esl100-rsm0-rcm100-esm29-rsr0-rcr100-esr100.exr,ReadingArea_rsl0-rcl2-esl100-rsm0-rcm100-esm29-rsr0-rcr100-esr100.npz,,,,,0,28,28,289,,right,red,1.45,331.6688828468323,331.9967210292816,1,3,3,brightness,readingArea,realistic,75,2023-03-17_14h40.46.001,tripletExp_regina_11082022,2022.2.4,119.47711896996198,
11,5,1,0,1.0,1.0,0,1.0,0.298245614035088,0,0.111111111111111,0.298245614035088,ReadingArea_rsl0-rcl100-esl100-rsm0-rcm100-esm29-rsr0-rcr11-esr29,exr/ReadingArea_rsl0-rcl100-esl100-rsm0-rcm100-esm29-rsr0-rcr11-esr29.exr,ReadingArea_rsl0-rcl100-esl100-rsm0-rcm100-esm29-rsr0-rcr11-esr29.npz,,,,,0,29,29,48,,left,green,0.8,333.6864929199219,,1,3,3,brightness,readingArea,realistic,75,2023-03-17_14h40.46.001,tripletExp_regina_11082022,2022.2.4,119.47711896996198,
3,2,8,0,0.444444444444444,0.298245614035088,0,0.25,0.298245614035088,0,0.25,1.0,ReadingArea_rsl0-rcl44-esl29-rsm0-rcm25-esm29-rsr0-rcr25-esr100,exr/ReadingArea_rsl0-rcl44-esl29-rsm0-rcm25-esm29-rsr0-rcr25-esr100.exr,ReadingArea_rsl0-rcl44-esl29-rsm0-rcm25-esm29-rsr0-rcr25-esr100.npz,,,,,0,30,30,181,,left,green,1.42,335.74098205566406,336.07306385040283,1,3,3,brightness,readingArea,realistic,75,2023-03-17_14h40.46.001,tripletExp_regina_11082022,2022.2.4,119.47711896996198,
4,11,12,0,0.694444444444444,0.298245614035088,0,1.0,1.0,0,0.027777777777778,3.10526315789474,ReadingArea_rsl0-rcl69-esl29-rsm0-rcm100-esm100-rsr0-rcr2-esr310,exr/ReadingArea_rsl0-rcl69-esl29-rsm0-rcm100-esm100-rsr0-rcr2-esr310.exr,ReadingArea_rsl0-rcl69-esl29-rsm0-rcm100-esm100-rsr0-rcr2-esr310.npz,,,,,0,31,31,109,,left,green,1.03,337.7957298755646,,1,3,3,brightness,readingArea,realistic,75,2023-03-17_14h40.46.001,tripletExp_regina_11082022,2022.2.4,119.47711896996198,
1,12,10,0,0.111111111111111,0.298245614035088,0,0.027777777777778,3.10526315789474,0,0.694444444444444,1.0,ReadingArea_rsl0-rcl11-esl29-rsm0-rcm2-esm310-rsr0-rcr69-esr100,exr/ReadingArea_rsl0-rcl11-esl29-rsm0-rcm2-esm310-rsr0-rcr69-esr100.exr,ReadingArea_rsl0-rcl11-esl29-rsm0-rcm2-esm310-rsr0-rcr69-esr100.npz,,,,,0,32,32,567,,left,green,2.92,341.5865089893341,341.9177899360657,1,3,3,brightness,readingArea,realistic,75,2023-03-17_14h40.46.001,tripletExp_regina_11082022,2022.2.4,119.47711896996198,
0,12,7,0,0.027777777777778,0.298245614035088,0,0.027777777777778,3.10526315789474,0,0.111111111111111,1.0,ReadingArea_rsl0-rcl2-esl29-rsm0-rcm2-esm310-rsr0-rcr11-esr100,exr/ReadingArea_rsl0-rcl2-esl29-rsm0-rcm2-esm310-rsr0-rcr11-esr100.exr,ReadingArea_rsl0-rcl2-esl29-rsm0-rcm2-esm310-rsr0-rcr11-esr100.npz,,,,,0,33,33,481,,right,red,0.95,343.64120602607727,343.9739739894867,1,3,3,brightness,readingArea,realistic,75,2023-03-17_14h40.46.001,tripletExp_regina_11082022,2022.2.4,119.47711896996198,
11,7,8,0,1.0,1.0,0,0.111111111111111,1.0,0,0.25,1.0,ReadingArea_rsl0-rcl100-esl100-rsm0-rcm11-esm100-rsr0-rcr25-esr100,exr/ReadingArea_rsl0-rcl100-esl100-rsm0-rcm11-esm100-rsr0-rcr25-esr100.exr,ReadingArea_rsl0-rcl100-esl100-rsm0-rcm11-esm100-rsr0-rcr25-esr100.npz,,,,,0,34,34,37,,right,red,0.89,345.6629660129547,345.99344205856323,1,3,3,brightness,readingArea,realistic,75,2023-03-17_14h40.46.001,tripletExp_regina_11082022,2022.2.4,119.47711896996198,
9,11,3,0,0.444444444444444,1.0,0,1.0,1.0,0,0.444444444444444,0.298245614035088,ReadingArea_rsl0-rcl44-esl100-rsm0-rcm100-esm100-rsr0-rcr44-esr29,exr/ReadingArea_rsl0-rcl44-esl100-rsm0-rcm100-esm100-rsr0-rcr44-esr29.exr,ReadingArea_rsl0-rcl44-esl100-rsm0-rcm100-esm100-rsr0-rcr44-esr29.npz,,,,,0,35,35,348,,left,green,0.92,347.6817209720612,348.01666498184204,1,3,3,brightness,readingArea,realistic,75,2023-03-17_14h40.46.001,tripletExp_regina_11082022,2022.2.4,119.47711896996198,
3,8,1,0,0.444444444444444,0.298245614035088,0,0.25,1.0,0,0.111111111111111,0.298245614035088,ReadingArea_rsl0-rcl44-esl29-rsm0-rcm25-esm100-rsr0-rcr11-esr29,exr/ReadingArea_rsl0-rcl44-esl29-rsm0-rcm25-esm100-rsr0-rcr11-esr29.exr,ReadingArea_rsl0-rcl44-esl29-rsm0-rcm25-esm100-rsr0-rcr11-esr29.npz,,,,,0,36,36,230,,left,green,0.72,349.7092969417572,350.04401683807373,1,3,3,brightness,readingArea,realistic,75,2023-03-17_14h40.46.001,tripletExp_regina_11082022,2022.2.4,119.47711896996198,
7,0,2,0,0.111111111111111,1.0,0,0.027777777777778,0.298245614035088,0,0.25,0.298245614035088,ReadingArea_rsl0-rcl11-esl100-rsm0-rcm2-esm29-rsr0-rcr25-esr29,exr/ReadingArea_rsl0-rcl11-esl100-rsm0-rcm2-esm29-rsr0-rcr25-esr29.exr,ReadingArea_rsl0-rcl11-esl100-rsm0-rcm2-esm29-rsr0-rcr25-esr29.npz,,,,,0,37,37,347,,right,red,1.04,351.76226902008057,352.0945219993592,1,3,3,brightness,readingArea,realistic,75,2023-03-17_14h40.46.001,tripletExp_regina_11082022,2022.2.4,119.47711896996198,
7,4,6,0,0.111111111111111,1.0,0,0.694444444444444,0.298245614035088,0,0.027777777777778,1.0,ReadingArea_rsl0-rcl11-esl100-rsm0-rcm69-esm29-rsr0-rcr2-esr100,exr/ReadingArea_rsl0-rcl11-esl100-rsm0-rcm69-esm29-rsr0-rcr2-esr100.exr,ReadingArea_rsl0-rcl11-esl100-rsm0-rcm69-esm29-rsr0-rcr2-esr100.npz,,,,,0,38,38,528,,left,green,1.02,353.81163001060486,354.1434669494629,1,3,3,brightness,readingArea,realistic,75,2023-03-17_14h40.46.001,tripletExp_regina_11082022,2022.2.4,119.47711896996198,
8,6,0,0,0.25,1.0,0,0.027777777777778,1.0,0,0.027777777777778,0.298245614035088,ReadingArea_rsl0-rcl25-esl100-rsm0-rcm2-esm100-rsr0-rcr2-esr29,exr/ReadingArea_rsl0-rcl25-esl100-rsm0-rcm2-esm100-rsr0-rcr2-esr29.exr,ReadingArea_rsl0-rcl25-esl100-rsm0-rcm2-esm100-rsr0-rcr2-esr29.npz,,,,,0,39,39,187,,right,red,2.14,357.61817598342896,357.95288705825806,1,3,3,brightness,readingArea,realistic,75,2023-03-17_14h40.46.001,tripletExp_regina_11082022,2022.2.4,119.47711896996198,
10,13,6,0,0.694444444444444,1.0,0,0.111111111111111,3.10526315789474,0,0.027777777777778,1.0,ReadingArea_rsl0-rcl69-esl100-rsm0-rcm11-esm310-rsr0-rcr2-esr100,exr/ReadingArea_rsl0-rcl69-esl100-rsm0-rcm11-esm310-rsr0-rcr2-esr100.exr,ReadingArea_rsl0-rcl69-esl100-rsm0-rcm11-esm310-rsr0-rcr2-esr100.npz,,,,,0,40,40,351,,left,green,3.31,361.4351179599762,361.7721078395844,1,3,3,brightness,readingArea,realistic,75,2023-03-17_14h40.46.001,tripletExp_regina_11082022,2022.2.4,119.47711896996198,
14,7,13,0,0.25,3.10526315789474,0,0.111111111111111,1.0,0,0.111111111111111,3.10526315789474,ReadingArea_rsl0-rcl25-esl310-rsm0-rcm11-esm100-rsr0-rcr11-esr310,exr/ReadingArea_rsl0-rcl25-esl310-rsm0-rcm11-esm100-rsr0-rcr11-esr310.exr,ReadingArea_rsl0-rcl25-esl310-rsm0-rcm11-esm100-rsr0-rcr11-esr310.npz,,,,,0,41,41,358,,right,red,1.33,363.4812500476837,363.81236600875854,1,3,3,brightness,readingArea,realistic,75,2023-03-17_14h40.46.001,tripletExp_regina_11082022,2022.2.4,119.47711896996198,
5,9,12,0,1.0,0.298245614035088,0,0.444444444444444,1.0,0,0.027777777777778,3.10526315789474,ReadingArea_rsl0-rcl100-esl29-rsm0-rcm44-esm100-rsr0-rcr2-esr310,exr/ReadingArea_rsl0-rcl100-esl29-rsm0-rcm44-esm100-rsr0-rcr2-esr310.exr,ReadingArea_rsl0-rcl100-esl29-rsm0-rcm44-esm100-rsr0-rcr2-esr310.npz,,,,,0,42,42,539,,left,green,1.05,365.5303199291229,365.8634009361267,1,3,3,brightness,readingArea,realistic,75,2023-03-17_14h40.46.001,tripletExp_regina_11082022,2022.2.4,119.47711896996198,
8,6,5,0,0.25,1.0,0,0.027777777777778,1.0,0,1.0,0.298245614035088,ReadingArea_rsl0-rcl25-esl100-rsm0-rcm2-esm100-rsr0-rcr100-esr29,exr/ReadingArea_rsl0-rcl25-esl100-rsm0-rcm2-esm100-rsr0-rcr100-esr29.exr,ReadingArea_rsl0-rcl25-esl100-rsm0-rcm2-esm100-rsr0-rcr100-esr29.npz,,,,,0,43,43,241,,left,green,1.25,367.5716888904572,367.9057559967041,1,3,3,brightness,readingArea,realistic,75,2023-03-17_14h40.46.001,tripletExp_regina_11082022,2022.2.4,119.47711896996198,
0,7,13,0,0.027777777777778,0.298245614035088,0,0.111111111111111,1.0,0,0.111111111111111,3.10526315789474,ReadingArea_rsl0-rcl2-esl29-rsm0-rcm11-esm100-rsr0-rcr11-esr310,exr/ReadingArea_rsl0-rcl2-esl29-rsm0-rcm11-esm100-rsr0-rcr11-esr310.exr,ReadingArea_rsl0-rcl2-esl29-rsm0-rcm11-esm100-rsr0-rcr11-esr310.npz,,,,,0,44,44,159,,right,red,1.36,369.6272678375244,369.9642000198364,1,3,3,brightness,readingArea,realistic,75,2023-03-17_14h40.46.001,tripletExp_regina_11082022,2022.2.4,119.47711896996198,
11,0,12,0,1.0,1.0,0,0.027777777777778,0.298245614035088,0,0.027777777777778,3.10526315789474,ReadingArea_rsl0-rcl100-esl100-rsm0-rcm2-esm29-rsr0-rcr2-esr310,exr/ReadingArea_rsl0-rcl100-esl100-rsm0-rcm2-esm29-rsr0-rcr2-esr310.exr,ReadingArea_rsl0-rcl100-esl100-rsm0-rcm2-esm29-rsr0-rcr2-esr310.npz,,,,,0,45,45,166,,right,red,1.31,371.6532559394837,371.9895360469818,1,3,3,brightness,readingArea,realistic,75,2023-03-17_14h40.46.001,tripletExp_regina_11082022,2022.2.4,119.47711896996198,
2,1,3,0,0.25,0.298245614035088,0,0.111111111111111,0.298245614035088,0,0.444444444444444,0.298245614035088,ReadingArea_rsl0-rcl25-esl29-rsm0-rcm11-esm29-rsr0-rcr44-esr29,exr/ReadingArea_rsl0-rcl25-esl29-rsm0-rcm11-esm29-rsr0-rcr44-esr29.exr,ReadingArea_rsl0-rcl25-esl29-rsm0-rcm11-esm29-rsr0-rcr44-esr29.npz,,,,,0,46,46,85,,left,green,1.22,373.6751160621643,374.0048530101776,1,3,3,brightness,readingArea,realistic,75,2023-03-17_14h40.46.001,tripletExp_regina_11082022,2022.2.4,119.47711896996198,
8,3,12,0,0.25,1.0,0,0.444444444444444,0.298245614035088,0,0.027777777777778,3.10526315789474,ReadingArea_rsl0-rcl25-esl100-rsm0-rcm44-esm29-rsr0-rcr2-esr310,exr/ReadingArea_rsl0-rcl25-esl100-rsm0-rcm44-esm29-rsr0-rcr2-esr310.exr,ReadingArea_rsl0-rcl25-esl100-rsm0-rcm44-esm29-rsr0-rcr2-esr310.npz,,,,,0,47,47,22,,left,green,1.42,375.694442987442,376.0542809963226,1,3,3,brightness,readingArea,realistic,75,2023-03-17_14h40.46.001,tripletExp_regina_11082022,2022.2.4,119.47711896996198,
4,2,9,0,0.694444444444444,0.298245614035088,0,0.25,0.298245614035088,0,0.444444444444444,1.0,ReadingArea_rsl0-rcl69-esl29-rsm0-rcm25-esm29-rsr0-rcr44-esr100,exr/ReadingArea_rsl0-rcl69-esl29-rsm0-rcm25-esm29-rsr0-rcr44-esr100.exr,ReadingArea_rsl0-rcl69-esl29-rsm0-rcm25-esm29-rsr0-rcr44-esr100.npz,,,,,0,48,48,479,,left,green,1.2,377.7465579509735,378.0828058719635,1,3,3,brightness,readingArea,realistic,75,2023-03-17_14h40.46.001,tripletExp_regina_11082022,2022.2.4,119.47711896996198,
1,13,2,0,0.111111111111111,0.298245614035088,0,0.111111111111111,3.10526315789474,0,0.25,0.298245614035088,ReadingArea_rsl0-rcl11-esl29-rsm0-rcm11-esm310-rsr0-rcr25-esr29,exr/ReadingArea_rsl0-rcl11-esl29-rsm0-rcm11-esm310-rsr0-rcr25-esr29.exr,ReadingArea_rsl0-rcl11-esl29-rsm0-rcm11-esm310-rsr0-rcr25-esr29.npz,,,,,0,49,49,118,,right,red,1.26,379.7745368480682,380.108717918396,1,3,3,brightness,readingArea,realistic,75,2023-03-17_14h40.46.001,tripletExp_regina_11082022,2022.2.4,119.47711896996198,
7,12,0,0,0.111111111111111,1.0,0,0.027777777777778,3.10526315789474,0,0.027777777777778,0.298245614035088,ReadingArea_rsl0-rcl11-esl100-rsm0-rcm2-esm310-rsr0-rcr2-esr29,exr/ReadingArea_rsl0-rcl11-esl100-rsm0-rcm2-esm310-rsr0-rcr2-esr29.exr,ReadingArea_rsl0-rcl11-esl100-rsm0-rcm2-esm310-rsr0-rcr2-esr29.npz,,,,,0,50,50,425,,left,green,0.92,381.8058938980103,382.1412189006805,1,3,3,brightness,readingArea,realistic,75,2023-03-17_14h40.46.001,tripletExp_regina_11082022,2022.2.4,119.47711896996198,
6,0,14,0,0.027777777777778,1.0,0,0.027777777777778,0.298245614035088,0,0.25,3.10526315789474,ReadingArea_rsl0-rcl2-esl100-rsm0-rcm2-esm29-rsr0-rcr25-esr310,exr/ReadingArea_rsl0-rcl2-esl100-rsm0-rcm2-esm29-rsr0-rcr25-esr310.exr,ReadingArea_rsl0-rcl2-esl100-rsm0-rcm2-esm29-rsr0-rcr25-esr310.npz,,,,,0,51,51,169,,left,green,0.78,383.849359035492,384.1824998855591,1,3,3,brightness,readingArea,realistic,75,2023-03-17_14h40.46.001,tripletExp_regina_11082022,2022.2.4,119.47711896996198,
12,7,1,0,0.027777777777778,3.10526315789474,0,0.111111111111111,1.0,0,0.111111111111111,0.298245614035088,ReadingArea_rsl0-rcl2-esl310-rsm0-rcm11-esm100-rsr0-rcr11-esr29,exr/ReadingArea_rsl0-rcl2-esl310-rsm0-rcm11-esm100-rsr0-rcr11-esr29.exr,ReadingArea_rsl0-rcl2-esl310-rsm0-rcm11-esm100-rsr0-rcr11-esr29.npz,,,,,0,52,52,264,,left,green,0.7,385.8889539241791,386.225240945816,1,3,3,brightness,readingArea,realistic,75,2023-03-17_14h40.46.001,tripletExp_regina_11082022,2022.2.4,119.47711896996198,
5,4,12,0,1.0,0.298245614035088,0,0.694444444444444,0.298245614035088,0,0.027777777777778,3.10526315789474,ReadingArea_rsl0-rcl100-esl29-rsm0-rcm69-esm29-rsr0-rcr2-esr310,exr/ReadingArea_rsl0-rcl100-esl29-rsm0-rcm69-esm29-rsr0-rcr2-esr310.exr,ReadingArea_rsl0-rcl100-esl29-rsm0-rcm69-esm29-rsr0-rcr2-esr310.npz,,,,,0,53,53,82,,left,green,0.63,387.9190618991852,388.2543568611145,1,3,3,brightness,readingArea,realistic,75,2023-03-17_14h40.46.001,tripletExp_regina_11082022,2022.2.4,119.47711896996198,
13,3,5,0,0.111111111111111,3.10526315789474,0,0.444444444444444,0.298245614035088,0,1.0,0.298245614035088,ReadingArea_rsl0-rcl11-esl310-rsm0-rcm44-esm29-rsr0-rcr100-esr29,exr/ReadingArea_rsl0-rcl11-esl310-rsm0-rcm44-esm29-rsr0-rcr100-esr29.exr,ReadingArea_rsl0-rcl11-esl310-rsm0-rcm44-esm29-rsr0-rcr100-esr29.npz,,,,,0,54,54,398,,left,green,1.52,389.9396460056305,390.2746250629425,1,3,3,brightness,readingArea,realistic,75,2023-03-17_14h40.46.001,tripletExp_regina_11082022,2022.2.4,119.47711896996198,
6,2,5,0,0.027777777777778,1.0,0,0.25,0.298245614035088,0,1.0,0.298245614035088,ReadingArea_rsl0-rcl2-esl100-rsm0-rcm25-esm29-rsr0-rcr100-esr29,exr/ReadingArea_rsl0-rcl2-esl100-rsm0-rcm25-esm29-rsr0-rcr100-esr29.exr,ReadingArea_rsl0-rcl2-esl100-rsm0-rcm25-esm29-rsr0-rcr100-esr29.npz,,,,,0,55,55,504,,left,green,1.58,391.99264788627625,392.32547903060913,1,3,3,brightness,readingArea,realistic,75,2023-03-17_14h40.46.001,tripletExp_regina_11082022,2022.2.4,119.47711896996198,
2,1,10,0,0.25,0.298245614035088,0,0.111111111111111,0.298245614035088,0,0.694444444444444,1.0,ReadingArea_rsl0-rcl25-esl29-rsm0-rcm11-esm29-rsr0-rcr69-esr100,exr/ReadingArea_rsl0-rcl25-esl29-rsm0-rcm11-esm29-rsr0-rcr69-esr100.exr,ReadingArea_rsl0-rcl25-esl29-rsm0-rcm11-esm29-rsr0-rcr69-esr100.npz,,,,,0,56,56,585,,left,green,1.18,394.0434379577637,394.3757379055023,1,3,3,brightness,readingArea,realistic,75,2023-03-17_14h40.46.001,tripletExp_regina_11082022,2022.2.4,119.47711896996198,
4,12,6,0,0.694444444444444,0.298245614035088,0,0.027777777777778,3.10526315789474,0,0.027777777777778,1.0,ReadingArea_rsl0-rcl69-esl29-rsm0-rcm2-esm310-rsr0-rcr2-esr100,exr/ReadingArea_rsl0-rcl69-esl29-rsm0-rcm2-esm310-rsr0-rcr2-esr100.exr,ReadingArea_rsl0-rcl69-esl29-rsm0-rcm2-esm310-rsr0-rcr2-esr100.npz,,,,,0,57,57,99,,right,red,1.2,396.0723538398743,396.4103410243988,1,3,3,brightness,readingArea,realistic,75,2023-03-17_14h40.46.001,tripletExp_regina_11082022,2022.2.4,119.47711896996198,
12,7,9,0,0.027777777777778,3.10526315789474,0,0.111111111111111,1.0,0,0.444444444444444,1.0,ReadingArea_rsl0-rcl2-esl310-rsm0-rcm11-esm100-rsr0-rcr44-esr100,exr/ReadingArea_rsl0-rcl2-esl310-rsm0-rcm11-esm100-rsr0-rcr44-esr100.exr,ReadingArea_rsl0-rcl2-esl310-rsm0-rcm11-esm100-rsr0-rcr44-esr100.npz,,,,,0,58,58,124,,left,green,0.72,398.103178024292,398.436341047287,1,3,3,brightness,readingArea,realistic,75,2023-03-17_14h40.46.001,tripletExp_regina_11082022,2022.2.4,119.47711896996198,
1,10,7,0,0.111111111111111,0.298245614035088,0,0.694444444444444,1.0,0,0.111111111111111,1.0,ReadingArea_rsl0-rcl11-esl29-rsm0-rcm69-esm100-rsr0-rcr11-esr100,exr/ReadingArea_rsl0-rcl11-esl29-rsm0-rcm69-esm100-rsr0-rcr11-esr100.exr,ReadingArea_rsl0-rcl11-esl29-rsm0-rcm69-esm100-rsr0-rcr11-esr100.npz,,,,,0,59,59,94,,right,red,1.22,400.1340458393097,400.4701769351959,1,3,3,brightness,readingArea,realistic,75,2023-03-17_14h40.46.001,tripletExp_regina_11082022,2022.2.4,119.47711896996198,
5,11,8,0,1.0,0.298245614035088,0,1.0,1.0,0,0.25,1.0,ReadingArea_rsl0-rcl100-esl29-rsm0-rcm100-esm100-rsr0-rcr25-esr100,exr/ReadingArea_rsl0-rcl100-esl29-rsm0-rcm100-esm100-rsr0-rcr25-esr100.exr,ReadingArea_rsl0-rcl100-esl29-rsm0-rcm100-esm100-rsr0-rcr25-esr100.npz,,,,,0,60,60,548,,left,green,1.22,402.1836180686951,402.5184290409088,1,3,3,brightness,readingArea,realistic,75,2023-03-17_14h40.46.001,tripletExp_regina_11082022,2022.2.4,119.47711896996198,
14,6,11,0,0.25,3.10526315789474,0,0.027777777777778,1.0,0,1.0,1.0,ReadingArea_rsl0-rcl25-esl310-rsm0-rcm2-esm100-rsr0-rcr100-esr100,exr/ReadingArea_rsl0-rcl25-esl310-rsm0-rcm2-esm100-rsr0-rcr100-esr100.exr,ReadingArea_rsl0-rcl25-esl310-rsm0-rcm2-esm100-rsr0-rcr100-esr100.npz,,,,,0,61,61,337,,left,green,3.56,407.77170586586,408.10610795021057,1,3,3,brightness,readingArea,realistic,75,2023-03-17_14h40.46.001,tripletExp_regina_11082022,2022.2.4,119.47711896996198,
0,9,11,0,0.027777777777778,0.298245614035088,0,0.444444444444444,1.0,0,1.0,1.0,ReadingArea_rsl0-rcl2-esl29-rsm0-rcm44-esm100-rsr0-rcr100-esr100,exr/ReadingArea_rsl0-rcl2-esl29-rsm0-rcm44-esm100-rsr0-rcr100-esr100.exr,ReadingArea_rsl0-rcl2-esl29-rsm0-rcm44-esm100-rsr0-rcr100-esr100.npz,,,,,0,62,62,448,,right,red,0.83,409.79273104667664,410.1447649002075,1,3,3,brightness,readingArea,realistic,75,2023-03-17_14h40.46.001,tripletExp_regina_11082022,2022.2.4,119.47711896996198,
0,8,14,0,0.027777777777778,0.298245614035088,0,0.25,1.0,0,0.25,3.10526315789474,ReadingArea_rsl0-rcl2-esl29-rsm0-rcm25-esm100-rsr0-rcr25-esr310,exr/ReadingArea_rsl0-rcl2-esl29-rsm0-rcm25-esm100-rsr0-rcr25-esr310.exr,ReadingArea_rsl0-rcl2-esl29-rsm0-rcm25-esm100-rsr0-rcr25-esr310.npz,,,,,0,63,63,114,,right,red,0.72,411.8334980010986,412.1717760562897,1,3,3,brightness,readingArea,realistic,75,2023-03-17_14h40.46.001,tripletExp_regina_11082022,2022.2.4,119.47711896996198,
13,3,14,0,0.111111111111111,3.10526315789474,0,0.444444444444444,0.298245614035088,0,0.25,3.10526315789474,ReadingArea_rsl0-rcl11-esl310-rsm0-rcm44-esm29-rsr0-rcr25-esr310,exr/ReadingArea_rsl0-rcl11-esl310-rsm0-rcm44-esm29-rsr0-rcr25-esr310.exr,ReadingArea_rsl0-rcl11-esl310-rsm0-rcm44-esm29-rsr0-rcr25-esr310.npz,,,,,0,64,64,38,,left,green,0.7,413.8639838695526,414.1963469982147,1,3,3,brightness,readingArea,realistic,75,2023-03-17_14h40.46.001,tripletExp_regina_11082022,2022.2.4,119.47711896996198,
5,9,0,0,1.0,0.298245614035088,0,0.444444444444444,1.0,0,0.027777777777778,0.298245614035088,ReadingArea_rsl0-rcl100-esl29-rsm0-rcm44-esm100-rsr0-rcr2-esr29,exr/ReadingArea_rsl0-rcl100-esl29-rsm0-rcm44-esm100-rsr0-rcr2-esr29.exr,ReadingArea_rsl0-rcl100-esl29-rsm0-rcm44-esm100-rsr0-rcr2-esr29.npz,,,,,0,65,65,575,,left,green,0.77,415.889004945755,416.2223980426788,1,3,3,brightness,readingArea,realistic,75,2023-03-17_14h40.46.001,tripletExp_regina_11082022,2022.2.4,119.47711896996198,
14,3,6,0,0.25,3.10526315789474,0,0.444444444444444,0.298245614035088,0,0.027777777777778,1.0,ReadingArea_rsl0-rcl25-esl310-rsm0-rcm44-esm29-rsr0-rcr2-esr100,exr/ReadingArea_rsl0-rcl25-esl310-rsm0-rcm44-esm29-rsr0-rcr2-esr100.exr,ReadingArea_rsl0-rcl25-esl310-rsm0-rcm44-esm29-rsr0-rcr2-esr100.npz,,,,,0,66,66,244,,right,red,4.59,421.4316349029541,421.7659850120544,1,3,3,brightness,readingArea,realistic,75,2023-03-17_14h40.46.001,tripletExp_regina_11082022,2022.2.4,119.47711896996198,
11,5,3,0,1.0,1.0,0,1.0,0.298245614035088,0,0.444444444444444,0.298245614035088,ReadingArea_rsl0-rcl100-esl100-rsm0-rcm100-esm29-rsr0-rcr44-esr29,exr/ReadingArea_rsl0-rcl100-esl100-rsm0-rcm100-esm29-rsr0-rcr44-esr29.exr,ReadingArea_rsl0-rcl100-esl100-rsm0-rcm100-esm29-rsr0-rcr44-esr29.npz,,,,,0,67,67,172,,right,red,0.73,423.4603669643402,423.7984819412232,1,3,3,brightness,readingArea,realistic,75,2023-03-17_14h40.46.001,tripletExp_regina_11082022,2022.2.4,119.47711896996198,
9,4,11,0,0.444444444444444,1.0,0,0.694444444444444,0.298245614035088,0,1.0,1.0,ReadingArea_rsl0-rcl44-esl100-rsm0-rcm69-esm29-rsr0-rcr100-esr100,exr/ReadingArea_rsl0-rcl44-esl100-rsm0-rcm69-esm29-rsr0-rcr100-esr100.exr,ReadingArea_rsl0-rcl44-esl100-rsm0-rcm69-esm29-rsr0-rcr100-esr100.npz,,,,,0,68,68,133,,left,green,0.72,425.52214884758,425.85732889175415,1,3,3,brightness,readingArea,realistic,75,2023-03-17_14h40.46.001,tripletExp_regina_11082022,2022.2.4,119.47711896996198,
2,10,6,0,0.25,0.298245614035088,0,0.694444444444444,1.0,0,0.027777777777778,1.0,ReadingArea_rsl0-rcl25-esl29-rsm0-rcm69-esm100-rsr0-rcr2-esr100,exr/ReadingArea_rsl0-rcl25-esl29-rsm0-rcm69-esm100-rsr0-rcr2-esr100.exr,ReadingArea_rsl0-rcl25-esl29-rsm0-rcm69-esm100-rsr0-rcr2-esr100.npz,,,,,0,69,69,4,,left,green,1.16,427.54480385780334,427.882043838501,1,3,3,brightness,readingArea,realistic,75,2023-03-17_14h40.46.001,tripletExp_regina_11082022,2022.2.4,119.47711896996198,
8,12,3,0,0.25,1.0,0,0.027777777777778,3.10526315789474,0,0.444444444444444,0.298245614035088,ReadingArea_rsl0-rcl25-esl100-rsm0-rcm2-esm310-rsr0-rcr44-esr29,exr/ReadingArea_rsl0-rcl25-esl100-rsm0-rcm2-esm310-rsr0-rcr44-esr29.exr,ReadingArea_rsl0-rcl25-esl100-rsm0-rcm2-esm310-rsr0-rcr44-esr29.npz,,,,,0,70,70,6,,right,red,2.84,431.3587439060211,431.6940710544586,1,3,3,brightness,readingArea,realistic,75,2023-03-17_14h40.46.001,tripletExp_regina_11082022,2022.2.4,119.47711896996198,
3,5,7,0,0.444444444444444,0.298245614035088,0,1.0,0.298245614035088,0,0.111111111111111,1.0,ReadingArea_rsl0-rcl44-esl29-rsm0-rcm100-esm29-rsr0-rcr11-esr100,exr/ReadingArea_rsl0-rcl44-esl29-rsm0-rcm100-esm29-rsr0-rcr11-esr100.exr,ReadingArea_rsl0-rcl44-esl29-rsm0-rcm100-esm29-rsr0-rcr11-esr100.npz,,,,,0,71,71,474,,left,green,1.5,433.3881108760834,433.7276749610901,1,3,3,brightness,readingArea,realistic,75,2023-03-17_14h40.46.001,tripletExp_regina_11082022,2022.2.4,119.47711896996198,
3,4,13,0,0.444444444444444,0.298245614035088,0,0.694444444444444,0.298245614035088,0,0.111111111111111,3.10526315789474,ReadingArea_rsl0-rcl44-esl29-rsm0-rcm69-esm29-rsr0-rcr11-esr310,exr/ReadingArea_rsl0-rcl44-esl29-rsm0-rcm69-esm29-rsr0-rcr11-esr310.exr,ReadingArea_rsl0-rcl44-esl29-rsm0-rcm69-esm29-rsr0-rcr11-esr310.npz,,,,,0,72,72,63,,right,red,1.29,435.42480087280273,435.7966909408569,1,3,3,brightness,readingArea,realistic,75,2023-03-17_14h40.46.001,tripletExp_regina_11082022,2022.2.4,119.47711896996198,
14,7,0,0,0.25,3.10526315789474,0,0.111111111111111,1.0,0,0.027777777777778,0.298245614035088,ReadingArea_rsl0-rcl25-esl310-rsm0-rcm11-esm100-rsr0-rcr2-esr29,exr/ReadingArea_rsl0-rcl25-esl310-rsm0-rcm11-esm100-rsr0-rcr2-esr29.exr,ReadingArea_rsl0-rcl25-esl310-rsm0-rcm11-esm100-rsr0-rcr2-esr29.npz,,,,,0,73,73,412,,left,green,0.95,437.4899649620056,437.8266508579254,1,3,3,brightness,readingArea,realistic,75,2023-03-17_14h40.46.001,tripletExp_regina_11082022,2022.2.4,119.47711896996198,
4,5,9,0,0.694444444444444,0.298245614035088,0,1.0,0.298245614035088,0,0.444444444444444,1.0,ReadingArea_rsl0-rcl69-esl29-rsm0-rcm100-esm29-rsr0-rcr44-esr100,exr/ReadingArea_rsl0-rcl69-esl29-rsm0-rcm100-esm29-rsr0-rcr44-esr100.exr,ReadingArea_rsl0-rcl69-esl29-rsm0-rcm100-esm29-rsr0-rcr44-esr100.npz,,,,,0,74,74,211,,right,red,0.76,439.55083990097046,439.7518758773804,1,3,3,brightness,readingArea,realistic,75,2023-03-17_14h40.46.001,tripletExp_regina_11082022,2022.2.4,119.47711896996198,
14,10,13,0,0.25,3.10526315789474,0,0.694444444444444,1.0,0,0.111111111111111,3.10526315789474,ReadingArea_rsl0-rcl25-esl310-rsm0-rcm69-esm100-rsr0-rcr11-esr310,exr/ReadingArea_rsl0-rcl25-esl310-rsm0-rcm69-esm100-rsr0-rcr11-esr310.exr,ReadingArea_rsl0-rcl25-esl310-rsm0-rcm69-esm100-rsr0-rcr11-esr310.npz,,,,,0,75,75,204,,left,green,0.72,446.7496099472046,447.0908579826355,2,3,3,brightness,readingArea,realistic,75,2023-03-17_14h40.46.001,tripletExp_regina_11082022,2022.2.4,119.47711896996198,
0,13,12,0,0.027777777777778,0.298245614035088,0,0.111111111111111,3.10526315789474,0,0.027777777777778,3.10526315789474,ReadingArea_rsl0-rcl2-esl29-rsm0-rcm11-esm310-rsr0-rcr2-esr310,exr/ReadingArea_rsl0-rcl2-esl29-rsm0-rcm11-esm310-rsr0-rcr2-esr310.exr,ReadingArea_rsl0-rcl2-esl29-rsm0-rcm11-esm310-rsr0-rcr2-esr310.npz,,,,,0,76,76,501,,right,red,1.08,448.8119258880615,449.1463768482208,2,3,3,brightness,readingArea,realistic,75,2023-03-17_14h40.46.001,tripletExp_regina_11082022,2022.2.4,119.47711896996198,
11,7,9,0,1.0,1.0,0,0.111111111111111,1.0,0,0.444444444444444,1.0,ReadingArea_rsl0-rcl100-esl100-rsm0-rcm11-esm100-rsr0-rcr44-esr100,exr/ReadingArea_rsl0-rcl100-esl100-rsm0-rcm11-esm100-rsr0-rcr44-esr100.exr,ReadingArea_rsl0-rcl100-esl100-rsm0-rcm11-esm100-rsr0-rcr44-esr100.npz,,,,,0,77,77,521,,right,red,1.21,450.86414790153503,451.20445489883423,2,3,3,brightness,readingArea,realistic,75,2023-03-17_14h40.46.001,tripletExp_regina_11082022,2022.2.4,119.47711896996198,
3,9,13,0,0.444444444444444,0.298245614035088,0,0.444444444444444,1.0,0,0.111111111111111,3.10526315789474,ReadingArea_rsl0-rcl44-esl29-rsm0-rcm44-esm100-rsr0-rcr11-esr310,exr/ReadingArea_rsl0-rcl44-esl29-rsm0-rcm44-esm100-rsr0-rcr11-esr310.exr,ReadingArea_rsl0-rcl44-esl29-rsm0-rcm44-esm100-rsr0-rcr11-esr310.npz,,,,,0,78,78,341,,right,red,0.81,452.9244120121002,453.2710268497467,2,3,3,brightness,readingArea,realistic,75,2023-03-17_14h40.46.001,tripletExp_regina_11082022,2022.2.4,119.47711896996198,
6,1,2,0,0.027777777777778,1.0,0,0.111111111111111,0.298245614035088,0,0.25,0.298245614035088,ReadingArea_rsl0-rcl2-esl100-rsm0-rcm11-esm29-rsr0-rcr25-esr29,exr/ReadingArea_rsl0-rcl2-esl100-rsm0-rcm11-esm29-rsr0-rcr25-esr29.exr,ReadingArea_rsl0-rcl2-esl100-rsm0-rcm11-esm29-rsr0-rcr25-esr29.npz,,,,,0,79,79,68,,left,green,2.34,456.7471828460693,,2,3,3,brightness,readingArea,realistic,75,2023-03-17_14h40.46.001,tripletExp_regina_11082022,2022.2.4,119.47711896996198,
4,7,1,0,0.694444444444444,0.298245614035088,0,0.111111111111111,1.0,0,0.111111111111111,0.298245614035088,ReadingArea_rsl0-rcl69-esl29-rsm0-rcm11-esm100-rsr0-rcr11-esr29,exr/ReadingArea_rsl0-rcl69-esl29-rsm0-rcm11-esm100-rsr0-rcr11-esr29.exr,ReadingArea_rsl0-rcl69-esl29-rsm0-rcm11-esm100-rsr0-rcr11-esr29.npz,,,,,0,80,80,33,,left,green,0.92,458.79469299316406,459.1295619010925,2,3,3,brightness,readingArea,realistic,75,2023-03-17_14h40.46.001,tripletExp_regina_11082022,2022.2.4,119.47711896996198,
14,13,2,0,0.25,3.10526315789474,0,0.111111111111111,3.10526315789474,0,0.25,0.298245614035088,ReadingArea_rsl0-rcl25-esl310-rsm0-rcm11-esm310-rsr0-rcr25-esr29,exr/ReadingArea_rsl0-rcl25-esl310-rsm0-rcm11-esm310-rsr0-rcr25-esr29.exr,ReadingArea_rsl0-rcl25-esl310-rsm0-rcm11-esm310-rsr0-rcr25-esr29.npz,,,,,0,81,81,377,,left,green,2.7,462.6267549991608,462.9674708843231,2,3,3,brightness,readingArea,realistic,75,2023-03-17_14h40.46.001,tripletExp_regina_11082022,2022.2.4,119.47711896996198,
2,5,3,0,0.25,0.298245614035088,0,1.0,0.298245614035088,0,0.444444444444444,0.298245614035088,ReadingArea_rsl0-rcl25-esl29-rsm0-rcm100-esm29-rsr0-rcr44-esr29,exr/ReadingArea_rsl0-rcl25-esl29-rsm0-rcm100-esm29-rsr0-rcr44-esr29.exr,ReadingArea_rsl0-rcl25-esl29-rsm0-rcm100-esm29-rsr0-rcr44-esr29.npz,,,,,0,82,82,135,,right,red,0.99,464.68632888793945,465.04366087913513,2,3,3,brightness,readingArea,realistic,75,2023-03-17_14h40.46.001,tripletExp_regina_11082022,2022.2.4,119.47711896996198,
7,13,5,0,0.111111111111111,1.0,0,0.111111111111111,3.10526315789474,0,1.0,0.298245614035088,ReadingArea_rsl0-rcl11-esl100-rsm0-rcm11-esm310-rsr0-rcr100-esr29,exr/ReadingArea_rsl0-rcl11-esl100-rsm0-rcm11-esm310-rsr0-rcr100-esr29.exr,ReadingArea_rsl0-rcl11-esl100-rsm0-rcm11-esm310-rsr0-rcr100-esr29.npz,,,,,0,83,83,332,,right,red,0.74,466.7532868385315,467.0999438762665,2,3,3,brightness,readingArea,realistic,75,2023-03-17_14h40.46.001,tripletExp_regina_11082022,2022.2.4,119.47711896996198,
11,6,14,0,1.0,1.0,0,0.027777777777778,1.0,0,0.25,3.10526315789474,ReadingArea_rsl0-rcl100-esl100-rsm0-rcm2-esm100-rsr0-rcr25-esr310,exr/ReadingArea_rsl0-rcl100-esl100-rsm0-rcm2-esm100-rsr0-rcr25-esr310.exr,ReadingArea_rsl0-rcl100-esl100-rsm0-rcm2-esm100-rsr0-rcr25-esr310.npz,,,,,0,84,84,305,,right,red,1.43,468.8018300533295,469.14439702034,2,3,3,brightness,readingArea,realistic,75,2023-03-17_14h40.46.001,tripletExp_regina_11082022,2022.2.4,119.47711896996198,
2,14,7,0,0.25,0.298245614035088,0,0.25,3.10526315789474,0,0.111111111111111,1.0,ReadingArea_rsl0-rcl25-esl29-rsm0-rcm25-esm310-rsr0-rcr11-esr100,exr/ReadingArea_rsl0-rcl25-esl29-rsm0-rcm25-esm310-rsr0-rcr11-esr100.exr,ReadingArea_rsl0-rcl25-esl29-rsm0-rcm25-esm310-rsr0-rcr11-esr100.npz,,,,,0,85,85,310,,right,red,1.19,470.8330180644989,,2,3,3,brightness,readingArea,realistic,75,2023-03-17_14h40.46.001,tripletExp_regina_11082022,2022.2.4,119.47711896996198,
13,9,4,0,0.111111111111111,3.10526315789474,0,0.444444444444444,1.0,0,0.694444444444444,0.298245614035088,ReadingArea_rsl0-rcl11-esl310-rsm0-rcm44-esm100-rsr0-rcr69-esr29,exr/ReadingArea_rsl0-rcl11-esl310-rsm0-rcm44-esm100-rsr0-rcr69-esr29.exr,ReadingArea_rsl0-rcl11-esl310-rsm0-rcm44-esm100-rsr0-rcr69-esr29.npz,,,,,0,86,86,444,,left,green,1.22,472.8857488632202,473.2250740528106,2,3,3,brightness,readingArea,realistic,75,2023-03-17_14h40.46.001,tripletExp_regina_11082022,2022.2.4,119.47711896996198,
0,14,6,0,0.027777777777778,0.298245614035088,0,0.25,3.10526315789474,0,0.027777777777778,1.0,ReadingArea_rsl0-rcl2-esl29-rsm0-rcm25-esm310-rsr0-rcr2-esr100,exr/ReadingArea_rsl0-rcl2-esl29-rsm0-rcm25-esm310-rsr0-rcr2-esr100.exr,ReadingArea_rsl0-rcl2-esl29-rsm0-rcm25-esm310-rsr0-rcr2-esr100.npz,,,,,0,87,87,499,,right,red,1.3,474.9184989929199,475.26847195625305,2,3,3,brightness,readingArea,realistic,75,2023-03-17_14h40.46.001,tripletExp_regina_11082022,2022.2.4,119.47711896996198,
10,4,8,0,0.694444444444444,1.0,0,0.694444444444444,0.298245614035088,0,0.25,1.0,ReadingArea_rsl0-rcl69-esl100-rsm0-rcm69-esm29-rsr0-rcr25-esr100,exr/ReadingArea_rsl0-rcl69-esl100-rsm0-rcm69-esm29-rsr0-rcr25-esr100.exr,ReadingArea_rsl0-rcl69-esl100-rsm0-rcm69-esm29-rsr0-rcr25-esr100.npz,,,,,0,88,88,562,,right,red,0.91,476.982617855072,477.31673884391785,2,3,3,brightness,readingArea,realistic,75,2023-03-17_14h40.46.001,tripletExp_regina_11082022,2022.2.4,119.47711896996198,
8,9,13,0,0.25,1.0,0,0.444444444444444,1.0,0,0.111111111111111,3.10526315789474,ReadingArea_rsl0-rcl25-esl100-rsm0-rcm44-esm100-rsr0-rcr11-esr310,exr/ReadingArea_rsl0-rcl25-esl100-rsm0-rcm44-esm100-rsr0-rcr11-esr310.exr,ReadingArea_rsl0-rcl25-esl100-rsm0-rcm44-esm100-rsr0-rcr11-esr310.npz,,,,,0,89,89,519,,right,red,0.95,479.0301690101624,479.3775398731232,2,3,3,brightness,readingArea,realistic,75,2023-03-17_14h40.46.001,tripletExp_regina_11082022,2022.2.4,119.47711896996198,
13,1,4,0,0.111111111111111,3.10526315789474,0,0.111111111111111,0.298245614035088,0,0.694444444444444,0.298245614035088,ReadingArea_rsl0-rcl11-esl310-rsm0-rcm11-esm29-rsr0-rcr69-esr29,exr/ReadingArea_rsl0-rcl11-esl310-rsm0-rcm11-esm29-rsr0-rcr69-esr29.exr,ReadingArea_rsl0-rcl11-esl310-rsm0-rcm11-esm29-rsr0-rcr69-esr29.npz,,,,,0,90,90,396,,right,red,4.28,484.6334569454193,484.97067499160767,2,3,3,brightness,readingArea,realistic,75,2023-03-17_14h40.46.001,tripletExp_regina_11082022,2022.2.4,119.47711896996198,
9,11,10,0,0.444444444444444,1.0,0,1.0,1.0,0,0.694444444444444,1.0,ReadingArea_rsl0-rcl44-esl100-rsm0-rcm100-esm100-rsr0-rcr69-esr100,exr/ReadingArea_rsl0-rcl44-esl100-rsm0-rcm100-esm100-rsr0-rcr69-esr100.exr,ReadingArea_rsl0-rcl44-esl100-rsm0-rcm100-esm100-rsr0-rcr69-esr100.npz,,,,,0,91,91,591,,right,red,0.82,486.6790759563446,487.0181419849396,2,3,3,brightness,readingArea,realistic,75,2023-03-17_14h40.46.001,tripletExp_regina_11082022,2022.2.4,119.47711896996198,
8,1,14,0,0.25,1.0,0,0.111111111111111,0.298245614035088,0,0.25,3.10526315789474,ReadingArea_rsl0-rcl25-esl100-rsm0-rcm11-esm29-rsr0-rcr25-esr310,exr/ReadingArea_rsl0-rcl25-esl100-rsm0-rcm11-esm29-rsr0-rcr25-esr310.exr,ReadingArea_rsl0-rcl25-esl100-rsm0-rcm11-esm29-rsr0-rcr25-esr310.npz,,,,,0,92,92,500,,left,green,1.33,488.7275688648224,,2,3,3,brightness,readingArea,realistic,75,2023-03-17_14h40.46.001,tripletExp_regina_11082022,2022.2.4,119.47711896996198,
5,14,4,0,1.0,0.298245614035088,0,0.25,3.10526315789474,0,0.694444444444444,0.298245614035088,ReadingArea_rsl0-rcl100-esl29-rsm0-rcm25-esm310-rsr0-rcr69-esr29,exr/ReadingArea_rsl0-rcl100-esl29-rsm0-rcm25-esm310-rsr0-rcr69-esr29.exr,ReadingArea_rsl0-rcl100-esl29-rsm0-rcm25-esm310-rsr0-rcr69-esr29.npz,,,,,0,93,93,69,,left,green,4.13,494.3353579044342,494.6785309314728,2,3,3,brightness,readingArea,realistic,75,2023-03-17_14h40.46.001,tripletExp_regina_11082022,2022.2.4,119.47711896996198,
12,8,10,0,0.027777777777778,3.10526315789474,0,0.25,1.0,0,0.694444444444444,1.0,ReadingArea_rsl0-rcl2-esl310-rsm0-rcm25-esm100-rsr0-rcr69-esr100,exr/ReadingArea_rsl0-rcl2-esl310-rsm0-rcm25-esm100-rsr0-rcr69-esr100.exr,ReadingArea_rsl0-rcl2-esl310-rsm0-rcm25-esm100-rsr0-rcr69-esr100.npz,,,,,0,94,94,216,,left,green,2.05,498.1530969142914,498.4878308773041,2,3,3,brightness,readingArea,realistic,75,2023-03-17_14h40.46.001,tripletExp_regina_11082022,2022.2.4,119.47711896996198,
8,12,13,0,0.25,1.0,0,0.027777777777778,3.10526315789474,0,0.111111111111111,3.10526315789474,ReadingArea_rsl0-rcl25-esl100-rsm0-rcm2-esm310-rsr0-rcr11-esr310,exr/ReadingArea_rsl0-rcl25-esl100-rsm0-rcm2-esm310-rsr0-rcr11-esr310.exr,ReadingArea_rsl0-rcl25-esl100-rsm0-rcm2-esm310-rsr0-rcr11-esr310.npz,,,,,0,95,95,275,,left,green,1.06,500.2013909816742,500.5374639034271,2,3,3,brightness,readingArea,realistic,75,2023-03-17_14h40.46.001,tripletExp_regina_11082022,2022.2.4,119.47711896996198,
6,0,10,0,0.027777777777778,1.0,0,0.027777777777778,0.298245614035088,0,0.694444444444444,1.0,ReadingArea_rsl0-rcl2-esl100-rsm0-rcm2-esm29-rsr0-rcr69-esr100,exr/ReadingArea_rsl0-rcl2-esl100-rsm0-rcm2-esm29-rsr0-rcr69-esr100.exr,ReadingArea_rsl0-rcl2-esl100-rsm0-rcm2-esm29-rsr0-rcr69-esr100.npz,,,,,0,96,96,532,,left,green,0.75,502.2254149913788,502.5666768550873,2,3,3,brightness,readingArea,realistic,75,2023-03-17_14h40.46.001,tripletExp_regina_11082022,2022.2.4,119.47711896996198,
6,0,11,0,0.027777777777778,1.0,0,0.027777777777778,0.298245614035088,0,1.0,1.0,ReadingArea_rsl0-rcl2-esl100-rsm0-rcm2-esm29-rsr0-rcr100-esr100,exr/ReadingArea_rsl0-rcl2-esl100-rsm0-rcm2-esm29-rsr0-rcr100-esr100.exr,ReadingArea_rsl0-rcl2-esl100-rsm0-rcm2-esm29-rsr0-rcr100-esr100.npz,,,,,0,97,97,245,,left,green,0.79,504.2715198993683,,2,3,3,brightness,readingArea,realistic,75,2023-03-17_14h40.46.001,tripletExp_regina_11082022,2022.2.4,119.47711896996198,
4,8,7,0,0.694444444444444,0.298245614035088,0,0.25,1.0,0,0.111111111111111,1.0,ReadingArea_rsl0-rcl69-esl29-rsm0-rcm25-esm100-rsr0-rcr11-esr100,exr/ReadingArea_rsl0-rcl69-esl29-rsm0-rcm25-esm100-rsr0-rcr11-esr100.exr,ReadingArea_rsl0-rcl69-esl29-rsm0-rcm25-esm100-rsr0-rcr11-esr100.npz,,,,,0,98,98,461,,right,red,0.64,506.3144528865814,506.6744930744171,2,3,3,brightness,readingArea,realistic,75,2023-03-17_14h40.46.001,tripletExp_regina_11082022,2022.2.4,119.47711896996198,
14,11,4,0,0.25,3.10526315789474,0,1.0,1.0,0,0.694444444444444,0.298245614035088,ReadingArea_rsl0-rcl25-esl310-rsm0-rcm100-esm100-rsr0-rcr69-esr29,exr/ReadingArea_rsl0-rcl25-esl310-rsm0-rcm100-esm100-rsr0-rcr69-esr29.exr,ReadingArea_rsl0-rcl25-esl310-rsm0-rcm100-esm100-rsr0-rcr69-esr29.npz,,,,,0,99,99,370,,left,green,0.74,508.39728689193726,,2,3,3,brightness,readingArea,realistic,75,2023-03-17_14h40.46.001,tripletExp_regina_11082022,2022.2.4,119.47711896996198,
0,8,3,0,0.027777777777778,0.298245614035088,0,0.25,1.0,0,0.444444444444444,0.298245614035088,ReadingArea_rsl0-rcl2-esl29-rsm0-rcm25-esm100-rsr0-rcr44-esr29,exr/ReadingArea_rsl0-rcl2-esl29-rsm0-rcm25-esm100-rsr0-rcr44-esr29.exr,ReadingArea_rsl0-rcl2-esl29-rsm0-rcm25-esm100-rsr0-rcr44-esr29.npz,,,,,0,100,100,301,,right,red,1.65,510.4267199039459,510.7668149471283,2,3,3,brightness,readingArea,realistic,75,2023-03-17_14h40.46.001,tripletExp_regina_11082022,2022.2.4,119.47711896996198,
13,8,0,0,0.111111111111111,3.10526315789474,0,0.25,1.0,0,0.027777777777778,0.298245614035088,ReadingArea_rsl0-rcl11-esl310-rsm0-rcm25-esm100-rsr0-rcr2-esr29,exr/ReadingArea_rsl0-rcl11-esl310-rsm0-rcm25-esm100-rsr0-rcr2-esr29.exr,ReadingArea_rsl0-rcl11-esl310-rsm0-rcm25-esm100-rsr0-rcr2-esr29.npz,,,,,0,101,101,429,,left,green,3.86,516.000669002533,516.3445649147034,2,3,3,brightness,readingArea,realistic,75,2023-03-17_14h40.46.001,tripletExp_regina_11082022,2022.2.4,119.47711896996198,
14,6,7,0,0.25,3.10526315789474,0,0.027777777777778,1.0,0,0.111111111111111,1.0,ReadingArea_rsl0-rcl25-esl310-rsm0-rcm2-esm100-rsr0-rcr11-esr100,exr/ReadingArea_rsl0-rcl25-esl310-rsm0-rcm2-esm100-rsr0-rcr11-esr100.exr,ReadingArea_rsl0-rcl25-esl310-rsm0-rcm2-esm100-rsr0-rcr11-esr100.npz,,,,,0,102,102,306,,right,red,0.97,518.0413069725037,518.3825719356537,2,3,3,brightness,readingArea,realistic,75,2023-03-17_14h40.46.001,tripletExp_regina_11082022,2022.2.4,119.47711896996198,
4,3,1,0,0.694444444444444,0.298245614035088,0,0.444444444444444,0.298245614035088,0,0.111111111111111,0.298245614035088,ReadingArea_rsl0-rcl69-esl29-rsm0-rcm44-esm29-rsr0-rcr11-esr29,exr/ReadingArea_rsl0-rcl69-esl29-rsm0-rcm44-esm29-rsr0-rcr11-esr29.exr,ReadingArea_rsl0-rcl69-esl29-rsm0-rcm44-esm29-rsr0-rcr11-esr29.npz,,,,,0,103,103,60,,left,green,0.62,520.0810520648956,520.4183230400085,2,3,3,brightness,readingArea,realistic,75,2023-03-17_14h40.46.001,tripletExp_regina_11082022,2022.2.4,119.47711896996198,
7,14,5,0,0.111111111111111,1.0,0,0.25,3.10526315789474,0,1.0,0.298245614035088,ReadingArea_rsl0-rcl11-esl100-rsm0-rcm25-esm310-rsr0-rcr100-esr29,exr/ReadingArea_rsl0-rcl11-esl100-rsm0-rcm25-esm310-rsr0-rcr100-esr29.exr,ReadingArea_rsl0-rcl11-esl100-rsm0-rcm25-esm310-rsr0-rcr100-esr29.npz,,,,,0,104,104,372,,right,red,0.74,522.1384320259094,522.4758758544922,2,3,3,brightness,readingArea,realistic,75,2023-03-17_14h40.46.001,tripletExp_regina_11082022,2022.2.4,119.47711896996198,
6,10,8,0,0.027777777777778,1.0,0,0.694444444444444,1.0,0,0.25,1.0,ReadingArea_rsl0-rcl2-esl100-rsm0-rcm69-esm100-rsr0-rcr25-esr100,exr/ReadingArea_rsl0-rcl2-esl100-rsm0-rcm69-esm100-rsr0-rcr25-esr100.exr,ReadingArea_rsl0-rcl2-esl100-rsm0-rcm69-esm100-rsr0-rcr25-esr100.npz,,,,,0,105,105,167,,right,red,0.55,524.1728398799896,524.5088999271393,2,3,3,brightness,readingArea,realistic,75,2023-03-17_14h40.46.001,tripletExp_regina_11082022,2022.2.4,119.47711896996198,
14,10,9,0,0.25,3.10526315789474,0,0.694444444444444,1.0,0,0.444444444444444,1.0,ReadingArea_rsl0-rcl25-esl310-rsm0-rcm69-esm100-rsr0-rcr44-esr100,exr/ReadingArea_rsl0-rcl25-esl310-rsm0-rcm69-esm100-rsr0-rcr44-esr100.exr,ReadingArea_rsl0-rcl25-esl310-rsm0-rcm69-esm100-rsr0-rcr44-esr100.npz,,,,,0,106,106,402,,left,green,0.64,526.208596944809,,2,3,3,brightness,readingArea,realistic,75,2023-03-17_14h40.46.001,tripletExp_regina_11082022,2022.2.4,119.47711896996198,
13,12,11,0,0.111111111111111,3.10526315789474,0,0.027777777777778,3.10526315789474,0,1.0,1.0,ReadingArea_rsl0-rcl11-esl310-rsm0-rcm2-esm310-rsr0-rcr100-esr100,exr/ReadingArea_rsl0-rcl11-esl310-rsm0-rcm2-esm310-rsr0-rcr100-esr100.exr,ReadingArea_rsl0-rcl11-esl310-rsm0-rcm2-esm310-rsr0-rcr100-esr100.npz,,,,,0,107,107,441,,left,green,2.73,530.0085730552673,530.3465390205383,2,3,3,brightness,readingArea,realistic,75,2023-03-17_14h40.46.001,tripletExp_regina_11082022,2022.2.4,119.47711896996198,
2,11,5,0,0.25,0.298245614035088,0,1.0,1.0,0,1.0,0.298245614035088,ReadingArea_rsl0-rcl25-esl29-rsm0-rcm100-esm100-rsr0-rcr100-esr29,exr/ReadingArea_rsl0-rcl25-esl29-rsm0-rcm100-esm100-rsr0-rcr100-esr29.exr,ReadingArea_rsl0-rcl25-esl29-rsm0-rcm100-esm100-rsr0-rcr100-esr29.npz,,,,,0,108,108,491,,right,red,0.85,532.0506808757782,532.3872909545898,2,3,3,brightness,readingArea,realistic,75,2023-03-17_14h40.46.001,tripletExp_regina_11082022,2022.2.4,119.47711896996198,
14,3,4,0,0.25,3.10526315789474,0,0.444444444444444,0.298245614035088,0,0.694444444444444,0.298245614035088,ReadingArea_rsl0-rcl25-esl310-rsm0-rcm44-esm29-rsr0-rcr69-esr29,exr/ReadingArea_rsl0-rcl25-esl310-rsm0-rcm44-esm29-rsr0-rcr69-esr29.exr,ReadingArea_rsl0-rcl25-esl310-rsm0-rcm44-esm29-rsr0-rcr69-esr29.npz,,,,,0,109,109,127,,right,red,0.65,534.1061270236969,534.4429609775543,2,3,3,brightness,readingArea,realistic,75,2023-03-17_14h40.46.001,tripletExp_regina_11082022,2022.2.4,119.47711896996198,
9,12,11,0,0.444444444444444,1.0,0,0.027777777777778,3.10526315789474,0,1.0,1.0,ReadingArea_rsl0-rcl44-esl100-rsm0-rcm2-esm310-rsr0-rcr100-esr100,exr/ReadingArea_rsl0-rcl44-esl100-rsm0-rcm2-esm310-rsr0-rcr100-esr100.exr,ReadingArea_rsl0-rcl44-esl100-rsm0-rcm2-esm310-rsr0-rcr100-esr100.npz,,,,,0,110,110,144,,left,green,1.05,536.1654598712921,536.5021739006042,2,3,3,brightness,readingArea,realistic,75,2023-03-17_14h40.46.001,tripletExp_regina_11082022,2022.2.4,119.47711896996198,
9,11,6,0,0.444444444444444,1.0,0,1.0,1.0,0,0.027777777777778,1.0,ReadingArea_rsl0-rcl44-esl100-rsm0-rcm100-esm100-rsr0-rcr2-esr100,exr/ReadingArea_rsl0-rcl44-esl100-rsm0-rcm100-esm100-rsr0-rcr2-esr100.exr,ReadingArea_rsl0-rcl44-esl100-rsm0-rcm100-esm100-rsr0-rcr2-esr100.npz,,,,,0,111,111,404,,left,green,1.44,538.2058348655701,538.5466110706329,2,3,3,brightness,readingArea,realistic,75,2023-03-17_14h40.46.001,tripletExp_regina_11082022,2022.2.4,119.47711896996198,
12,6,7,0,0.027777777777778,3.10526315789474,0,0.027777777777778,1.0,0,0.111111111111111,1.0,ReadingArea_rsl0-rcl2-esl310-rsm0-rcm2-esm100-rsr0-rcr11-esr100,exr/ReadingArea_rsl0-rcl2-esl310-rsm0-rcm2-esm100-rsr0-rcr11-esr100.exr,ReadingArea_rsl0-rcl2-esl310-rsm0-rcm2-esm100-rsr0-rcr11-esr100.npz,,,,,0,112,112,308,,left,green,2.93,542.0426199436188,542.3818950653076,2,3,3,brightness,readingArea,realistic,75,2023-03-17_14h40.46.001,tripletExp_regina_11082022,2022.2.4,119.47711896996198,
3,1,0,0,0.444444444444444,0.298245614035088,0,0.111111111111111,0.298245614035088,0,0.027777777777778,0.298245614035088,ReadingArea_rsl0-rcl44-esl29-rsm0-rcm11-esm29-rsr0-rcr2-esr29,exr/ReadingArea_rsl0-rcl44-esl29-rsm0-rcm11-esm29-rsr0-rcr2-esr29.exr,ReadingArea_rsl0-rcl44-esl29-rsm0-rcm11-esm29-rsr0-rcr2-esr29.npz,,,,,0,113,113,343,,right,red,0.72,544.1047070026398,544.4612770080566,2,3,3,brightness,readingArea,realistic,75,2023-03-17_14h40.46.001,tripletExp_regina_11082022,2022.2.4,119.47711896996198,
14,2,0,0,0.25,3.10526315789474,0,0.25,0.298245614035088,0,0.027777777777778,0.298245614035088,ReadingArea_rsl0-rcl25-esl310-rsm0-rcm25-esm29-rsr0-rcr2-esr29,exr/ReadingArea_rsl0-rcl25-esl310-rsm0-rcm25-esm29-rsr0-rcr2-esr29.exr,ReadingArea_rsl0-rcl25-esl310-rsm0-rcm25-esm29-rsr0-rcr2-esr29.npz,,,,,0,114,114,460,,right,red,0.7,546.1559720039368,546.4967219829559,2,3,3,brightness,readingArea,realistic,75,2023-03-17_14h40.46.001,tripletExp_regina_11082022,2022.2.4,119.47711896996198,
2,5,0,0,0.25,0.298245614035088,0,1.0,0.298245614035088,0,0.027777777777778,0.298245614035088,ReadingArea_rsl0-rcl25-esl29-rsm0-rcm100-esm29-rsr0-rcr2-esr29,exr/ReadingArea_rsl0-rcl25-esl29-rsm0-rcm100-esm29-rsr0-rcr2-esr29.exr,ReadingArea_rsl0-rcl25-esl29-rsm0-rcm100-esm29-rsr0-rcr2-esr29.npz,,,,,0,115,115,414,,left,green,0.88,548.2191159725189,548.5557579994202,2,3,3,brightness,readingArea,realistic,75,2023-03-17_14h40.46.001,tripletExp_regina_11082022,2022.2.4,119.47711896996198,
5,3,0,0,1.0,0.298245614035088,0,0.444444444444444,0.298245614035088,0,0.027777777777778,0.298245614035088,ReadingArea_rsl0-rcl100-esl29-rsm0-rcm44-esm29-rsr0-rcr2-esr29,exr/ReadingArea_rsl0-rcl100-esl29-rsm0-rcm44-esm29-rsr0-rcr2-esr29.exr,ReadingArea_rsl0-rcl100-esl29-rsm0-rcm44-esm29-rsr0-rcr2-esr29.npz,,,,,0,116,116,303,,left,green,0.85,550.2501928806305,550.5919740200043,2,3,3,brightness,readingArea,realistic,75,2023-03-17_14h40.46.001,tripletExp_regina_11082022,2022.2.4,119.47711896996198,
14,3,2,0,0.25,3.10526315789474,0,0.444444444444444,0.298245614035088,0,0.25,0.298245614035088,ReadingArea_rsl0-rcl25-esl310-rsm0-rcm44-esm29-rsr0-rcr25-esr29,exr/ReadingArea_rsl0-rcl25-esl310-rsm0-rcm44-esm29-rsr0-rcr25-esr29.exr,ReadingArea_rsl0-rcl25-esl310-rsm0-rcm44-esm29-rsr0-rcr25-esr29.npz,,,,,0,117,117,52,,right,red,1.27,552.2942850589752,552.6305010318756,2,3,3,brightness,readingArea,realistic,75,2023-03-17_14h40.46.001,tripletExp_regina_11082022,2022.2.4,119.47711896996198,
14,4,7,0,0.25,3.10526315789474,0,0.694444444444444,0.298245614035088,0,0.111111111111111,1.0,ReadingArea_rsl0-rcl25-esl310-rsm0-rcm69-esm29-rsr0-rcr11-esr100,exr/ReadingArea_rsl0-rcl25-esl310-rsm0-rcm69-esm29-rsr0-rcr11-esr100.exr,ReadingArea_rsl0-rcl25-esl310-rsm0-rcm69-esm29-rsr0-rcr11-esr100.npz,,,,,0,118,118,136,,right,red,1.49,554.3186409473419,554.6551299095154,2,3,3,brightness,readingArea,realistic,75,2023-03-17_14h40.46.001,tripletExp_regina_11082022,2022.2.4,119.47711896996198,
7,4,1,0,0.111111111111111,1.0,0,0.694444444444444,0.298245614035088,0,0.111111111111111,0.298245614035088,ReadingArea_rsl0-rcl11-esl100-rsm0-rcm69-esm29-rsr0-rcr11-esr29,exr/ReadingArea_rsl0-rcl11-esl100-rsm0-rcm69-esm29-rsr0-rcr11-esr29.exr,ReadingArea_rsl0-rcl11-esl100-rsm0-rcm69-esm29-rsr0-rcr11-esr29.npz,,,,,0,119,119,369,,left,green,1.18,556.362949848175,,2,3,3,brightness,readingArea,realistic,75,2023-03-17_14h40.46.001,tripletExp_regina_11082022,2022.2.4,119.47711896996198,
8,4,2,0,0.25,1.0,0,0.694444444444444,0.298245614035088,0,0.25,0.298245614035088,ReadingArea_rsl0-rcl25-esl100-rsm0-rcm69-esm29-rsr0-rcr25-esr29,exr/ReadingArea_rsl0-rcl25-esl100-rsm0-rcm69-esm29-rsr0-rcr25-esr29.exr,ReadingArea_rsl0-rcl25-esl100-rsm0-rcm69-esm29-rsr0-rcr25-esr29.npz,,,,,0,120,120,184,,left,green,0.95,558.3973429203033,,2,3,3,brightness,readingArea,realistic,75,2023-03-17_14h40.46.001,tripletExp_regina_11082022,2022.2.4,119.47711896996198,
1,13,8,0,0.111111111111111,0.298245614035088,0,0.111111111111111,3.10526315789474,0,0.25,1.0,ReadingArea_rsl0-rcl11-esl29-rsm0-rcm11-esm310-rsr0-rcr25-esr100,exr/ReadingArea_rsl0-rcl11-esl29-rsm0-rcm11-esm310-rsr0-rcr25-esr100.exr,ReadingArea_rsl0-rcl11-esl29-rsm0-rcm11-esm310-rsr0-rcr25-esr100.npz,,,,,0,121,121,64,,right,red,0.87,560.4443218708038,560.7880749702454,2,3,3,brightness,readingArea,realistic,75,2023-03-17_14h40.46.001,tripletExp_regina_11082022,2022.2.4,119.47711896996198,
12,14,8,0,0.027777777777778,3.10526315789474,0,0.25,3.10526315789474,0,0.25,1.0,ReadingArea_rsl0-rcl2-esl310-rsm0-rcm25-esm310-rsr0-rcr25-esr100,exr/ReadingArea_rsl0-rcl2-esl310-rsm0-rcm25-esm310-rsr0-rcr25-esr100.exr,ReadingArea_rsl0-rcl2-esl310-rsm0-rcm25-esm310-rsr0-rcr25-esr100.npz,,,,,0,122,122,466,,right,red,1.42,562.4895429611206,,2,3,3,brightness,readingArea,realistic,75,2023-03-17_14h40.46.001,tripletExp_regina_11082022,2022.2.4,119.47711896996198,
2,7,11,0,0.25,0.298245614035088,0,0.111111111111111,1.0,0,1.0,1.0,ReadingArea_rsl0-rcl25-esl29-rsm0-rcm11-esm100-rsr0-rcr100-esr100,exr/ReadingArea_rsl0-rcl25-esl29-rsm0-rcm11-esm100-rsr0-rcr100-esr100.exr,ReadingArea_rsl0-rcl25-esl29-rsm0-rcm11-esm100-rsr0-rcr100-esr100.npz,,,,,0,123,123,194,,left,green,1.11,564.555734872818,,2,3,3,brightness,readingArea,realistic,75,2023-03-17_14h40.46.001,tripletExp_regina_11082022,2022.2.4,119.47711896996198,
9,3,14,0,0.444444444444444,1.0,0,0.444444444444444,0.298245614035088,0,0.25,3.10526315789474,ReadingArea_rsl0-rcl44-esl100-rsm0-rcm44-esm29-rsr0-rcr25-esr310,exr/ReadingArea_rsl0-rcl44-esl100-rsm0-rcm44-esm29-rsr0-rcr25-esr310.exr,ReadingArea_rsl0-rcl44-esl100-rsm0-rcm44-esm29-rsr0-rcr25-esr310.npz,,,,,0,124,124,17,,left,green,0.96,566.6176919937134,566.9584429264069,2,3,3,brightness,readingArea,realistic,75,2023-03-17_14h40.46.001,tripletExp_regina_11082022,2022.2.4,119.47711896996198,
13,6,1,0,0.111111111111111,3.10526315789474,0,0.027777777777778,1.0,0,0.111111111111111,0.298245614035088,ReadingArea_rsl0-rcl11-esl310-rsm0-rcm2-esm100-rsr0-rcr11-esr29,exr/ReadingArea_rsl0-rcl11-esl310-rsm0-rcm2-esm100-rsr0-rcr11-esr29.exr,ReadingArea_rsl0-rcl11-esl310-rsm0-rcm2-esm100-rsr0-rcr11-esr29.npz,,,,,0,125,125,486,,right,red,0.92,568.6551840305328,568.9962339401245,2,3,3,brightness,readingArea,realistic,75,2023-03-17_14h40.46.001,tripletExp_regina_11082022,2022.2.4,119.47711896996198,
1,13,11,0,0.111111111111111,0.298245614035088,0,0.111111111111111,3.10526315789474,0,1.0,1.0,ReadingArea_rsl0-rcl11-esl29-rsm0-rcm11-esm310-rsr0-rcr100-esr100,exr/ReadingArea_rsl0-rcl11-esl29-rsm0-rcm11-esm310-rsr0-rcr100-esr100.exr,ReadingArea_rsl0-rcl11-esl29-rsm0-rcm11-esm310-rsr0-rcr100-esr100.npz,,,,,0,126,126,333,,left,green,4.55,574.2290458679199,574.5731198787689,2,3,3,brightness,readingArea,realistic,75,2023-03-17_14h40.46.001,tripletExp_regina_11082022,2022.2.4,119.47711896996198,
3,14,10,0,0.444444444444444,0.298245614035088,0,0.25,3.10526315789474,0,0.694444444444444,1.0,ReadingArea_rsl0-rcl44-esl29-rsm0-rcm25-esm310-rsr0-rcr69-esr100,exr/ReadingArea_rsl0-rcl44-esl29-rsm0-rcm25-esm310-rsr0-rcr69-esr100.exr,ReadingArea_rsl0-rcl44-esl29-rsm0-rcm25-esm310-rsr0-rcr69-esr100.npz,,,,,0,127,127,279,,right,red,1.01,576.2628219127655,576.602236032486,2,3,3,brightness,readingArea,realistic,75,2023-03-17_14h40.46.001,tripletExp_regina_11082022,2022.2.4,119.47711896996198,
9,0,14,0,0.444444444444444,1.0,0,0.027777777777778,0.298245614035088,0,0.25,3.10526315789474,ReadingArea_rsl0-rcl44-esl100-rsm0-rcm2-esm29-rsr0-rcr25-esr310,exr/ReadingArea_rsl0-rcl44-esl100-rsm0-rcm2-esm29-rsr0-rcr25-esr310.exr,ReadingArea_rsl0-rcl44-esl100-rsm0-rcm2-esm29-rsr0-rcr25-esr310.npz,,,,,0,128,128,550,,left,green,1.5,578.2916178703308,,2,3,3,brightness,readingArea,realistic,75,2023-03-17_14h40.46.001,tripletExp_regina_11082022,2022.2.4,119.47711896996198,
0,8,6,0,0.027777777777778,0.298245614035088,0,0.25,1.0,0,0.027777777777778,1.0,ReadingArea_rsl0-rcl2-esl29-rsm0-rcm25-esm100-rsr0-rcr2-esr100,exr/ReadingArea_rsl0-rcl2-esl29-rsm0-rcm25-esm100-rsr0-rcr2-esr100.exr,ReadingArea_rsl0-rcl2-esl29-rsm0-rcm25-esm100-rsr0-rcr2-esr100.npz,,,,,0,129,129,92,,right,red,1.25,580.3513839244843,580.6958749294281,2,3,3,brightness,readingArea,realistic,75,2023-03-17_14h40.46.001,tripletExp_regina_11082022,2022.2.4,119.47711896996198,
11,12,10,0,1.0,1.0,0,0.027777777777778,3.10526315789474,0,0.694444444444444,1.0,ReadingArea_rsl0-rcl100-esl100-rsm0-rcm2-esm310-rsr0-rcr69-esr100,exr/ReadingArea_rsl0-rcl100-esl100-rsm0-rcm2-esm310-rsr0-rcr69-esr100.exr,ReadingArea_rsl0-rcl100-esl100-rsm0-rcm2-esm310-rsr0-rcr69-esr100.npz,,,,,0,130,130,465,,right,red,1.31,582.3834409713745,582.722461938858,2,3,3,brightness,readingArea,realistic,75,2023-03-17_14h40.46.001,tripletExp_regina_11082022,2022.2.4,119.47711896996198,
13,3,12,0,0.111111111111111,3.10526315789474,0,0.444444444444444,0.298245614035088,0,0.027777777777778,3.10526315789474,ReadingArea_rsl0-rcl11-esl310-rsm0-rcm44-esm29-rsr0-rcr2-esr310,exr/ReadingArea_rsl0-rcl11-esl310-rsm0-rcm44-esm29-rsr0-rcr2-esr310.exr,ReadingArea_rsl0-rcl11-esl310-rsm0-rcm44-esm29-rsr0-rcr2-esr310.npz,,,,,0,131,131,80,,left,green,1.47,584.4211440086365,584.7675290107727,2,3,3,brightness,readingArea,realistic,75,2023-03-17_14h40.46.001,tripletExp_regina_11082022,2022.2.4,119.47711896996198,
4,3,10,0,0.694444444444444,0.298245614035088,0,0.444444444444444,0.298245614035088,0,0.694444444444444,1.0,ReadingArea_rsl0-rcl69-esl29-rsm0-rcm44-esm29-rsr0-rcr69-esr100,exr/ReadingArea_rsl0-rcl69-esl29-rsm0-rcm44-esm29-rsr0-rcr69-esr100.exr,ReadingArea_rsl0-rcl69-esl29-rsm0-rcm44-esm29-rsr0-rcr69-esr100.npz,,,,,0,132,132,371,,left,green,0.86,586.4642469882965,586.8284239768982,2,3,3,brightness,readingArea,realistic,75,2023-03-17_14h40.46.001,tripletExp_regina_11082022,2022.2.4,119.47711896996198,
13,10,3,0,0.111111111111111,3.10526315789474,0,0.694444444444444,1.0,0,0.444444444444444,0.298245614035088,ReadingArea_rsl0-rcl11-esl310-rsm0-rcm69-esm100-rsr0-rcr44-esr29,exr/ReadingArea_rsl0-rcl11-esl310-rsm0-rcm69-esm100-rsr0-rcr44-esr29.exr,ReadingArea_rsl0-rcl11-esl310-rsm0-rcm69-esm100-rsr0-rcr44-esr29.npz,,,,,0,133,133,224,,left,green,0.99,588.5213010311127,588.864294052124,2,3,3,brightness,readingArea,realistic,75,2023-03-17_14h40.46.001,tripletExp_regina_11082022,2022.2.4,119.47711896996198,
3,9,10,0,0.444444444444444,0.298245614035088,0,0.444444444444444,1.0,0,0.694444444444444,1.0,ReadingArea_rsl0-rcl44-esl29-rsm0-rcm44-esm100-rsr0-rcr69-esr100,exr/ReadingArea_rsl0-rcl44-esl29-rsm0-rcm44-esm100-rsr0-rcr69-esr100.exr,ReadingArea_rsl0-rcl44-esl29-rsm0-rcm44-esm100-rsr0-rcr69-esr100.npz,,,,,0,134,134,581,,right,red,1.14,590.5698940753937,590.9143669605255,2,3,3,brightness,readingArea,realistic,75,2023-03-17_14h40.46.001,tripletExp_regina_11082022,2022.2.4,119.47711896996198,
7,9,8,0,0.111111111111111,1.0,0,0.444444444444444,1.0,0,0.25,1.0,ReadingArea_rsl0-rcl11-esl100-rsm0-rcm44-esm100-rsr0-rcr25-esr100,exr/ReadingArea_rsl0-rcl11-esl100-rsm0-rcm44-esm100-rsr0-rcr25-esr100.exr,ReadingArea_rsl0-rcl11-esl100-rsm0-rcm44-esm100-rsr0-rcr25-esr100.npz,,,,,0,135,135,515,,right,red,1.31,592.6025929450989,,2,3,3,brightness,readingArea,realistic,75,2023-03-17_14h40.46.001,tripletExp_regina_11082022,2022.2.4,119.47711896996198,
13,0,9,0,0.111111111111111,3.10526315789474,0,0.027777777777778,0.298245614035088,0,0.444444444444444,1.0,ReadingArea_rsl0-rcl11-esl310-rsm0-rcm2-esm29-rsr0-rcr44-esr100,exr/ReadingArea_rsl0-rcl11-esl310-rsm0-rcm2-esm29-rsr0-rcr44-esr100.exr,ReadingArea_rsl0-rcl11-esl310-rsm0-rcm2-esm29-rsr0-rcr44-esr100.npz,,,,,0,136,136,373,,left,green,3.08,596.4491188526154,596.7948498725891,2,3,3,brightness,readingArea,realistic,75,2023-03-17_14h40.46.001,tripletExp_regina_11082022,2022.2.4,119.47711896996198,
0,11,9,0,0.027777777777778,0.298245614035088,0,1.0,1.0,0,0.444444444444444,1.0,ReadingArea_rsl0-rcl2-esl29-rsm0-rcm100-esm100-rsr0-rcr44-esr100,exr/ReadingArea_rsl0-rcl2-esl29-rsm0-rcm100-esm100-rsr0-rcr44-esr100.exr,ReadingArea_rsl0-rcl2-esl29-rsm0-rcm100-esm100-rsr0-rcr44-esr100.npz,,,,,0,137,137,32,,right,red,1.08,598.4946880340576,,2,3,3,brightness,readingArea,realistic,75,2023-03-17_14h40.46.001,tripletExp_regina_11082022,2022.2.4,119.47711896996198,
2,1,13,0,0.25,0.298245614035088,0,0.111111111111111,0.298245614035088,0,0.111111111111111,3.10526315789474,ReadingArea_rsl0-rcl25-esl29-rsm0-rcm11-esm29-rsr0-rcr11-esr310,exr/ReadingArea_rsl0-rcl25-esl29-rsm0-rcm11-esm29-rsr0-rcr11-esr310.exr,ReadingArea_rsl0-rcl25-esl29-rsm0-rcm11-esm29-rsr0-rcr11-esr310.npz,,,,,0,138,138,290,,left,green,0.86,600.5475890636444,600.8927619457245,2,3,3,brightness,readingArea,realistic,75,2023-03-17_14h40.46.001,tripletExp_regina_11082022,2022.2.4,119.47711896996198,
1,12,6,0,0.111111111111111,0.298245614035088,0,0.027777777777778,3.10526315789474,0,0.027777777777778,1.0,ReadingArea_rsl0-rcl11-esl29-rsm0-rcm2-esm310-rsr0-rcr2-esr100,exr/ReadingArea_rsl0-rcl11-esl29-rsm0-rcm2-esm310-rsr0-rcr2-esr100.exr,ReadingArea_rsl0-rcl11-esl29-rsm0-rcm2-esm310-rsr0-rcr2-esr100.npz,,,,,0,139,139,277,,left,green,1.89,604.3635039329529,604.7100088596344,2,3,3,brightness,readingArea,realistic,75,2023-03-17_14h40.46.001,tripletExp_regina_11082022,2022.2.4,119.47711896996198,
5,6,0,0,1.0,0.298245614035088,0,0.027777777777778,1.0,0,0.027777777777778,0.298245614035088,ReadingArea_rsl0-rcl100-esl29-rsm0-rcm2-esm100-rsr0-rcr2-esr29,exr/ReadingArea_rsl0-rcl100-esl29-rsm0-rcm2-esm100-rsr0-rcr2-esr29.exr,ReadingArea_rsl0-rcl100-esl29-rsm0-rcm2-esm100-rsr0-rcr2-esr29.npz,,,,,0,140,140,511,,left,green,2.85,608.2090468406677,608.5533909797668,2,3,3,brightness,readingArea,realistic,75,2023-03-17_14h40.46.001,tripletExp_regina_11082022,2022.2.4,119.47711896996198,
11,6,8,0,1.0,1.0,0,0.027777777777778,1.0,0,0.25,1.0,ReadingArea_rsl0-rcl100-esl100-rsm0-rcm2-esm100-rsr0-rcr25-esr100,exr/ReadingArea_rsl0-rcl100-esl100-rsm0-rcm2-esm100-rsr0-rcr25-esr100.exr,ReadingArea_rsl0-rcl100-esl100-rsm0-rcm2-esm100-rsr0-rcr25-esr100.npz,,,,,0,141,141,599,,right,red,1.39,610.2448229789734,610.5857579708099,2,3,3,brightness,readingArea,realistic,75,2023-03-17_14h40.46.001,tripletExp_regina_11082022,2022.2.4,119.47711896996198,
3,11,2,0,0.444444444444444,0.298245614035088,0,1.0,1.0,0,0.25,0.298245614035088,ReadingArea_rsl0-rcl44-esl29-rsm0-rcm100-esm100-rsr0-rcr25-esr29,exr/ReadingArea_rsl0-rcl44-esl29-rsm0-rcm100-esm100-rsr0-rcr25-esr29.exr,ReadingArea_rsl0-rcl44-esl29-rsm0-rcm100-esm100-rsr0-rcr25-esr29.npz,,,,,0,142,142,220,,left,green,1.15,612.2814400196075,612.6283948421478,2,3,3,brightness,readingArea,realistic,75,2023-03-17_14h40.46.001,tripletExp_regina_11082022,2022.2.4,119.47711896996198,
2,6,10,0,0.25,0.298245614035088,0,0.027777777777778,1.0,0,0.694444444444444,1.0,ReadingArea_rsl0-rcl25-esl29-rsm0-rcm2-esm100-rsr0-rcr69-esr100,exr/ReadingArea_rsl0-rcl25-esl29-rsm0-rcm2-esm100-rsr0-rcr69-esr100.exr,ReadingArea_rsl0-rcl25-esl29-rsm0-rcm2-esm100-rsr0-rcr69-esr100.npz,,,,,0,143,143,42,,left,green,0.94,614.3284249305725,614.6933948993683,2,3,3,brightness,readingArea,realistic,75,2023-03-17_14h40.46.001,tripletExp_regina_11082022,2022.2.4,119.47711896996198,
0,4,9,0,0.027777777777778,0.298245614035088,0,0.694444444444444,0.298245614035088,0,0.444444444444444,1.0,ReadingArea_rsl0-rcl2-esl29-rsm0-rcm69-esm29-rsr0-rcr44-esr100,exr/ReadingArea_rsl0-rcl2-esl29-rsm0-rcm69-esm29-rsr0-rcr44-esr100.exr,ReadingArea_rsl0-rcl2-esl29-rsm0-rcm69-esm29-rsr0-rcr44-esr100.npz,,,,,0,144,144,21,,right,red,0.8,616.3962788581848,616.7354409694672,2,3,3,brightness,readingArea,realistic,75,2023-03-17_14h40.46.001,tripletExp_regina_11082022,2022.2.4,119.47711896996198,
6,0,1,0,0.027777777777778,1.0,0,0.027777777777778,0.298245614035088,0,0.111111111111111,0.298245614035088,ReadingArea_rsl0-rcl2-esl100-rsm0-rcm2-esm29-rsr0-rcr11-esr29,exr/ReadingArea_rsl0-rcl2-esl100-rsm0-rcm2-esm29-rsr0-rcr11-esr29.exr,ReadingArea_rsl0-rcl2-esl100-rsm0-rcm2-esm29-rsr0-rcr11-esr29.npz,,,,,0,145,145,302,,right,red,1.27,618.444678068161,618.7866089344025,2,3,3,brightness,readingArea,realistic,75,2023-03-17_14h40.46.001,tripletExp_regina_11082022,2022.2.4,119.47711896996198,
2,8,4,0,0.25,0.298245614035088,0,0.25,1.0,0,0.694444444444444,0.298245614035088,ReadingArea_rsl0-rcl25-esl29-rsm0-rcm25-esm100-rsr0-rcr69-esr29,exr/ReadingArea_rsl0-rcl25-esl29-rsm0-rcm25-esm100-rsr0-rcr69-esr29.exr,ReadingArea_rsl0-rcl25-esl29-rsm0-rcm25-esm100-rsr0-rcr69-esr29.npz,,,,,0,146,146,507,,right,red,0.99,620.4870359897614,620.8278729915619,2,3,3,brightness,readingArea,realistic,75,2023-03-17_14h40.46.001,tripletExp_regina_11082022,2022.2.4,119.47711896996198,
14,12,9,0,0.25,3.10526315789474,0,0.027777777777778,3.10526315789474,0,0.444444444444444,1.0,ReadingArea_rsl0-rcl25-esl310-rsm0-rcm2-esm310-rsr0-rcr44-esr100,exr/ReadingArea_rsl0-rcl25-esl310-rsm0-rcm2-esm310-rsr0-rcr44-esr100.exr,ReadingArea_rsl0-rcl25-esl310-rsm0-rcm2-esm310-rsr0-rcr44-esr100.npz,,,,,0,147,147,40,,right,red,1.27,622.535276889801,622.8823969364166,2,3,3,brightness,readingArea,realistic,75,2023-03-17_14h40.46.001,tripletExp_regina_11082022,2022.2.4,119.47711896996198,
5,14,11,0,1.0,0.298245614035088,0,0.25,3.10526315789474,0,1.0,1.0,ReadingArea_rsl0-rcl100-esl29-rsm0-rcm25-esm310-rsr0-rcr100-esr100,exr/ReadingArea_rsl0-rcl100-esl29-rsm0-rcm25-esm310-rsr0-rcr100-esr100.exr,ReadingArea_rsl0-rcl100-esl29-rsm0-rcm25-esm310-rsr0-rcr100-esr100.npz,,,,,0,148,148,98,,right,red,0.93,624.5870978832245,624.930214881897,2,3,3,brightness,readingArea,realistic,75,2023-03-17_14h40.46.001,tripletExp_regina_11082022,2022.2.4,119.47711896996198,
11,13,1,0,1.0,1.0,0,0.111111111111111,3.10526315789474,0,0.111111111111111,0.298245614035088,ReadingArea_rsl0-rcl100-esl100-rsm0-rcm11-esm310-rsr0-rcr11-esr29,exr/ReadingArea_rsl0-rcl100-esl100-rsm0-rcm11-esm310-rsr0-rcr11-esr29.exr,ReadingArea_rsl0-rcl100-esl100-rsm0-rcm11-esm310-rsr0-rcr11-esr29.npz,,,,,0,149,149,185,,left,green,1.09,626.6351249217987,626.8396079540253,2,3,3,brightness,readingArea,realistic,75,2023-03-17_14h40.46.001,tripletExp_regina_11082022,2022.2.4,119.47711896996198,
7,8,11,0,0.111111111111111,1.0,0,0.25,1.0,0,1.0,1.0,ReadingArea_rsl0-rcl11-esl100-rsm0-rcm25-esm100-rsr0-rcr100-esr100,exr/ReadingArea_rsl0-rcl11-esl100-rsm0-rcm25-esm100-rsr0-rcr100-esr100.exr,ReadingArea_rsl0-rcl11-esl100-rsm0-rcm25-esm100-rsr0-rcr100-esr100.npz,,,,,0,150,150,363,,left,green,1.24,642.7433528900146,,3,3,3,brightness,readingArea,realistic,75,2023-03-17_14h40.46.001,tripletExp_regina_11082022,2022.2.4,119.47711896996198,
10,0,14,0,0.694444444444444,1.0,0,0.027777777777778,0.298245614035088,0,0.25,3.10526315789474,ReadingArea_rsl0-rcl69-esl100-rsm0-rcm2-esm29-rsr0-rcr25-esr310,exr/ReadingArea_rsl0-rcl69-esl100-rsm0-rcm2-esm29-rsr0-rcr25-esr310.exr,ReadingArea_rsl0-rcl69-esl100-rsm0-rcm2-esm29-rsr0-rcr25-esr310.npz,,,,,0,151,151,95,,left,green,1.7,644.7848749160767,645.1233048439026,3,3,3,brightness,readingArea,realistic,75,2023-03-17_14h40.46.001,tripletExp_regina_11082022,2022.2.4,119.47711896996198,
2,3,4,0,0.25,0.298245614035088,0,0.444444444444444,0.298245614035088,0,0.694444444444444,0.298245614035088,ReadingArea_rsl0-rcl25-esl29-rsm0-rcm44-esm29-rsr0-rcr69-esr29,exr/ReadingArea_rsl0-rcl25-esl29-rsm0-rcm44-esm29-rsr0-rcr69-esr29.exr,ReadingArea_rsl0-rcl25-esl29-rsm0-rcm44-esm29-rsr0-rcr69-esr29.npz,,,,,0,152,152,61,,right,red,1.22,646.8178560733795,647.1568119525909,3,3,3,brightness,readingArea,realistic,75,2023-03-17_14h40.46.001,tripletExp_regina_11082022,2022.2.4,119.47711896996198,
14,6,13,0,0.25,3.10526315789474,0,0.027777777777778,1.0,0,0.111111111111111,3.10526315789474,ReadingArea_rsl0-rcl25-esl310-rsm0-rcm2-esm100-rsr0-rcr11-esr310,exr/ReadingArea_rsl0-rcl25-esl310-rsm0-rcm2-esm100-rsr0-rcr11-esr310.exr,ReadingArea_rsl0-rcl25-esl310-rsm0-rcm2-esm100-rsr0-rcr11-esr310.npz,,,,,0,153,153,91,,right,red,0.86,648.8559720516205,649.202446937561,3,3,3,brightness,readingArea,realistic,75,2023-03-17_14h40.46.001,tripletExp_regina_11082022,2022.2.4,119.47711896996198,
14,12,0,0,0.25,3.10526315789474,0,0.027777777777778,3.10526315789474,0,0.027777777777778,0.298245614035088,ReadingArea_rsl0-rcl25-esl310-rsm0-rcm2-esm310-rsr0-rcr2-esr29,exr/ReadingArea_rsl0-rcl25-esl310-rsm0-rcm2-esm310-rsr0-rcr2-esr29.exr,ReadingArea_rsl0-rcl25-esl310-rsm0-rcm2-esm310-rsr0-rcr2-esr29.npz,,,,,0,154,154,409,,right,red,0.75,650.894583940506,,3,3,3,brightness,readingArea,realistic,75,2023-03-17_14h40.46.001,tripletExp_regina_11082022,2022.2.4,119.47711896996198,
14,9,0,0,0.25,3.10526315789474,0,0.444444444444444,1.0,0,0.027777777777778,0.298245614035088,ReadingArea_rsl0-rcl25-esl310-rsm0-rcm44-esm100-rsr0-rcr2-esr29,exr/ReadingArea_rsl0-rcl25-esl310-rsm0-rcm44-esm100-rsr0-rcr2-esr29.exr,ReadingArea_rsl0-rcl25-esl310-rsm0-rcm44-esm100-rsr0-rcr2-esr29.npz,,,,,0,155,155,313,,left,green,1.34,652.9504299163818,653.2936339378357,3,3,3,brightness,readingArea,realistic,75,2023-03-17_14h40.46.001,tripletExp_regina_11082022,2022.2.4,119.47711896996198,
4,14,12,0,0.694444444444444,0.298245614035088,0,0.25,3.10526315789474,0,0.027777777777778,3.10526315789474,ReadingArea_rsl0-rcl69-esl29-rsm0-rcm25-esm310-rsr0-rcr2-esr310,exr/ReadingArea_rsl0-rcl69-esl29-rsm0-rcm25-esm310-rsr0-rcr2-esr310.exr,ReadingArea_rsl0-rcl69-esl29-rsm0-rcm25-esm310-rsr0-rcr2-esr310.npz,,,,,0,156,156,392,,left,green,1.02,654.9901540279388,655.3361370563507,3,3,3,brightness,readingArea,realistic,75,2023-03-17_14h40.46.001,tripletExp_regina_11082022,2022.2.4,119.47711896996198,
7,9,5,0,0.111111111111111,1.0,0,0.444444444444444,1.0,0,1.0,0.298245614035088,ReadingArea_rsl0-rcl11-esl100-rsm0-rcm44-esm100-rsr0-rcr100-esr29,exr/ReadingArea_rsl0-rcl11-esl100-rsm0-rcm44-esm100-rsr0-rcr100-esr29.exr,ReadingArea_rsl0-rcl11-esl100-rsm0-rcm44-esm100-rsr0-rcr100-esr29.npz,,,,,0,157,157,291,,right,red,0.65,657.0420339107513,657.3867390155792,3,3,3,brightness,readingArea,realistic,75,2023-03-17_14h40.46.001,tripletExp_regina_11082022,2022.2.4,119.47711896996198,
14,2,8,0,0.25,3.10526315789474,0,0.25,0.298245614035088,0,0.25,1.0,ReadingArea_rsl0-rcl25-esl310-rsm0-rcm25-esm29-rsr0-rcr25-esr100,exr/ReadingArea_rsl0-rcl25-esl310-rsm0-rcm25-esm29-rsr0-rcr25-esr100.exr,ReadingArea_rsl0-rcl25-esl310-rsm0-rcm25-esm29-rsr0-rcr25-esr100.npz,,,,,0,158,158,212,,right,red,0.9,659.0825049877167,659.4294199943542,3,3,3,brightness,readingArea,realistic,75,2023-03-17_14h40.46.001,tripletExp_regina_11082022,2022.2.4,119.47711896996198,
10,11,4,0,0.694444444444444,1.0,0,1.0,1.0,0,0.694444444444444,0.298245614035088,ReadingArea_rsl0-rcl69-esl100-rsm0-rcm100-esm100-rsr0-rcr69-esr29,exr/ReadingArea_rsl0-rcl69-esl100-rsm0-rcm100-esm100-rsr0-rcr69-esr29.exr,ReadingArea_rsl0-rcl69-esl100-rsm0-rcm100-esm100-rsr0-rcr69-esr29.npz,,,,,0,159,159,239,,left,green,0.89,661.1167440414429,661.4642000198364,3,3,3,brightness,readingArea,realistic,75,2023-03-17_14h40.46.001,tripletExp_regina_11082022,2022.2.4,119.47711896996198,
7,2,6,0,0.111111111111111,1.0,0,0.25,0.298245614035088,0,0.027777777777778,1.0,ReadingArea_rsl0-rcl11-esl100-rsm0-rcm25-esm29-rsr0-rcr2-esr100,exr/ReadingArea_rsl0-rcl11-esl100-rsm0-rcm25-esm29-rsr0-rcr2-esr100.exr,ReadingArea_rsl0-rcl11-esl100-rsm0-rcm25-esm29-rsr0-rcr2-esr100.npz,,,,,0,160,160,506,,left,green,0.83,663.1606960296631,663.5048830509186,3,3,3,brightness,readingArea,realistic,75,2023-03-17_14h40.46.001,tripletExp_regina_11082022,2022.2.4,119.47711896996198,
7,10,5,0,0.111111111111111,1.0,0,0.694444444444444,1.0,0,1.0,0.298245614035088,ReadingArea_rsl0-rcl11-esl100-rsm0-rcm69-esm100-rsr0-rcr100-esr29,exr/ReadingArea_rsl0-rcl11-esl100-rsm0-rcm69-esm100-rsr0-rcr100-esr29.exr,ReadingArea_rsl0-rcl11-esl100-rsm0-rcm69-esm100-rsr0-rcr100-esr29.npz,,,,,0,161,161,395,,right,red,0.9,665.2224719524384,665.5693640708923,3,3,3,brightness,readingArea,realistic,75,2023-03-17_14h40.46.001,tripletExp_regina_11082022,2022.2.4,119.47711896996198,
14,2,1,0,0.25,3.10526315789474,0,0.25,0.298245614035088,0,0.111111111111111,0.298245614035088,ReadingArea_rsl0-rcl25-esl310-rsm0-rcm25-esm29-rsr0-rcr11-esr29,exr/ReadingArea_rsl0-rcl25-esl310-rsm0-rcm25-esm29-rsr0-rcr11-esr29.exr,ReadingArea_rsl0-rcl25-esl310-rsm0-rcm25-esm29-rsr0-rcr11-esr29.npz,,,,,0,162,162,321,,right,red,1.31,667.2561888694763,667.6023168563843,3,3,3,brightness,readingArea,realistic,75,2023-03-17_14h40.46.001,tripletExp_regina_11082022,2022.2.4,119.47711896996198,
3,14,12,0,0.444444444444444,0.298245614035088,0,0.25,3.10526315789474,0,0.027777777777778,3.10526315789474,ReadingArea_rsl0-rcl44-esl29-rsm0-rcm25-esm310-rsr0-rcr2-esr310,exr/ReadingArea_rsl0-rcl44-esl29-rsm0-rcm25-esm310-rsr0-rcr2-esr310.exr,ReadingArea_rsl0-rcl44-esl29-rsm0-rcm25-esm310-rsr0-rcr2-esr310.npz,,,,,0,163,163,336,,left,green,1.44,669.3220438957214,669.6624839305878,3,3,3,brightness,readingArea,realistic,75,2023-03-17_14h40.46.001,tripletExp_regina_11082022,2022.2.4,119.47711896996198,
10,11,12,0,0.694444444444444,1.0,0,1.0,1.0,0,0.027777777777778,3.10526315789474,ReadingArea_rsl0-rcl69-esl100-rsm0-rcm100-esm100-rsr0-rcr2-esr310,exr/ReadingArea_rsl0-rcl69-esl100-rsm0-rcm100-esm100-rsr0-rcr2-esr310.exr,ReadingArea_rsl0-rcl69-esl100-rsm0-rcm100-esm100-rsr0-rcr2-esr310.npz,,,,,0,164,164,533,,left,green,0.69,671.3529570102692,671.6970720291138,3,3,3,brightness,readingArea,realistic,75,2023-03-17_14h40.46.001,tripletExp_regina_11082022,2022.2.4,119.47711896996198,
8,7,13,0,0.25,1.0,0,0.111111111111111,1.0,0,0.111111111111111,3.10526315789474,ReadingArea_rsl0-rcl25-esl100-rsm0-rcm11-esm100-rsr0-rcr11-esr310,exr/ReadingArea_rsl0-rcl25-esl100-rsm0-rcm11-esm100-rsr0-rcr11-esr310.exr,ReadingArea_rsl0-rcl25-esl100-rsm0-rcm11-esm100-rsr0-rcr11-esr310.npz,,,,,0,165,165,512,,left,green,2.96,675.1505270004272,675.4984178543091,3,3,3,brightness,readingArea,realistic,75,2023-03-17_14h40.46.001,tripletExp_regina_11082022,2022.2.4,119.47711896996198,
0,5,7,0,0.027777777777778,0.298245614035088,0,1.0,0.298245614035088,0,0.111111111111111,1.0,ReadingArea_rsl0-rcl2-esl29-rsm0-rcm100-esm29-rsr0-rcr11-esr100,exr/ReadingArea_rsl0-rcl2-esl29-rsm0-rcm100-esm29-rsr0-rcr11-esr100.exr,ReadingArea_rsl0-rcl2-esl29-rsm0-rcm100-esm29-rsr0-rcr11-esr100.npz,,,,,0,166,166,217,,right,red,1.31,677.194130897522,677.5413649082184,3,3,3,brightness,readingArea,realistic,75,2023-03-17_14h40.46.001,tripletExp_regina_11082022,2022.2.4,119.47711896996198,
3,1,6,0,0.444444444444444,0.298245614035088,0,0.111111111111111,0.298245614035088,0,0.027777777777778,1.0,ReadingArea_rsl0-rcl44-esl29-rsm0-rcm11-esm29-rsr0-rcr2-esr100,exr/ReadingArea_rsl0-rcl44-esl29-rsm0-rcm11-esm29-rsr0-rcr2-esr100.exr,ReadingArea_rsl0-rcl44-esl29-rsm0-rcm11-esm29-rsr0-rcr2-esr100.npz,,,,,0,167,167,464,,right,red,0.83,679.2431108951569,679.5914850234985,3,3,3,brightness,readingArea,realistic,75,2023-03-17_14h40.46.001,tripletExp_regina_11082022,2022.2.4,119.47711896996198,
7,9,3,0,0.111111111111111,1.0,0,0.444444444444444,1.0,0,0.444444444444444,0.298245614035088,ReadingArea_rsl0-rcl11-esl100-rsm0-rcm44-esm100-rsr0-rcr44-esr29,exr/ReadingArea_rsl0-rcl11-esl100-rsm0-rcm44-esm100-rsr0-rcr44-esr29.exr,ReadingArea_rsl0-rcl11-esl100-rsm0-rcm44-esm100-rsr0-rcr44-esr29.npz,,,,,0,168,168,311,,right,red,1.33,681.281583070755,681.6253659725189,3,3,3,brightness,readingArea,realistic,75,2023-03-17_14h40.46.001,tripletExp_regina_11082022,2022.2.4,119.47711896996198,
10,7,8,0,0.694444444444444,1.0,0,0.111111111111111,1.0,0,0.25,1.0,ReadingArea_rsl0-rcl69-esl100-rsm0-rcm11-esm100-rsr0-rcr25-esr100,exr/ReadingArea_rsl0-rcl69-esl100-rsm0-rcm11-esm100-rsr0-rcr25-esr100.exr,ReadingArea_rsl0-rcl69-esl100-rsm0-rcm11-esm100-rsr0-rcr25-esr100.npz,,,,,0,169,169,57,,right,red,1.17,683.3321869373322,683.6750738620758,3,3,3,brightness,readingArea,realistic,75,2023-03-17_14h40.46.001,tripletExp_regina_11082022,2022.2.4,119.47711896996198,
3,14,5,0,0.444444444444444,0.298245614035088,0,0.25,3.10526315789474,0,1.0,0.298245614035088,ReadingArea_rsl0-rcl44-esl29-rsm0-rcm25-esm310-rsr0-rcr100-esr29,exr/ReadingArea_rsl0-rcl44-esl29-rsm0-rcm25-esm310-rsr0-rcr100-esr29.exr,ReadingArea_rsl0-rcl44-esl29-rsm0-rcm25-esm310-rsr0-rcr100-esr29.npz,,,,,0,170,170,131,,right,red,1.33,685.3649199008942,685.7070219516754,3,3,3,brightness,readingArea,realistic,75,2023-03-17_14h40.46.001,tripletExp_regina_11082022,2022.2.4,119.47711896996198,
5,8,2,0,1.0,0.298245614035088,0,0.25,1.0,0,0.25,0.298245614035088,ReadingArea_rsl0-rcl100-esl29-rsm0-rcm25-esm100-rsr0-rcr25-esr29,exr/ReadingArea_rsl0-rcl100-esl29-rsm0-rcm25-esm100-rsr0-rcr25-esr29.exr,ReadingArea_rsl0-rcl100-esl29-rsm0-rcm25-esm100-rsr0-rcr25-esr29.npz,,,,,0,171,171,65,,left,green,1.25,687.4145998954773,687.7621519565582,3,3,3,brightness,readingArea,realistic,75,2023-03-17_14h40.46.001,tripletExp_regina_11082022,2022.2.4,119.47711896996198,
4,2,13,0,0.694444444444444,0.298245614035088,0,0.25,0.298245614035088,0,0.111111111111111,3.10526315789474,ReadingArea_rsl0-rcl69-esl29-rsm0-rcm25-esm29-rsr0-rcr11-esr310,exr/ReadingArea_rsl0-rcl69-esl29-rsm0-rcm25-esm29-rsr0-rcr11-esr310.exr,ReadingArea_rsl0-rcl69-esl29-rsm0-rcm25-esm29-rsr0-rcr11-esr310.npz,,,,,0,172,172,304,,left,green,1.41,689.4512829780579,689.8008308410645,3,3,3,brightness,readingArea,realistic,75,2023-03-17_14h40.46.001,tripletExp_regina_11082022,2022.2.4,119.47711896996198,
12,2,9,0,0.027777777777778,3.10526315789474,0,0.25,0.298245614035088,0,0.444444444444444,1.0,ReadingArea_rsl0-rcl2-esl310-rsm0-rcm25-esm29-rsr0-rcr44-esr100,exr/ReadingArea_rsl0-rcl2-esl310-rsm0-rcm25-esm29-rsr0-rcr44-esr100.exr,ReadingArea_rsl0-rcl2-esl310-rsm0-rcm25-esm29-rsr0-rcr44-esr100.npz,,,,,0,173,173,495,,left,green,0.84,691.5151369571686,691.8577868938446,3,3,3,brightness,readingArea,realistic,75,2023-03-17_14h40.46.001,tripletExp_regina_11082022,2022.2.4,119.47711896996198,
2,12,6,0,0.25,0.298245614035088,0,0.027777777777778,3.10526315789474,0,0.027777777777778,1.0,ReadingArea_rsl0-rcl25-esl29-rsm0-rcm2-esm310-rsr0-rcr2-esr100,exr/ReadingArea_rsl0-rcl25-esl29-rsm0-rcm2-esm310-rsr0-rcr2-esr100.exr,ReadingArea_rsl0-rcl25-esl29-rsm0-rcm2-esm310-rsr0-rcr2-esr100.npz,,,,,0,174,174,400,,left,green,0.87,693.5808110237122,693.9274749755859,3,3,3,brightness,readingArea,realistic,75,2023-03-17_14h40.46.001,tripletExp_regina_11082022,2022.2.4,119.47711896996198,
10,3,6,0,0.694444444444444,1.0,0,0.444444444444444,0.298245614035088,0,0.027777777777778,1.0,ReadingArea_rsl0-rcl69-esl100-rsm0-rcm44-esm29-rsr0-rcr2-esr100,exr/ReadingArea_rsl0-rcl69-esl100-rsm0-rcm44-esm29-rsr0-rcr2-esr100.exr,ReadingArea_rsl0-rcl69-esl100-rsm0-rcm44-esm29-rsr0-rcr2-esr100.npz,,,,,0,175,175,261,,right,red,4.17,699.1917290687561,699.5357220172882,3,3,3,brightness,readingArea,realistic,75,2023-03-17_14h40.46.001,tripletExp_regina_11082022,2022.2.4,119.47711896996198,
0,14,11,0,0.027777777777778,0.298245614035088,0,0.25,3.10526315789474,0,1.0,1.0,ReadingArea_rsl0-rcl2-esl29-rsm0-rcm25-esm310-rsr0-rcr100-esr100,exr/ReadingArea_rsl0-rcl2-esl29-rsm0-rcm25-esm310-rsr0-rcr100-esr100.exr,ReadingArea_rsl0-rcl2-esl29-rsm0-rcm25-esm310-rsr0-rcr100-esr100.npz,,,,,0,176,176,557,,right,red,1.0,701.2548859119415,701.6011700630188,3,3,3,brightness,readingArea,realistic,75,2023-03-17_14h40.46.001,tripletExp_regina_11082022,2022.2.4,119.47711896996198,
3,7,0,0,0.444444444444444,0.298245614035088,0,0.111111111111111,1.0,0,0.027777777777778,0.298245614035088,ReadingArea_rsl0-rcl44-esl29-rsm0-rcm11-esm100-rsr0-rcr2-esr29,exr/ReadingArea_rsl0-rcl44-esl29-rsm0-rcm11-esm100-rsr0-rcr2-esr29.exr,ReadingArea_rsl0-rcl44-esl29-rsm0-rcm11-esm100-rsr0-rcr2-esr29.npz,,,,,0,177,177,327,,left,green,0.83,703.3183598518372,703.6600248813629,3,3,3,brightness,readingArea,realistic,75,2023-03-17_14h40.46.001,tripletExp_regina_11082022,2022.2.4,119.47711896996198,
4,10,9,0,0.694444444444444,0.298245614035088,0,0.694444444444444,1.0,0,0.444444444444444,1.0,ReadingArea_rsl0-rcl69-esl29-rsm0-rcm69-esm100-rsr0-rcr44-esr100,exr/ReadingArea_rsl0-rcl69-esl29-rsm0-rcm69-esm100-rsr0-rcr44-esr100.exr,ReadingArea_rsl0-rcl69-esl29-rsm0-rcm69-esm100-rsr0-rcr44-esr100.npz,,,,,0,178,178,516,,right,red,1.33,705.3771619796753,705.720556974411,3,3,3,brightness,readingArea,realistic,75,2023-03-17_14h40.46.001,tripletExp_regina_11082022,2022.2.4,119.47711896996198,
11,2,4,0,1.0,1.0,0,0.25,0.298245614035088,0,0.694444444444444,0.298245614035088,ReadingArea_rsl0-rcl100-esl100-rsm0-rcm25-esm29-rsr0-rcr69-esr29,exr/ReadingArea_rsl0-rcl100-esl100-rsm0-rcm25-esm29-rsr0-rcr69-esr29.exr,ReadingArea_rsl0-rcl100-esl100-rsm0-rcm25-esm29-rsr0-rcr69-esr29.npz,,,,,0,179,179,359,,right,red,2.4,709.1937448978424,709.53884100914,3,3,3,brightness,readingArea,realistic,75,2023-03-17_14h40.46.001,tripletExp_regina_11082022,2022.2.4,119.47711896996198,
13,1,7,0,0.111111111111111,3.10526315789474,0,0.111111111111111,0.298245614035088,0,0.111111111111111,1.0,ReadingArea_rsl0-rcl11-esl310-rsm0-rcm11-esm29-rsr0-rcr11-esr100,exr/ReadingArea_rsl0-rcl11-esl310-rsm0-rcm11-esm29-rsr0-rcr11-esr100.exr,ReadingArea_rsl0-rcl11-esl310-rsm0-rcm11-esm29-rsr0-rcr11-esr100.npz,,,,,0,180,180,206,,right,red,4.2,714.7917149066925,715.1496708393097,3,3,3,brightness,readingArea,realistic,75,2023-03-17_14h40.46.001,tripletExp_regina_11082022,2022.2.4,119.47711896996198,
3,0,8,0,0.444444444444444,0.298245614035088,0,0.027777777777778,0.298245614035088,0,0.25,1.0,ReadingArea_rsl0-rcl44-esl29-rsm0-rcm2-esm29-rsr0-rcr25-esr100,exr/ReadingArea_rsl0-rcl44-esl29-rsm0-rcm2-esm29-rsr0-rcr25-esr100.exr,ReadingArea_rsl0-rcl44-esl29-rsm0-rcm2-esm29-rsr0-rcr25-esr100.npz,,,,,0,181,181,510,,left,green,1.07,716.8465039730072,,3,3,3,brightness,readingArea,realistic,75,2023-03-17_14h40.46.001,tripletExp_regina_11082022,2022.2.4,119.47711896996198,
12,10,5,0,0.027777777777778,3.10526315789474,0,0.694444444444444,1.0,0,1.0,0.298245614035088,ReadingArea_rsl0-rcl2-esl310-rsm0-rcm69-esm100-rsr0-rcr100-esr29,exr/ReadingArea_rsl0-rcl2-esl310-rsm0-rcm69-esm100-rsr0-rcr100-esr29.exr,ReadingArea_rsl0-rcl2-esl310-rsm0-rcm69-esm100-rsr0-rcr100-esr29.npz,,,,,0,182,182,470,,right,red,0.78,718.8928799629211,719.2394318580627,3,3,3,brightness,readingArea,realistic,75,2023-03-17_14h40.46.001,tripletExp_regina_11082022,2022.2.4,119.47711896996198,
14,7,8,0,0.25,3.10526315789474,0,0.111111111111111,1.0,0,0.25,1.0,ReadingArea_rsl0-rcl25-esl310-rsm0-rcm11-esm100-rsr0-rcr25-esr100,exr/ReadingArea_rsl0-rcl25-esl310-rsm0-rcm11-esm100-rsr0-rcr25-esr100.exr,ReadingArea_rsl0-rcl25-esl310-rsm0-rcm11-esm100-rsr0-rcr25-esr100.npz,,,,,0,183,183,326,,right,red,0.73,720.960294008255,721.3060100078583,3,3,3,brightness,readingArea,realistic,75,2023-03-17_14h40.46.001,tripletExp_regina_11082022,2022.2.4,119.47711896996198,
9,11,5,0,0.444444444444444,1.0,0,1.0,1.0,0,1.0,0.298245614035088,ReadingArea_rsl0-rcl44-esl100-rsm0-rcm100-esm100-rsr0-rcr100-esr29,exr/ReadingArea_rsl0-rcl44-esl100-rsm0-rcm100-esm100-rsr0-rcr100-esr29.exr,ReadingArea_rsl0-rcl44-esl100-rsm0-rcm100-esm100-rsr0-rcr100-esr29.npz,,,,,0,184,184,142,,left,green,1.05,723.000529050827,723.3482758998871,3,3,3,brightness,readingArea,realistic,75,2023-03-17_14h40.46.001,tripletExp_regina_11082022,2022.2.4,119.47711896996198,
9,0,3,0,0.444444444444444,1.0,0,0.027777777777778,0.298245614035088,0,0.444444444444444,0.298245614035088,ReadingArea_rsl0-rcl44-esl100-rsm0-rcm2-esm29-rsr0-rcr44-esr29,exr/ReadingArea_rsl0-rcl44-esl100-rsm0-rcm2-esm29-rsr0-rcr44-esr29.exr,ReadingArea_rsl0-rcl44-esl100-rsm0-rcm2-esm29-rsr0-rcr44-esr29.npz,,,,,0,185,185,2,,right,red,0.87,725.0489230155945,725.4036378860474,3,3,3,brightness,readingArea,realistic,75,2023-03-17_14h40.46.001,tripletExp_regina_11082022,2022.2.4,119.47711896996198,
5,10,0,0,1.0,0.298245614035088,0,0.694444444444444,1.0,0,0.027777777777778,0.298245614035088,ReadingArea_rsl0-rcl100-esl29-rsm0-rcm69-esm100-rsr0-rcr2-esr29,exr/ReadingArea_rsl0-rcl100-esl29-rsm0-rcm69-esm100-rsr0-rcr2-esr29.exr,ReadingArea_rsl0-rcl100-esl29-rsm0-rcm69-esm100-rsr0-rcr2-esr29.npz,,,,,0,186,186,293,,left,green,0.82,727.1068880558014,,3,3,3,brightness,readingArea,realistic,75,2023-03-17_14h40.46.001,tripletExp_regina_11082022,2022.2.4,119.47711896996198,
9,0,8,0,0.444444444444444,1.0,0,0.027777777777778,0.298245614035088,0,0.25,1.0,ReadingArea_rsl0-rcl44-esl100-rsm0-rcm2-esm29-rsr0-rcr25-esr100,exr/ReadingArea_rsl0-rcl44-esl100-rsm0-rcm2-esm29-rsr0-rcr25-esr100.exr,ReadingArea_rsl0-rcl44-esl100-rsm0-rcm2-esm29-rsr0-rcr25-esr100.npz,,,,,0,187,187,27,,right,red,1.1,729.1679918766022,729.5183880329132,3,3,3,brightness,readingArea,realistic,75,2023-03-17_14h40.46.001,tripletExp_regina_11082022,2022.2.4,119.47711896996198,
13,2,4,0,0.111111111111111,3.10526315789474,0,0.25,0.298245614035088,0,0.694444444444444,0.298245614035088,ReadingArea_rsl0-rcl11-esl310-rsm0-rcm25-esm29-rsr0-rcr69-esr29,exr/ReadingArea_rsl0-rcl11-esl310-rsm0-rcm25-esm29-rsr0-rcr69-esr29.exr,ReadingArea_rsl0-rcl11-esl310-rsm0-rcm25-esm29-rsr0-rcr69-esr29.npz,,,,,0,188,188,307,,right,red,1.09,731.2223489284515,731.6619799137115,3,3,3,brightness,readingArea,realistic,75,2023-03-17_14h40.46.001,tripletExp_regina_11082022,2022.2.4,119.47711896996198,
13,11,10,0,0.111111111111111,3.10526315789474,0,1.0,1.0,0,0.694444444444444,1.0,ReadingArea_rsl0-rcl11-esl310-rsm0-rcm100-esm100-rsr0-rcr69-esr100,exr/ReadingArea_rsl0-rcl11-esl310-rsm0-rcm100-esm100-rsr0-rcr69-esr100.exr,ReadingArea_rsl0-rcl11-esl310-rsm0-rcm100-esm100-rsr0-rcr69-esr100.npz,,,,,0,189,189,577,,right,red,0.89,733.3787219524384,733.7275578975677,3,3,3,brightness,readingArea,realistic,75,2023-03-17_14h40.46.001,tripletExp_regina_11082022,2022.2.4,119.47711896996198,
12,8,9,0,0.027777777777778,3.10526315789474,0,0.25,1.0,0,0.444444444444444,1.0,ReadingArea_rsl0-rcl2-esl310-rsm0-rcm25-esm100-rsr0-rcr44-esr100,exr/ReadingArea_rsl0-rcl2-esl310-rsm0-rcm25-esm100-rsr0-rcr44-esr100.exr,ReadingArea_rsl0-rcl2-esl310-rsm0-rcm25-esm100-rsr0-rcr44-esr100.npz,,,,,0,190,190,517,,right,red,0.78,735.4316430091858,735.7770059108734,3,3,3,brightness,readingArea,realistic,75,2023-03-17_14h40.46.001,tripletExp_regina_11082022,2022.2.4,119.47711896996198,
12,5,10,0,0.027777777777778,3.10526315789474,0,1.0,0.298245614035088,0,0.694444444444444,1.0,ReadingArea_rsl0-rcl2-esl310-rsm0-rcm100-esm29-rsr0-rcr69-esr100,exr/ReadingArea_rsl0-rcl2-esl310-rsm0-rcm100-esm29-rsr0-rcr69-esr100.exr,ReadingArea_rsl0-rcl2-esl310-rsm0-rcm100-esm29-rsr0-rcr69-esr100.npz,,,,,0,191,191,493,,right,red,0.81,737.4984059333801,737.8433649539948,3,3,3,brightness,readingArea,realistic,75,2023-03-17_14h40.46.001,tripletExp_regina_11082022,2022.2.4,119.47711896996198,
4,9,13,0,0.694444444444444,0.298245614035088,0,0.444444444444444,1.0,0,0.111111111111111,3.10526315789474,ReadingArea_rsl0-rcl69-esl29-rsm0-rcm44-esm100-rsr0-rcr11-esr310,exr/ReadingArea_rsl0-rcl69-esl29-rsm0-rcm44-esm100-rsr0-rcr11-esr310.exr,ReadingArea_rsl0-rcl69-esl29-rsm0-rcm44-esm100-rsr0-rcr11-esr310.npz,,,,,0,192,192,488,,right,red,0.94,739.5311009883881,739.8783679008484,3,3,3,brightness,readingArea,realistic,75,2023-03-17_14h40.46.001,tripletExp_regina_11082022,2022.2.4,119.47711896996198,
5,13,12,0,1.0,0.298245614035088,0,0.111111111111111,3.10526315789474,0,0.027777777777778,3.10526315789474,ReadingArea_rsl0-rcl100-esl29-rsm0-rcm11-esm310-rsr0-rcr2-esr310,exr/ReadingArea_rsl0-rcl100-esl29-rsm0-rcm11-esm310-rsr0-rcr2-esr310.exr,ReadingArea_rsl0-rcl100-esl29-rsm0-rcm11-esm310-rsr0-rcr2-esr310.npz,,,,,0,193,193,389,,left,green,0.81,741.5689649581909,741.9172270298004,3,3,3,brightness,readingArea,realistic,75,2023-03-17_14h40.46.001,tripletExp_regina_11082022,2022.2.4,119.47711896996198,
13,9,6,0,0.111111111111111,3.10526315789474,0,0.444444444444444,1.0,0,0.027777777777778,1.0,ReadingArea_rsl0-rcl11-esl310-rsm0-rcm44-esm100-rsr0-rcr2-esr100,exr/ReadingArea_rsl0-rcl11-esl310-rsm0-rcm44-esm100-rsr0-rcr2-esr100.exr,ReadingArea_rsl0-rcl11-esl310-rsm0-rcm44-esm100-rsr0-rcr2-esr100.npz,,,,,0,194,194,19,,left,green,0.69,743.6212298870087,743.9692208766937,3,3,3,brightness,readingArea,realistic,75,2023-03-17_14h40.46.001,tripletExp_regina_11082022,2022.2.4,119.47711896996198,
4,8,11,0,0.694444444444444,0.298245614035088,0,0.25,1.0,0,1.0,1.0,ReadingArea_rsl0-rcl69-esl29-rsm0-rcm25-esm100-rsr0-rcr100-esr100,exr/ReadingArea_rsl0-rcl69-esl29-rsm0-rcm25-esm100-rsr0-rcr100-esr100.exr,ReadingArea_rsl0-rcl69-esl29-rsm0-rcm25-esm100-rsr0-rcr100-esr100.npz,,,,,0,195,195,403,,left,green,0.94,745.6778340339661,746.0269329547882,3,3,3,brightness,readingArea,realistic,75,2023-03-17_14h40.46.001,tripletExp_regina_11082022,2022.2.4,119.47711896996198,
12,10,9,0,0.027777777777778,3.10526315789474,0,0.694444444444444,1.0,0,0.444444444444444,1.0,ReadingArea_rsl0-rcl2-esl310-rsm0-rcm69-esm100-rsr0-rcr44-esr100,exr/ReadingArea_rsl0-rcl2-esl310-rsm0-rcm69-esm100-rsr0-rcr44-esr100.exr,ReadingArea_rsl0-rcl2-esl310-rsm0-rcm69-esm100-rsr0-rcr44-esr100.npz,,,,,0,196,196,126,,right,red,0.75,747.7279999256134,748.0761539936066,3,3,3,brightness,readingArea,realistic,75,2023-03-17_14h40.46.001,tripletExp_regina_11082022,2022.2.4,119.47711896996198,
5,7,14,0,1.0,0.298245614035088,0,0.111111111111111,1.0,0,0.25,3.10526315789474,ReadingArea_rsl0-rcl100-esl29-rsm0-rcm11-esm100-rsr0-rcr25-esr310,exr/ReadingArea_rsl0-rcl100-esl29-rsm0-rcm11-esm100-rsr0-rcr25-esr310.exr,ReadingArea_rsl0-rcl100-esl29-rsm0-rcm11-esm100-rsr0-rcr25-esr310.npz,,,,,0,197,197,210,,left,green,0.75,749.7799038887024,750.1276290416718,3,3,3,brightness,readingArea,realistic,75,2023-03-17_14h40.46.001,tripletExp_regina_11082022,2022.2.4,119.47711896996198,
6,4,10,0,0.027777777777778,1.0,0,0.694444444444444,0.298245614035088,0,0.694444444444444,1.0,ReadingArea_rsl0-rcl2-esl100-rsm0-rcm69-esm29-rsr0-rcr69-esr100,exr/ReadingArea_rsl0-rcl2-esl100-rsm0-rcm69-esm29-rsr0-rcr69-esr100.exr,ReadingArea_rsl0-rcl2-esl100-rsm0-rcm69-esm29-rsr0-rcr69-esr100.npz,,,,,0,198,198,554,,right,red,0.72,751.8506329059601,752.1971569061279,3,3,3,brightness,readingArea,realistic,75,2023-03-17_14h40.46.001,tripletExp_regina_11082022,2022.2.4,119.47711896996198,
11,0,10,0,1.0,1.0,0,0.027777777777778,0.298245614035088,0,0.694444444444444,1.0,ReadingArea_rsl0-rcl100-esl100-rsm0-rcm2-esm29-rsr0-rcr69-esr100,exr/ReadingArea_rsl0-rcl100-esl100-rsm0-rcm2-esm29-rsr0-rcr69-esr100.exr,ReadingArea_rsl0-rcl100-esl100-rsm0-rcm2-esm29-rsr0-rcr69-esr100.npz,,,,,0,199,199,259,,right,red,1.47,753.9084620475769,754.2571749687195,3,3,3,brightness,readingArea,realistic,75,2023-03-17_14h40.46.001,tripletExp_regina_11082022,2022.2.4,119.47711896996198,
2,6,0,0,0.25,0.298245614035088,0,0.027777777777778,1.0,0,0.027777777777778,0.298245614035088,ReadingArea_rsl0-rcl25-esl29-rsm0-rcm2-esm100-rsr0-rcr2-esr29,exr/ReadingArea_rsl0-rcl25-esl29-rsm0-rcm2-esm100-rsr0-rcr2-esr29.exr,ReadingArea_rsl0-rcl25-esl29-rsm0-rcm2-esm100-rsr0-rcr2-esr29.npz,,,,,0,200,200,525,,right,red,1.32,755.9591109752655,756.3061649799347,3,3,3,brightness,readingArea,realistic,75,2023-03-17_14h40.46.001,tripletExp_regina_11082022,2022.2.4,119.47711896996198,
8,1,6,0,0.25,1.0,0,0.111111111111111,0.298245614035088,0,0.027777777777778,1.0,ReadingArea_rsl0-rcl25-esl100-rsm0-rcm11-esm29-rsr0-rcr2-esr100,exr/ReadingArea_rsl0-rcl25-esl100-rsm0-rcm11-esm29-rsr0-rcr2-esr100.exr,ReadingArea_rsl0-rcl25-esl100-rsm0-rcm11-esm29-rsr0-rcr2-esr100.npz,,,,,0,201,201,62,,right,red,0.95,758.0295209884644,758.3823518753052,3,3,3,brightness,readingArea,realistic,75,2023-03-17_14h40.46.001,tripletExp_regina_11082022,2022.2.4,119.47711896996198,
10,1,13,0,0.694444444444444,1.0,0,0.111111111111111,0.298245614035088,0,0.111111111111111,3.10526315789474,ReadingArea_rsl0-rcl69-esl100-rsm0-rcm11-esm29-rsr0-rcr11-esr310,exr/ReadingArea_rsl0-rcl69-esl100-rsm0-rcm11-esm29-rsr0-rcr11-esr310.exr,ReadingArea_rsl0-rcl69-esl100-rsm0-rcm11-esm29-rsr0-rcr11-esr310.npz,,,,,0,202,202,45,,right,red,0.68,760.0843679904938,760.4325699806213,3,3,3,brightness,readingArea,realistic,75,2023-03-17_14h40.46.001,tripletExp_regina_11082022,2022.2.4,119.47711896996198,
8,10,7,0,0.25,1.0,0,0.694444444444444,1.0,0,0.111111111111111,1.0,ReadingArea_rsl0-rcl25-esl100-rsm0-rcm69-esm100-rsr0-rcr11-esr100,exr/ReadingArea_rsl0-rcl25-esl100-rsm0-rcm69-esm100-rsr0-rcr11-esr100.exr,ReadingArea_rsl0-rcl25-esl100-rsm0-rcm69-esm100-rsr0-rcr11-esr100.npz,,,,,0,203,203,424,,left,green,1.02,762.1348469257355,762.4901850223541,3,3,3,brightness,readingArea,realistic,75,2023-03-17_14h40.46.001,tripletExp_regina_11082022,2022.2.4,119.47711896996198,
14,2,7,0,0.25,3.10526315789474,0,0.25,0.298245614035088,0,0.111111111111111,1.0,ReadingArea_rsl0-rcl25-esl310-rsm0-rcm25-esm29-rsr0-rcr11-esr100,exr/ReadingArea_rsl0-rcl25-esl310-rsm0-rcm25-esm29-rsr0-rcr11-esr100.exr,ReadingArea_rsl0-rcl25-esl310-rsm0-rcm25-esm29-rsr0-rcr11-esr100.npz,,,,,0,204,204,569,,right,red,1.07,764.1984269618988,764.5507428646088,3,3,3,brightness,readingArea,realistic,75,2023-03-17_14h40.46.001,tripletExp_regina_11082022,2022.2.4,119.47711896996198,
