index_left,index_middle,index_right,reflectance_surround_left,reflectance_center_left,emission_spot_left,reflectance_surround_middle,reflectance_center_middle,emission_spot_middle,reflectance_surround_right,reflectance_center_right,emission_spot_right,ImageName,ImageExr,ImageNpy,trials_2.thisRepN,trials_2.thisTrialN,trials_2.thisN,trials_2.thisIndex,trials.thisRepN,trials.thisTrialN,trials.thisN,trials.thisIndex,sound_1.started,BB_Trial.resp,BB_Trial.color,BB_Trial.rt,text.started,text.stopped,block,sound_4.started,participant,session,L/B,scene,condition,nTrialsPerBlock,date,expName,psychopyVersion,frameRate,Unnamed: 41
14,5,10,0,0.25,3.10526315789474,0,1.0,0.298245614035088,0,0.694444444444444,1.0,ReadingArea_rsl0-rcl25-esl310-rsm0-rcm100-esm29-rsr0-rcr69-esr100,exr/ReadingArea_rsl0-rcl25-esl310-rsm0-rcm100-esm29-rsr0-rcr69-esr100.exr,ReadingArea_rsl0-rcl25-esl310-rsm0-rcm100-esm29-rsr0-rcr69-esr100.npz,,,,,0,0,0,170,166.1462660074234,left,green,4.57,180.91437411308289,167.55146408081055,1,,4,9,brightness,readingArea,realistic,75,2023-03-30_09h30.55.415,tripletExp_regina_11082022,2022.2.4,119.19801521554407,
7,3,0,0,0.111111111111111,1.0,0,0.444444444444444,0.298245614035088,0,0.027777777777778,0.298245614035088,ReadingArea_rsl0-rcl11-esl100-rsm0-rcm44-esm29-rsr0-rcr2-esr29,exr/ReadingArea_rsl0-rcl11-esl100-rsm0-rcm44-esm29-rsr0-rcr2-esr29.exr,ReadingArea_rsl0-rcl11-esl100-rsm0-rcm44-esm29-rsr0-rcr2-esr29.npz,,,,,0,1,1,318,,left,green,1.51,183.21680998802185,200.9739141464233,1,,4,9,brightness,readingArea,realistic,75,2023-03-30_09h30.55.415,tripletExp_regina_11082022,2022.2.4,119.19801521554407,
3,6,5,0,0.444444444444444,0.298245614035088,0,0.027777777777778,1.0,0,1.0,0.298245614035088,ReadingArea_rsl0-rcl44-esl29-rsm0-rcm2-esm100-rsr0-rcr100-esr29,exr/ReadingArea_rsl0-rcl44-esl29-rsm0-rcm2-esm100-rsr0-rcr100-esr29.exr,ReadingArea_rsl0-rcl44-esl29-rsm0-rcm2-esm100-rsr0-rcr100-esr29.npz,,,,,0,2,2,274,,left,green,2.68,204.4232630729676,204.8787660598755,1,,4,9,brightness,readingArea,realistic,75,2023-03-30_09h30.55.415,tripletExp_regina_11082022,2022.2.4,119.19801521554407,
2,11,14,0,0.25,0.298245614035088,0,1.0,1.0,0,0.25,3.10526315789474,ReadingArea_rsl0-rcl25-esl29-rsm0-rcm100-esm100-rsr0-rcr25-esr310,exr/ReadingArea_rsl0-rcl25-esl29-rsm0-rcm100-esm100-rsr0-rcr25-esr310.exr,ReadingArea_rsl0-rcl25-esl29-rsm0-rcm100-esm100-rsr0-rcr25-esr310.npz,,,,,0,3,3,534,,right,red,1.12,206.58951711654663,207.09117603302,1,,4,9,brightness,readingArea,realistic,75,2023-03-30_09h30.55.415,tripletExp_regina_11082022,2022.2.4,119.19801521554407,
9,11,6,0,0.444444444444444,1.0,0,1.0,1.0,0,0.027777777777778,1.0,ReadingArea_rsl0-rcl44-esl100-rsm0-rcm100-esm100-rsr0-rcr2-esr100,exr/ReadingArea_rsl0-rcl44-esl100-rsm0-rcm100-esm100-rsr0-rcr2-esr100.exr,ReadingArea_rsl0-rcl44-esl100-rsm0-rcm100-esm100-rsr0-rcr2-esr100.npz,,,,,0,4,4,404,,left,green,2.12,210.5676929950714,,1,,4,9,brightness,readingArea,realistic,75,2023-03-30_09h30.55.415,tripletExp_regina_11082022,2022.2.4,119.19801521554407,
14,8,5,0,0.25,3.10526315789474,0,0.25,1.0,0,1.0,0.298245614035088,ReadingArea_rsl0-rcl25-esl310-rsm0-rcm25-esm100-rsr0-rcr100-esr29,exr/ReadingArea_rsl0-rcl25-esl310-rsm0-rcm25-esm100-rsr0-rcr100-esr29.exr,ReadingArea_rsl0-rcl25-esl310-rsm0-rcm25-esm100-rsr0-rcr100-esr29.npz,,,,,0,5,5,28,,right,red,2.53,214.51777601242063,214.98197412490845,1,,4,9,brightness,readingArea,realistic,75,2023-03-30_09h30.55.415,tripletExp_regina_11082022,2022.2.4,119.19801521554407,
0,1,8,0,0.027777777777778,0.298245614035088,0,0.111111111111111,0.298245614035088,0,0.25,1.0,ReadingArea_rsl0-rcl2-esl29-rsm0-rcm11-esm29-rsr0-rcr25-esr100,exr/ReadingArea_rsl0-rcl2-esl29-rsm0-rcm11-esm29-rsr0-rcr25-esr100.exr,ReadingArea_rsl0-rcl2-esl29-rsm0-rcm11-esm29-rsr0-rcr25-esr100.npz,,,,,0,6,6,107,,left,green,2.37,218.4521460533142,,1,,4,9,brightness,readingArea,realistic,75,2023-03-30_09h30.55.415,tripletExp_regina_11082022,2022.2.4,119.19801521554407,
9,12,6,0,0.444444444444444,1.0,0,0.027777777777778,3.10526315789474,0,0.027777777777778,1.0,ReadingArea_rsl0-rcl44-esl100-rsm0-rcm2-esm310-rsr0-rcr2-esr100,exr/ReadingArea_rsl0-rcl44-esl100-rsm0-rcm2-esm310-rsr0-rcr2-esr100.exr,ReadingArea_rsl0-rcl44-esl100-rsm0-rcm2-esm310-rsr0-rcr2-esr100.npz,,,,,0,7,7,5,,right,red,1.5,220.62984895706177,221.18283414840693,1,,4,9,brightness,readingArea,realistic,75,2023-03-30_09h30.55.415,tripletExp_regina_11082022,2022.2.4,119.19801521554407,
14,13,2,0,0.25,3.10526315789474,0,0.111111111111111,3.10526315789474,0,0.25,0.298245614035088,ReadingArea_rsl0-rcl25-esl310-rsm0-rcm11-esm310-rsr0-rcr25-esr29,exr/ReadingArea_rsl0-rcl25-esl310-rsm0-rcm11-esm310-rsr0-rcr25-esr29.exr,ReadingArea_rsl0-rcl25-esl310-rsm0-rcm11-esm310-rsr0-rcr25-esr29.npz,,,,,0,8,8,377,,right,red,2.28,224.66276502609253,225.1472539901733,1,,4,9,brightness,readingArea,realistic,75,2023-03-30_09h30.55.415,tripletExp_regina_11082022,2022.2.4,119.19801521554407,
3,6,13,0,0.444444444444444,0.298245614035088,0,0.027777777777778,1.0,0,0.111111111111111,3.10526315789474,ReadingArea_rsl0-rcl44-esl29-rsm0-rcm2-esm100-rsr0-rcr11-esr310,exr/ReadingArea_rsl0-rcl44-esl29-rsm0-rcm2-esm100-rsr0-rcr11-esr310.exr,ReadingArea_rsl0-rcl44-esl29-rsm0-rcm2-esm100-rsr0-rcr11-esr310.npz,,,,,0,9,9,449,,left,green,2.29,228.59532403945923,,1,,4,9,brightness,readingArea,realistic,75,2023-03-30_09h30.55.415,tripletExp_regina_11082022,2022.2.4,119.19801521554407,
2,9,12,0,0.25,0.298245614035088,0,0.444444444444444,1.0,0,0.027777777777778,3.10526315789474,ReadingArea_rsl0-rcl25-esl29-rsm0-rcm44-esm100-rsr0-rcr2-esr310,exr/ReadingArea_rsl0-rcl25-esl29-rsm0-rcm44-esm100-rsr0-rcr2-esr310.exr,ReadingArea_rsl0-rcl25-esl29-rsm0-rcm44-esm100-rsr0-rcr2-esr310.npz,,,,,0,10,10,354,,left,green,3.93,234.3135659694672,,1,,4,9,brightness,readingArea,realistic,75,2023-03-30_09h30.55.415,tripletExp_regina_11082022,2022.2.4,119.19801521554407,
13,2,4,0,0.111111111111111,3.10526315789474,0,0.25,0.298245614035088,0,0.694444444444444,0.298245614035088,ReadingArea_rsl0-rcl11-esl310-rsm0-rcm25-esm29-rsr0-rcr69-esr29,exr/ReadingArea_rsl0-rcl11-esl310-rsm0-rcm25-esm29-rsr0-rcr69-esr29.exr,ReadingArea_rsl0-rcl11-esl310-rsm0-rcm25-esm29-rsr0-rcr69-esr29.npz,,,,,0,11,11,307,,right,red,4.65,240.08725810050964,240.6667640209198,1,,4,9,brightness,readingArea,realistic,75,2023-03-30_09h30.55.415,tripletExp_regina_11082022,2022.2.4,119.19801521554407,
13,7,6,0,0.111111111111111,3.10526315789474,0,0.111111111111111,1.0,0,0.027777777777778,1.0,ReadingArea_rsl0-rcl11-esl310-rsm0-rcm11-esm100-rsr0-rcr2-esr100,exr/ReadingArea_rsl0-rcl11-esl310-rsm0-rcm11-esm100-rsr0-rcr2-esr100.exr,ReadingArea_rsl0-rcl11-esl310-rsm0-rcm11-esm100-rsr0-rcr2-esr100.npz,,,,,0,12,12,283,,right,red,4.48,245.9108500480652,246.4687750339508,1,,4,9,brightness,readingArea,realistic,75,2023-03-30_09h30.55.415,tripletExp_regina_11082022,2022.2.4,119.19801521554407,
13,9,4,0,0.111111111111111,3.10526315789474,0,0.444444444444444,1.0,0,0.694444444444444,0.298245614035088,ReadingArea_rsl0-rcl11-esl310-rsm0-rcm44-esm100-rsr0-rcr69-esr29,exr/ReadingArea_rsl0-rcl11-esl310-rsm0-rcm44-esm100-rsr0-rcr69-esr29.exr,ReadingArea_rsl0-rcl11-esl310-rsm0-rcm44-esm100-rsr0-rcr69-esr29.npz,,,,,0,13,13,444,,left,green,4.39,251.67220497131348,252.0826320648193,1,,4,9,brightness,readingArea,realistic,75,2023-03-30_09h30.55.415,tripletExp_regina_11082022,2022.2.4,119.19801521554407,
4,8,0,0,0.694444444444444,0.298245614035088,0,0.25,1.0,0,0.027777777777778,0.298245614035088,ReadingArea_rsl0-rcl69-esl29-rsm0-rcm25-esm100-rsr0-rcr2-esr29,exr/ReadingArea_rsl0-rcl69-esl29-rsm0-rcm25-esm100-rsr0-rcr2-esr29.exr,ReadingArea_rsl0-rcl69-esl29-rsm0-rcm25-esm100-rsr0-rcr2-esr29.npz,,,,,0,14,14,137,,left,green,2.14,255.5571811199188,256.0320031642914,1,,4,9,brightness,readingArea,realistic,75,2023-03-30_09h30.55.415,tripletExp_regina_11082022,2022.2.4,119.19801521554407,
1,13,11,0,0.111111111111111,0.298245614035088,0,0.111111111111111,3.10526315789474,0,1.0,1.0,ReadingArea_rsl0-rcl11-esl29-rsm0-rcm11-esm310-rsr0-rcr100-esr100,exr/ReadingArea_rsl0-rcl11-esl29-rsm0-rcm11-esm310-rsr0-rcr100-esr100.exr,ReadingArea_rsl0-rcl11-esl29-rsm0-rcm11-esm310-rsr0-rcr100-esr100.npz,,,,,0,15,15,333,,left,green,4.29,261.3031361103058,261.7943329811096,1,,4,9,brightness,readingArea,realistic,75,2023-03-30_09h30.55.415,tripletExp_regina_11082022,2022.2.4,119.19801521554407,
7,10,4,0,0.111111111111111,1.0,0,0.694444444444444,1.0,0,0.694444444444444,0.298245614035088,ReadingArea_rsl0-rcl11-esl100-rsm0-rcm69-esm100-rsr0-rcr69-esr29,exr/ReadingArea_rsl0-rcl11-esl100-rsm0-rcm69-esm100-rsr0-rcr69-esr29.exr,ReadingArea_rsl0-rcl11-esl100-rsm0-rcm69-esm100-rsr0-rcr69-esr29.npz,,,,,0,16,16,46,,right,red,2.8,265.2693700790405,265.7581169605255,1,,4,9,brightness,readingArea,realistic,75,2023-03-30_09h30.55.415,tripletExp_regina_11082022,2022.2.4,119.19801521554407,
5,14,4,0,1.0,0.298245614035088,0,0.25,3.10526315789474,0,0.694444444444444,0.298245614035088,ReadingArea_rsl0-rcl100-esl29-rsm0-rcm25-esm310-rsr0-rcr69-esr29,exr/ReadingArea_rsl0-rcl100-esl29-rsm0-rcm25-esm310-rsr0-rcr69-esr29.exr,ReadingArea_rsl0-rcl100-esl29-rsm0-rcm25-esm310-rsr0-rcr69-esr29.npz,,,,,0,17,17,69,,left,green,3.96,270.9836659431457,271.4886600971222,1,,4,9,brightness,readingArea,realistic,75,2023-03-30_09h30.55.415,tripletExp_regina_11082022,2022.2.4,119.19801521554407,
4,10,11,0,0.694444444444444,0.298245614035088,0,0.694444444444444,1.0,0,1.0,1.0,ReadingArea_rsl0-rcl69-esl29-rsm0-rcm69-esm100-rsr0-rcr100-esr100,exr/ReadingArea_rsl0-rcl69-esl29-rsm0-rcm69-esm100-rsr0-rcr100-esr100.exr,ReadingArea_rsl0-rcl69-esl29-rsm0-rcm69-esm100-rsr0-rcr100-esr100.npz,,,,,0,18,18,180,,right,red,1.57,273.1785430908203,273.9310410022736,1,,4,9,brightness,readingArea,realistic,75,2023-03-30_09h30.55.415,tripletExp_regina_11082022,2022.2.4,119.19801521554407,
2,1,8,0,0.25,0.298245614035088,0,0.111111111111111,0.298245614035088,0,0.25,1.0,ReadingArea_rsl0-rcl25-esl29-rsm0-rcm11-esm29-rsr0-rcr25-esr100,exr/ReadingArea_rsl0-rcl25-esl29-rsm0-rcm11-esm29-rsr0-rcr25-esr100.exr,ReadingArea_rsl0-rcl25-esl29-rsm0-rcm11-esm29-rsr0-rcr25-esr100.npz,,,,,0,19,19,125,,left,green,2.94,277.3752529621124,277.8520209789276,1,,4,9,brightness,readingArea,realistic,75,2023-03-30_09h30.55.415,tripletExp_regina_11082022,2022.2.4,119.19801521554407,
14,8,2,0,0.25,3.10526315789474,0,0.25,1.0,0,0.25,0.298245614035088,ReadingArea_rsl0-rcl25-esl310-rsm0-rcm25-esm100-rsr0-rcr25-esr29,exr/ReadingArea_rsl0-rcl25-esl310-rsm0-rcm25-esm100-rsr0-rcr25-esr29.exr,ReadingArea_rsl0-rcl25-esl310-rsm0-rcm25-esm100-rsr0-rcr25-esr29.npz,,,,,0,20,20,251,,right,red,3.77,283.128937959671,,1,,4,9,brightness,readingArea,realistic,75,2023-03-30_09h30.55.415,tripletExp_regina_11082022,2022.2.4,119.19801521554407,
8,7,13,0,0.25,1.0,0,0.111111111111111,1.0,0,0.111111111111111,3.10526315789474,ReadingArea_rsl0-rcl25-esl100-rsm0-rcm11-esm100-rsr0-rcr11-esr310,exr/ReadingArea_rsl0-rcl25-esl100-rsm0-rcm11-esm100-rsr0-rcr11-esr310.exr,ReadingArea_rsl0-rcl25-esl100-rsm0-rcm11-esm100-rsr0-rcr11-esr310.npz,,,,,0,21,21,512,,left,green,2.78,287.06751799583435,287.5172190666199,1,,4,9,brightness,readingArea,realistic,75,2023-03-30_09h30.55.415,tripletExp_regina_11082022,2022.2.4,119.19801521554407,
1,9,8,0,0.111111111111111,0.298245614035088,0,0.444444444444444,1.0,0,0.25,1.0,ReadingArea_rsl0-rcl11-esl29-rsm0-rcm44-esm100-rsr0-rcr25-esr100,exr/ReadingArea_rsl0-rcl11-esl29-rsm0-rcm44-esm100-rsr0-rcr25-esr100.exr,ReadingArea_rsl0-rcl11-esl29-rsm0-rcm44-esm100-rsr0-rcr25-esr100.npz,,,,,0,22,22,268,,right,red,2.19,291.0184769630432,291.5179071426392,1,,4,9,brightness,readingArea,realistic,75,2023-03-30_09h30.55.415,tripletExp_regina_11082022,2022.2.4,119.19801521554407,
6,5,0,0,0.027777777777778,1.0,0,1.0,0.298245614035088,0,0.027777777777778,0.298245614035088,ReadingArea_rsl0-rcl2-esl100-rsm0-rcm100-esm29-rsr0-rcr2-esr29,exr/ReadingArea_rsl0-rcl2-esl100-rsm0-rcm100-esm29-rsr0-rcr2-esr29.exr,ReadingArea_rsl0-rcl2-esl100-rsm0-rcm100-esm29-rsr0-rcr2-esr29.npz,,,,,0,23,23,558,,left,green,3.01,294.9992530345917,295.49723196029663,1,,4,9,brightness,readingArea,realistic,75,2023-03-30_09h30.55.415,tripletExp_regina_11082022,2022.2.4,119.19801521554407,
14,3,4,0,0.25,3.10526315789474,0,0.444444444444444,0.298245614035088,0,0.694444444444444,0.298245614035088,ReadingArea_rsl0-rcl25-esl310-rsm0-rcm44-esm29-rsr0-rcr69-esr29,exr/ReadingArea_rsl0-rcl25-esl310-rsm0-rcm44-esm29-rsr0-rcr69-esr29.exr,ReadingArea_rsl0-rcl25-esl310-rsm0-rcm44-esm29-rsr0-rcr69-esr29.npz,,,,,0,24,24,127,,right,red,2.1,298.9741749763489,299.45108795166016,1,,4,9,brightness,readingArea,realistic,75,2023-03-30_09h30.55.415,tripletExp_regina_11082022,2022.2.4,119.19801521554407,
4,8,3,0,0.694444444444444,0.298245614035088,0,0.25,1.0,0,0.444444444444444,0.298245614035088,ReadingArea_rsl0-rcl69-esl29-rsm0-rcm25-esm100-rsr0-rcr44-esr29,exr/ReadingArea_rsl0-rcl69-esl29-rsm0-rcm25-esm100-rsr0-rcr44-esr29.exr,ReadingArea_rsl0-rcl69-esl29-rsm0-rcm25-esm100-rsr0-rcr44-esr29.npz,,,,,0,25,25,292,,left,green,2.83,302.9064590930939,303.37644815444946,1,,4,9,brightness,readingArea,realistic,75,2023-03-30_09h30.55.415,tripletExp_regina_11082022,2022.2.4,119.19801521554407,
11,8,7,0,1.0,1.0,0,0.25,1.0,0,0.111111111111111,1.0,ReadingArea_rsl0-rcl100-esl100-rsm0-rcm25-esm100-rsr0-rcr11-esr100,exr/ReadingArea_rsl0-rcl100-esl100-rsm0-rcm25-esm100-rsr0-rcr11-esr100.exr,ReadingArea_rsl0-rcl100-esl100-rsm0-rcm25-esm100-rsr0-rcr11-esr100.npz,,,,,0,26,26,105,,right,red,2.19,306.83924293518066,307.3109519481659,1,,4,9,brightness,readingArea,realistic,75,2023-03-30_09h30.55.415,tripletExp_regina_11082022,2022.2.4,119.19801521554407,
12,3,10,0,0.027777777777778,3.10526315789474,0,0.444444444444444,0.298245614035088,0,0.694444444444444,1.0,ReadingArea_rsl0-rcl2-esl310-rsm0-rcm44-esm29-rsr0-rcr69-esr100,exr/ReadingArea_rsl0-rcl2-esl310-rsm0-rcm44-esm29-rsr0-rcr69-esr100.exr,ReadingArea_rsl0-rcl2-esl310-rsm0-rcm44-esm29-rsr0-rcr69-esr100.npz,,,,,0,27,27,437,,left,green,2.0,310.7555890083313,311.39000701904297,1,,4,9,brightness,readingArea,realistic,75,2023-03-30_09h30.55.415,tripletExp_regina_11082022,2022.2.4,119.19801521554407,
8,10,6,0,0.25,1.0,0,0.694444444444444,1.0,0,0.027777777777778,1.0,ReadingArea_rsl0-rcl25-esl100-rsm0-rcm69-esm100-rsr0-rcr2-esr100,exr/ReadingArea_rsl0-rcl25-esl100-rsm0-rcm69-esm100-rsr0-rcr2-esr100.exr,ReadingArea_rsl0-rcl25-esl100-rsm0-rcm69-esm100-rsr0-rcr2-esr100.npz,,,,,0,28,28,129,,left,green,2.65,314.8577950000763,315.3227789402008,1,,4,9,brightness,readingArea,realistic,75,2023-03-30_09h30.55.415,tripletExp_regina_11082022,2022.2.4,119.19801521554407,
3,13,6,0,0.444444444444444,0.298245614035088,0,0.111111111111111,3.10526315789474,0,0.027777777777778,1.0,ReadingArea_rsl0-rcl44-esl29-rsm0-rcm11-esm310-rsr0-rcr2-esr100,exr/ReadingArea_rsl0-rcl44-esl29-rsm0-rcm11-esm310-rsr0-rcr2-esr100.exr,ReadingArea_rsl0-rcl44-esl29-rsm0-rcm11-esm310-rsr0-rcr2-esr100.npz,,,,,0,29,29,199,,left,green,2.08,318.8179659843445,,1,,4,9,brightness,readingArea,realistic,75,2023-03-30_09h30.55.415,tripletExp_regina_11082022,2022.2.4,119.19801521554407,
2,1,12,0,0.25,0.298245614035088,0,0.111111111111111,0.298245614035088,0,0.027777777777778,3.10526315789474,ReadingArea_rsl0-rcl25-esl29-rsm0-rcm11-esm29-rsr0-rcr2-esr310,exr/ReadingArea_rsl0-rcl25-esl29-rsm0-rcm11-esm29-rsr0-rcr2-esr310.exr,ReadingArea_rsl0-rcl25-esl29-rsm0-rcm11-esm29-rsr0-rcr2-esr310.npz,,,,,0,30,30,12,,left,green,3.08,322.7788710594177,323.258239030838,1,,4,9,brightness,readingArea,realistic,75,2023-03-30_09h30.55.415,tripletExp_regina_11082022,2022.2.4,119.19801521554407,
2,4,10,0,0.25,0.298245614035088,0,0.694444444444444,0.298245614035088,0,0.694444444444444,1.0,ReadingArea_rsl0-rcl25-esl29-rsm0-rcm69-esm29-rsr0-rcr69-esr100,exr/ReadingArea_rsl0-rcl25-esl29-rsm0-rcm69-esm29-rsr0-rcr69-esr100.exr,ReadingArea_rsl0-rcl25-esl29-rsm0-rcm69-esm29-rsr0-rcr69-esr100.npz,,,,,0,31,31,174,,right,red,1.31,324.95013308525085,325.4209201335907,1,,4,9,brightness,readingArea,realistic,75,2023-03-30_09h30.55.415,tripletExp_regina_11082022,2022.2.4,119.19801521554407,
13,6,12,0,0.111111111111111,3.10526315789474,0,0.027777777777778,1.0,0,0.027777777777778,3.10526315789474,ReadingArea_rsl0-rcl11-esl310-rsm0-rcm2-esm100-rsr0-rcr2-esr310,exr/ReadingArea_rsl0-rcl11-esl310-rsm0-rcm2-esm100-rsr0-rcr2-esr310.exr,ReadingArea_rsl0-rcl11-esl310-rsm0-rcm2-esm100-rsr0-rcr2-esr310.npz,,,,,0,32,32,147,,right,red,2.39,328.86910605430603,329.3809039592743,1,,4,9,brightness,readingArea,realistic,75,2023-03-30_09h30.55.415,tripletExp_regina_11082022,2022.2.4,119.19801521554407,
9,8,7,0,0.444444444444444,1.0,0,0.25,1.0,0,0.111111111111111,1.0,ReadingArea_rsl0-rcl44-esl100-rsm0-rcm25-esm100-rsr0-rcr11-esr100,exr/ReadingArea_rsl0-rcl44-esl100-rsm0-rcm25-esm100-rsr0-rcr11-esr100.exr,ReadingArea_rsl0-rcl44-esl100-rsm0-rcm25-esm100-rsr0-rcr11-esr100.npz,,,,,0,33,33,368,,right,red,2.65,332.88392901420593,333.36209201812744,1,,4,9,brightness,readingArea,realistic,75,2023-03-30_09h30.55.415,tripletExp_regina_11082022,2022.2.4,119.19801521554407,
7,9,3,0,0.111111111111111,1.0,0,0.444444444444444,1.0,0,0.444444444444444,0.298245614035088,ReadingArea_rsl0-rcl11-esl100-rsm0-rcm44-esm100-rsr0-rcr44-esr29,exr/ReadingArea_rsl0-rcl11-esl100-rsm0-rcm44-esm100-rsr0-rcr44-esr29.exr,ReadingArea_rsl0-rcl11-esl100-rsm0-rcm44-esm100-rsr0-rcr44-esr29.npz,,,,,0,34,34,311,,left,green,2.54,336.828458070755,337.29730010032654,1,,4,9,brightness,readingArea,realistic,75,2023-03-30_09h30.55.415,tripletExp_regina_11082022,2022.2.4,119.19801521554407,
8,14,6,0,0.25,1.0,0,0.25,3.10526315789474,0,0.027777777777778,1.0,ReadingArea_rsl0-rcl25-esl100-rsm0-rcm25-esm310-rsr0-rcr2-esr100,exr/ReadingArea_rsl0-rcl25-esl100-rsm0-rcm25-esm310-rsr0-rcr2-esr100.exr,ReadingArea_rsl0-rcl25-esl100-rsm0-rcm25-esm310-rsr0-rcr2-esr100.npz,,,,,0,35,35,469,,left,green,2.21,340.7755780220032,341.2431409358978,1,,4,9,brightness,readingArea,realistic,75,2023-03-30_09h30.55.415,tripletExp_regina_11082022,2022.2.4,119.19801521554407,
1,7,8,0,0.111111111111111,0.298245614035088,0,0.111111111111111,1.0,0,0.25,1.0,ReadingArea_rsl0-rcl11-esl29-rsm0-rcm11-esm100-rsr0-rcr25-esr100,exr/ReadingArea_rsl0-rcl11-esl29-rsm0-rcm11-esm100-rsr0-rcr25-esr100.exr,ReadingArea_rsl0-rcl11-esl29-rsm0-rcm11-esm100-rsr0-rcr25-esr100.npz,,,,,0,36,36,260,,right,red,4.65,346.4800250530243,346.93981099128723,1,,4,9,brightness,readingArea,realistic,75,2023-03-30_09h30.55.415,tripletExp_regina_11082022,2022.2.4,119.19801521554407,
2,3,13,0,0.25,0.298245614035088,0,0.444444444444444,0.298245614035088,0,0.111111111111111,3.10526315789474,ReadingArea_rsl0-rcl25-esl29-rsm0-rcm44-esm29-rsr0-rcr11-esr310,exr/ReadingArea_rsl0-rcl25-esl29-rsm0-rcm44-esm29-rsr0-rcr11-esr310.exr,ReadingArea_rsl0-rcl25-esl29-rsm0-rcm44-esm29-rsr0-rcr11-esr310.npz,,,,,0,37,37,498,,left,green,2.96,350.42037296295166,350.89275002479553,1,,4,9,brightness,readingArea,realistic,75,2023-03-30_09h30.55.415,tripletExp_regina_11082022,2022.2.4,119.19801521554407,
3,11,2,0,0.444444444444444,0.298245614035088,0,1.0,1.0,0,0.25,0.298245614035088,ReadingArea_rsl0-rcl44-esl29-rsm0-rcm100-esm100-rsr0-rcr25-esr29,exr/ReadingArea_rsl0-rcl44-esl29-rsm0-rcm100-esm100-rsr0-rcr25-esr29.exr,ReadingArea_rsl0-rcl44-esl29-rsm0-rcm100-esm100-rsr0-rcr25-esr29.npz,,,,,0,38,38,220,,left,green,4.63,356.13977003097534,356.6308579444885,1,,4,9,brightness,readingArea,realistic,75,2023-03-30_09h30.55.415,tripletExp_regina_11082022,2022.2.4,119.19801521554407,
8,12,7,0,0.25,1.0,0,0.027777777777778,3.10526315789474,0,0.111111111111111,1.0,ReadingArea_rsl0-rcl25-esl100-rsm0-rcm2-esm310-rsr0-rcr11-esr100,exr/ReadingArea_rsl0-rcl25-esl100-rsm0-rcm2-esm310-rsr0-rcr11-esr100.exr,ReadingArea_rsl0-rcl25-esl100-rsm0-rcm2-esm310-rsr0-rcr11-esr100.npz,,,,,0,39,39,467,,right,red,2.76,360.10272908210754,360.58568000793457,1,,4,9,brightness,readingArea,realistic,75,2023-03-30_09h30.55.415,tripletExp_regina_11082022,2022.2.4,119.19801521554407,
12,10,6,0,0.027777777777778,3.10526315789474,0,0.694444444444444,1.0,0,0.027777777777778,1.0,ReadingArea_rsl0-rcl2-esl310-rsm0-rcm69-esm100-rsr0-rcr2-esr100,exr/ReadingArea_rsl0-rcl2-esl310-rsm0-rcm69-esm100-rsr0-rcr2-esr100.exr,ReadingArea_rsl0-rcl2-esl310-rsm0-rcm69-esm100-rsr0-rcr2-esr100.npz,,,,,0,40,40,273,,left,green,2.05,364.05281615257263,364.522696018219,1,,4,9,brightness,readingArea,realistic,75,2023-03-30_09h30.55.415,tripletExp_regina_11082022,2022.2.4,119.19801521554407,
6,13,8,0,0.027777777777778,1.0,0,0.111111111111111,3.10526315789474,0,0.25,1.0,ReadingArea_rsl0-rcl2-esl100-rsm0-rcm11-esm310-rsr0-rcr25-esr100,exr/ReadingArea_rsl0-rcl2-esl100-rsm0-rcm11-esm310-rsr0-rcr25-esr100.exr,ReadingArea_rsl0-rcl2-esl100-rsm0-rcm11-esm310-rsr0-rcr25-esr100.npz,,,,,0,41,41,535,,right,red,1.04,366.2351701259613,366.7152500152588,1,,4,9,brightness,readingArea,realistic,75,2023-03-30_09h30.55.415,tripletExp_regina_11082022,2022.2.4,119.19801521554407,
13,12,11,0,0.111111111111111,3.10526315789474,0,0.027777777777778,3.10526315789474,0,1.0,1.0,ReadingArea_rsl0-rcl11-esl310-rsm0-rcm2-esm310-rsr0-rcr100-esr100,exr/ReadingArea_rsl0-rcl11-esl310-rsm0-rcm2-esm310-rsr0-rcr100-esr100.exr,ReadingArea_rsl0-rcl11-esl310-rsm0-rcm2-esm310-rsr0-rcr100-esr100.npz,,,,,0,42,42,441,,left,green,2.4,370.1953520774841,370.663507938385,1,,4,9,brightness,readingArea,realistic,75,2023-03-30_09h30.55.415,tripletExp_regina_11082022,2022.2.4,119.19801521554407,
3,4,11,0,0.444444444444444,0.298245614035088,0,0.694444444444444,0.298245614035088,0,1.0,1.0,ReadingArea_rsl0-rcl44-esl29-rsm0-rcm69-esm29-rsr0-rcr100-esr100,exr/ReadingArea_rsl0-rcl44-esl29-rsm0-rcm69-esm29-rsr0-rcr100-esr100.exr,ReadingArea_rsl0-rcl44-esl29-rsm0-rcm69-esm29-rsr0-rcr100-esr100.npz,,,,,0,43,43,207,,left,green,1.96,374.114452123642,374.5788941383362,1,,4,9,brightness,readingArea,realistic,75,2023-03-30_09h30.55.415,tripletExp_regina_11082022,2022.2.4,119.19801521554407,
3,1,0,0,0.444444444444444,0.298245614035088,0,0.111111111111111,0.298245614035088,0,0.027777777777778,0.298245614035088,ReadingArea_rsl0-rcl44-esl29-rsm0-rcm11-esm29-rsr0-rcr2-esr29,exr/ReadingArea_rsl0-rcl44-esl29-rsm0-rcm11-esm29-rsr0-rcr2-esr29.exr,ReadingArea_rsl0-rcl44-esl29-rsm0-rcm11-esm29-rsr0-rcr2-esr29.npz,,,,,0,44,44,343,,right,red,4.66,379.7866060733795,380.3002581596375,1,,4,9,brightness,readingArea,realistic,75,2023-03-30_09h30.55.415,tripletExp_regina_11082022,2022.2.4,119.19801521554407,
9,7,2,0,0.444444444444444,1.0,0,0.111111111111111,1.0,0,0.25,0.298245614035088,ReadingArea_rsl0-rcl44-esl100-rsm0-rcm11-esm100-rsr0-rcr25-esr29,exr/ReadingArea_rsl0-rcl44-esl100-rsm0-rcm11-esm100-rsr0-rcr25-esr29.exr,ReadingArea_rsl0-rcl44-esl100-rsm0-rcm11-esm100-rsr0-rcr25-esr29.npz,,,,,0,45,45,428,,right,red,2.04,383.7430441379547,384.2289831638336,1,,4,9,brightness,readingArea,realistic,75,2023-03-30_09h30.55.415,tripletExp_regina_11082022,2022.2.4,119.19801521554407,
10,3,6,0,0.694444444444444,1.0,0,0.444444444444444,0.298245614035088,0,0.027777777777778,1.0,ReadingArea_rsl0-rcl69-esl100-rsm0-rcm44-esm29-rsr0-rcr2-esr100,exr/ReadingArea_rsl0-rcl69-esl100-rsm0-rcm44-esm29-rsr0-rcr2-esr100.exr,ReadingArea_rsl0-rcl69-esl100-rsm0-rcm44-esm29-rsr0-rcr2-esr100.npz,,,,,0,46,46,261,,right,red,4.53,389.4426231384277,389.91751408576965,1,,4,9,brightness,readingArea,realistic,75,2023-03-30_09h30.55.415,tripletExp_regina_11082022,2022.2.4,119.19801521554407,
3,7,8,0,0.444444444444444,0.298245614035088,0,0.111111111111111,1.0,0,0.25,1.0,ReadingArea_rsl0-rcl44-esl29-rsm0-rcm11-esm100-rsr0-rcr25-esr100,exr/ReadingArea_rsl0-rcl44-esl29-rsm0-rcm11-esm100-rsr0-rcr25-esr100.exr,ReadingArea_rsl0-rcl44-esl29-rsm0-rcm11-esm100-rsr0-rcr25-esr100.npz,,,,,0,47,47,246,,left,green,3.79,395.1644630432129,395.73103308677673,1,,4,9,brightness,readingArea,realistic,75,2023-03-30_09h30.55.415,tripletExp_regina_11082022,2022.2.4,119.19801521554407,
12,7,2,0,0.027777777777778,3.10526315789474,0,0.111111111111111,1.0,0,0.25,0.298245614035088,ReadingArea_rsl0-rcl2-esl310-rsm0-rcm11-esm100-rsr0-rcr25-esr29,exr/ReadingArea_rsl0-rcl2-esl310-rsm0-rcm11-esm100-rsr0-rcr25-esr29.exr,ReadingArea_rsl0-rcl2-esl310-rsm0-rcm11-esm100-rsr0-rcr25-esr29.npz,,,,,0,48,48,248,,left,green,2.5,399.21134996414185,399.6850881576538,1,,4,9,brightness,readingArea,realistic,75,2023-03-30_09h30.55.415,tripletExp_regina_11082022,2022.2.4,119.19801521554407,
13,3,5,0,0.111111111111111,3.10526315789474,0,0.444444444444444,0.298245614035088,0,1.0,0.298245614035088,ReadingArea_rsl0-rcl11-esl310-rsm0-rcm44-esm29-rsr0-rcr100-esr29,exr/ReadingArea_rsl0-rcl11-esl310-rsm0-rcm44-esm29-rsr0-rcr100-esr29.exr,ReadingArea_rsl0-rcl11-esl310-rsm0-rcm44-esm29-rsr0-rcr100-esr29.npz,,,,,0,49,49,398,,left,green,4.59,404.92190408706665,405.39139699935913,1,,4,9,brightness,readingArea,realistic,75,2023-03-30_09h30.55.415,tripletExp_regina_11082022,2022.2.4,119.19801521554407,
2,1,10,0,0.25,0.298245614035088,0,0.111111111111111,0.298245614035088,0,0.694444444444444,1.0,ReadingArea_rsl0-rcl25-esl29-rsm0-rcm11-esm29-rsr0-rcr69-esr100,exr/ReadingArea_rsl0-rcl25-esl29-rsm0-rcm11-esm29-rsr0-rcr69-esr100.exr,ReadingArea_rsl0-rcl25-esl29-rsm0-rcm11-esm29-rsr0-rcr69-esr100.npz,,,,,0,50,50,585,,left,green,1.99,408.83535408973694,409.3228051662445,1,,4,9,brightness,readingArea,realistic,75,2023-03-30_09h30.55.415,tripletExp_regina_11082022,2022.2.4,119.19801521554407,
5,10,0,0,1.0,0.298245614035088,0,0.694444444444444,1.0,0,0.027777777777778,0.298245614035088,ReadingArea_rsl0-rcl100-esl29-rsm0-rcm69-esm100-rsr0-rcr2-esr29,exr/ReadingArea_rsl0-rcl100-esl29-rsm0-rcm69-esm100-rsr0-rcr2-esr29.exr,ReadingArea_rsl0-rcl100-esl29-rsm0-rcm69-esm100-rsr0-rcr2-esr29.npz,,,,,0,51,51,293,,left,green,2.12,412.7747001647949,,1,,4,9,brightness,readingArea,realistic,75,2023-03-30_09h30.55.415,tripletExp_regina_11082022,2022.2.4,119.19801521554407,
4,10,9,0,0.694444444444444,0.298245614035088,0,0.694444444444444,1.0,0,0.444444444444444,1.0,ReadingArea_rsl0-rcl69-esl29-rsm0-rcm69-esm100-rsr0-rcr44-esr100,exr/ReadingArea_rsl0-rcl69-esl29-rsm0-rcm69-esm100-rsr0-rcr44-esr100.exr,ReadingArea_rsl0-rcl69-esl29-rsm0-rcm69-esm100-rsr0-rcr44-esr100.npz,,,,,0,52,52,516,,right,red,2.92,416.740128993988,417.23300099372864,1,,4,9,brightness,readingArea,realistic,75,2023-03-30_09h30.55.415,tripletExp_regina_11082022,2022.2.4,119.19801521554407,
2,8,11,0,0.25,0.298245614035088,0,0.25,1.0,0,1.0,1.0,ReadingArea_rsl0-rcl25-esl29-rsm0-rcm25-esm100-rsr0-rcr100-esr100,exr/ReadingArea_rsl0-rcl25-esl29-rsm0-rcm25-esm100-rsr0-rcr100-esr100.exr,ReadingArea_rsl0-rcl25-esl29-rsm0-rcm25-esm100-rsr0-rcr100-esr100.npz,,,,,0,53,53,225,,left,green,3.56,420.73634600639343,421.2442870140076,1,,4,9,brightness,readingArea,realistic,75,2023-03-30_09h30.55.415,tripletExp_regina_11082022,2022.2.4,119.19801521554407,
13,14,7,0,0.111111111111111,3.10526315789474,0,0.25,3.10526315789474,0,0.111111111111111,1.0,ReadingArea_rsl0-rcl11-esl310-rsm0-rcm25-esm310-rsr0-rcr11-esr100,exr/ReadingArea_rsl0-rcl11-esl310-rsm0-rcm25-esm310-rsr0-rcr11-esr100.exr,ReadingArea_rsl0-rcl11-esl310-rsm0-rcm25-esm310-rsr0-rcr11-esr100.npz,,,,,0,54,54,324,,left,green,3.81,426.5016331672669,,1,,4,9,brightness,readingArea,realistic,75,2023-03-30_09h30.55.415,tripletExp_regina_11082022,2022.2.4,119.19801521554407,
1,5,14,0,0.111111111111111,0.298245614035088,0,1.0,0.298245614035088,0,0.25,3.10526315789474,ReadingArea_rsl0-rcl11-esl29-rsm0-rcm100-esm29-rsr0-rcr25-esr310,exr/ReadingArea_rsl0-rcl11-esl29-rsm0-rcm100-esm29-rsr0-rcr25-esr310.exr,ReadingArea_rsl0-rcl11-esl29-rsm0-rcm100-esm29-rsr0-rcr25-esr310.npz,,,,,0,55,55,191,,right,red,2.71,430.46447801589966,430.9139220714569,1,,4,9,brightness,readingArea,realistic,75,2023-03-30_09h30.55.415,tripletExp_regina_11082022,2022.2.4,119.19801521554407,
4,12,6,0,0.694444444444444,0.298245614035088,0,0.027777777777778,3.10526315789474,0,0.027777777777778,1.0,ReadingArea_rsl0-rcl69-esl29-rsm0-rcm2-esm310-rsr0-rcr2-esr100,exr/ReadingArea_rsl0-rcl69-esl29-rsm0-rcm2-esm310-rsr0-rcr2-esr100.exr,ReadingArea_rsl0-rcl69-esl29-rsm0-rcm2-esm310-rsr0-rcr2-esr100.npz,,,,,0,56,56,99,,right,red,4.23,436.1925001144409,436.6698579788208,1,,4,9,brightness,readingArea,realistic,75,2023-03-30_09h30.55.415,tripletExp_regina_11082022,2022.2.4,119.19801521554407,
7,14,11,0,0.111111111111111,1.0,0,0.25,3.10526315789474,0,1.0,1.0,ReadingArea_rsl0-rcl11-esl100-rsm0-rcm25-esm310-rsr0-rcr100-esr100,exr/ReadingArea_rsl0-rcl11-esl100-rsm0-rcm25-esm310-rsr0-rcr100-esr100.exr,ReadingArea_rsl0-rcl11-esl100-rsm0-rcm25-esm310-rsr0-rcr100-esr100.npz,,,,,0,57,57,252,,right,red,2.19,440.14948296546936,440.6329200267792,1,,4,9,brightness,readingArea,realistic,75,2023-03-30_09h30.55.415,tripletExp_regina_11082022,2022.2.4,119.19801521554407,
8,4,2,0,0.25,1.0,0,0.694444444444444,0.298245614035088,0,0.25,0.298245614035088,ReadingArea_rsl0-rcl25-esl100-rsm0-rcm69-esm29-rsr0-rcr25-esr29,exr/ReadingArea_rsl0-rcl25-esl100-rsm0-rcm69-esm29-rsr0-rcr25-esr29.exr,ReadingArea_rsl0-rcl25-esl100-rsm0-rcm69-esm29-rsr0-rcr25-esr29.npz,,,,,0,58,58,184,,left,green,1.96,444.1130080223084,,1,,4,9,brightness,readingArea,realistic,75,2023-03-30_09h30.55.415,tripletExp_regina_11082022,2022.2.4,119.19801521554407,
3,7,9,0,0.444444444444444,0.298245614035088,0,0.111111111111111,1.0,0,0.444444444444444,1.0,ReadingArea_rsl0-rcl44-esl29-rsm0-rcm11-esm100-rsr0-rcr44-esr100,exr/ReadingArea_rsl0-rcl44-esl29-rsm0-rcm11-esm100-rsr0-rcr44-esr100.exr,ReadingArea_rsl0-rcl44-esl29-rsm0-rcm11-esm100-rsr0-rcr44-esr100.npz,,,,,0,59,59,382,,left,green,2.22,448.0707859992981,448.5490579605103,1,,4,9,brightness,readingArea,realistic,75,2023-03-30_09h30.55.415,tripletExp_regina_11082022,2022.2.4,119.19801521554407,
13,8,5,0,0.111111111111111,3.10526315789474,0,0.25,1.0,0,1.0,0.298245614035088,ReadingArea_rsl0-rcl11-esl310-rsm0-rcm25-esm100-rsr0-rcr100-esr29,exr/ReadingArea_rsl0-rcl11-esl310-rsm0-rcm25-esm100-rsr0-rcr100-esr29.exr,ReadingArea_rsl0-rcl11-esl310-rsm0-rcm25-esm100-rsr0-rcr100-esr29.npz,,,,,0,60,60,209,,left,green,2.19,452.02660608291626,452.5243771076202,1,,4,9,brightness,readingArea,realistic,75,2023-03-30_09h30.55.415,tripletExp_regina_11082022,2022.2.4,119.19801521554407,
4,1,3,0,0.694444444444444,0.298245614035088,0,0.111111111111111,0.298245614035088,0,0.444444444444444,0.298245614035088,ReadingArea_rsl0-rcl69-esl29-rsm0-rcm11-esm29-rsr0-rcr44-esr29,exr/ReadingArea_rsl0-rcl69-esl29-rsm0-rcm11-esm29-rsr0-rcr44-esr29.exr,ReadingArea_rsl0-rcl69-esl29-rsm0-rcm11-esm29-rsr0-rcr44-esr29.npz,,,,,0,61,61,70,,right,red,3.69,457.7658989429474,458.25613594055176,1,,4,9,brightness,readingArea,realistic,75,2023-03-30_09h30.55.415,tripletExp_regina_11082022,2022.2.4,119.19801521554407,
2,1,13,0,0.25,0.298245614035088,0,0.111111111111111,0.298245614035088,0,0.111111111111111,3.10526315789474,ReadingArea_rsl0-rcl25-esl29-rsm0-rcm11-esm29-rsr0-rcr11-esr310,exr/ReadingArea_rsl0-rcl25-esl29-rsm0-rcm11-esm29-rsr0-rcr11-esr310.exr,ReadingArea_rsl0-rcl25-esl29-rsm0-rcm11-esm29-rsr0-rcr11-esr310.npz,,,,,0,62,62,290,,left,green,1.24,459.9779880046845,460.4470369815826,1,,4,9,brightness,readingArea,realistic,75,2023-03-30_09h30.55.415,tripletExp_regina_11082022,2022.2.4,119.19801521554407,
7,13,5,0,0.111111111111111,1.0,0,0.111111111111111,3.10526315789474,0,1.0,0.298245614035088,ReadingArea_rsl0-rcl11-esl100-rsm0-rcm11-esm310-rsr0-rcr100-esr29,exr/ReadingArea_rsl0-rcl11-esl100-rsm0-rcm11-esm310-rsr0-rcr100-esr29.exr,ReadingArea_rsl0-rcl11-esl100-rsm0-rcm11-esm310-rsr0-rcr100-esr29.npz,,,,,0,63,63,332,,right,red,2.14,463.896192073822,464.3590660095215,1,,4,9,brightness,readingArea,realistic,75,2023-03-30_09h30.55.415,tripletExp_regina_11082022,2022.2.4,119.19801521554407,
11,13,1,0,1.0,1.0,0,0.111111111111111,3.10526315789474,0,0.111111111111111,0.298245614035088,ReadingArea_rsl0-rcl100-esl100-rsm0-rcm11-esm310-rsr0-rcr11-esr29,exr/ReadingArea_rsl0-rcl100-esl100-rsm0-rcm11-esm310-rsr0-rcr11-esr29.exr,ReadingArea_rsl0-rcl100-esl100-rsm0-rcm11-esm310-rsr0-rcr11-esr29.npz,,,,,0,64,64,185,,right,red,2.75,467.8360450267792,468.3068239688873,1,,4,9,brightness,readingArea,realistic,75,2023-03-30_09h30.55.415,tripletExp_regina_11082022,2022.2.4,119.19801521554407,
2,8,4,0,0.25,0.298245614035088,0,0.25,1.0,0,0.694444444444444,0.298245614035088,ReadingArea_rsl0-rcl25-esl29-rsm0-rcm25-esm100-rsr0-rcr69-esr29,exr/ReadingArea_rsl0-rcl25-esl29-rsm0-rcm25-esm100-rsr0-rcr69-esr29.exr,ReadingArea_rsl0-rcl25-esl29-rsm0-rcm25-esm100-rsr0-rcr69-esr29.npz,,,,,0,65,65,507,,right,red,2.21,471.7801079750061,472.2491910457611,1,,4,9,brightness,readingArea,realistic,75,2023-03-30_09h30.55.415,tripletExp_regina_11082022,2022.2.4,119.19801521554407,
0,1,7,0,0.027777777777778,0.298245614035088,0,0.111111111111111,0.298245614035088,0,0.111111111111111,1.0,ReadingArea_rsl0-rcl2-esl29-rsm0-rcm11-esm29-rsr0-rcr11-esr100,exr/ReadingArea_rsl0-rcl2-esl29-rsm0-rcm11-esm29-rsr0-rcr11-esr100.exr,ReadingArea_rsl0-rcl2-esl29-rsm0-rcm11-esm29-rsr0-rcr11-esr100.npz,,,,,0,66,66,243,,right,red,2.16,475.7023241519928,476.1878020763397,1,,4,9,brightness,readingArea,realistic,75,2023-03-30_09h30.55.415,tripletExp_regina_11082022,2022.2.4,119.19801521554407,
0,4,6,0,0.027777777777778,0.298245614035088,0,0.694444444444444,0.298245614035088,0,0.027777777777778,1.0,ReadingArea_rsl0-rcl2-esl29-rsm0-rcm69-esm29-rsr0-rcr2-esr100,exr/ReadingArea_rsl0-rcl2-esl29-rsm0-rcm69-esm29-rsr0-rcr2-esr100.exr,ReadingArea_rsl0-rcl2-esl29-rsm0-rcm69-esm29-rsr0-rcr2-esr100.npz,,,,,0,67,67,49,,right,red,2.73,479.663880109787,480.1502561569214,1,,4,9,brightness,readingArea,realistic,75,2023-03-30_09h30.55.415,tripletExp_regina_11082022,2022.2.4,119.19801521554407,
12,6,9,0,0.027777777777778,3.10526315789474,0,0.027777777777778,1.0,0,0.444444444444444,1.0,ReadingArea_rsl0-rcl2-esl310-rsm0-rcm2-esm100-rsr0-rcr44-esr100,exr/ReadingArea_rsl0-rcl2-esl310-rsm0-rcm2-esm100-rsr0-rcr44-esr100.exr,ReadingArea_rsl0-rcl2-esl310-rsm0-rcm2-esm100-rsr0-rcr44-esr100.npz,,,,,0,68,68,177,,left,green,2.2,483.6165871620178,484.101438999176,1,,4,9,brightness,readingArea,realistic,75,2023-03-30_09h30.55.415,tripletExp_regina_11082022,2022.2.4,119.19801521554407,
2,1,14,0,0.25,0.298245614035088,0,0.111111111111111,0.298245614035088,0,0.25,3.10526315789474,ReadingArea_rsl0-rcl25-esl29-rsm0-rcm11-esm29-rsr0-rcr25-esr310,exr/ReadingArea_rsl0-rcl25-esl29-rsm0-rcm11-esm29-rsr0-rcr25-esr310.exr,ReadingArea_rsl0-rcl25-esl29-rsm0-rcm11-esm29-rsr0-rcr25-esr310.npz,,,,,0,69,69,59,,left,green,1.92,487.5675330162048,488.0381729602814,1,,4,9,brightness,readingArea,realistic,75,2023-03-30_09h30.55.415,tripletExp_regina_11082022,2022.2.4,119.19801521554407,
12,13,14,0,0.027777777777778,3.10526315789474,0,0.111111111111111,3.10526315789474,0,0.25,3.10526315789474,ReadingArea_rsl0-rcl2-esl310-rsm0-rcm11-esm310-rsr0-rcr25-esr310,exr/ReadingArea_rsl0-rcl2-esl310-rsm0-rcm11-esm310-rsr0-rcr25-esr310.exr,ReadingArea_rsl0-rcl2-esl310-rsm0-rcm11-esm310-rsr0-rcr25-esr310.npz,,,,,0,70,70,208,,left,green,4.14,493.281681060791,493.7532410621643,1,,4,9,brightness,readingArea,realistic,75,2023-03-30_09h30.55.415,tripletExp_regina_11082022,2022.2.4,119.19801521554407,
7,14,10,0,0.111111111111111,1.0,0,0.25,3.10526315789474,0,0.694444444444444,1.0,ReadingArea_rsl0-rcl11-esl100-rsm0-rcm25-esm310-rsr0-rcr69-esr100,exr/ReadingArea_rsl0-rcl11-esl100-rsm0-rcm25-esm310-rsr0-rcr69-esr100.exr,ReadingArea_rsl0-rcl11-esl100-rsm0-rcm25-esm310-rsr0-rcr69-esr100.npz,,,,,0,71,71,472,,right,red,2.05,497.1974949836731,497.64247703552246,1,,4,9,brightness,readingArea,realistic,75,2023-03-30_09h30.55.415,tripletExp_regina_11082022,2022.2.4,119.19801521554407,
9,3,0,0,0.444444444444444,1.0,0,0.444444444444444,0.298245614035088,0,0.027777777777778,0.298245614035088,ReadingArea_rsl0-rcl44-esl100-rsm0-rcm44-esm29-rsr0-rcr2-esr29,exr/ReadingArea_rsl0-rcl44-esl100-rsm0-rcm44-esm29-rsr0-rcr2-esr29.exr,ReadingArea_rsl0-rcl44-esl100-rsm0-rcm44-esm29-rsr0-rcr2-esr29.npz,,,,,0,72,72,120,,left,green,2.77,501.14455103874207,501.632089138031,1,,4,9,brightness,readingArea,realistic,75,2023-03-30_09h30.55.415,tripletExp_regina_11082022,2022.2.4,119.19801521554407,
7,4,1,0,0.111111111111111,1.0,0,0.694444444444444,0.298245614035088,0,0.111111111111111,0.298245614035088,ReadingArea_rsl0-rcl11-esl100-rsm0-rcm69-esm29-rsr0-rcr11-esr29,exr/ReadingArea_rsl0-rcl11-esl100-rsm0-rcm69-esm29-rsr0-rcr11-esr29.exr,ReadingArea_rsl0-rcl11-esl100-rsm0-rcm69-esm29-rsr0-rcr11-esr29.npz,,,,,0,73,73,369,,left,green,2.72,505.1130120754242,505.5565831661224,1,,4,9,brightness,readingArea,realistic,75,2023-03-30_09h30.55.415,tripletExp_regina_11082022,2022.2.4,119.19801521554407,
2,5,3,0,0.25,0.298245614035088,0,1.0,0.298245614035088,0,0.444444444444444,0.298245614035088,ReadingArea_rsl0-rcl25-esl29-rsm0-rcm100-esm29-rsr0-rcr44-esr29,exr/ReadingArea_rsl0-rcl25-esl29-rsm0-rcm100-esm29-rsr0-rcr44-esr29.exr,ReadingArea_rsl0-rcl25-esl29-rsm0-rcm100-esm29-rsr0-rcr44-esr29.npz,,,,,0,74,74,135,,right,red,2.08,509.0043339729309,509.2050130367279,1,,4,9,brightness,readingArea,realistic,75,2023-03-30_09h30.55.415,tripletExp_regina_11082022,2022.2.4,119.19801521554407,
2,11,5,0,0.25,0.298245614035088,0,1.0,1.0,0,1.0,0.298245614035088,ReadingArea_rsl0-rcl25-esl29-rsm0-rcm100-esm100-rsr0-rcr100-esr29,exr/ReadingArea_rsl0-rcl25-esl29-rsm0-rcm100-esm100-rsr0-rcr100-esr29.exr,ReadingArea_rsl0-rcl25-esl29-rsm0-rcm100-esm100-rsr0-rcr100-esr29.npz,,,,,0,75,75,491,,right,red,2.24,580.4027140140533,580.8887720108032,2,,4,9,brightness,readingArea,realistic,75,2023-03-30_09h30.55.415,tripletExp_regina_11082022,2022.2.4,119.19801521554407,
10,0,8,0,0.694444444444444,1.0,0,0.027777777777778,0.298245614035088,0,0.25,1.0,ReadingArea_rsl0-rcl69-esl100-rsm0-rcm2-esm29-rsr0-rcr25-esr100,exr/ReadingArea_rsl0-rcl69-esl100-rsm0-rcm2-esm29-rsr0-rcr25-esr100.exr,ReadingArea_rsl0-rcl69-esl100-rsm0-rcm2-esm29-rsr0-rcr25-esr100.npz,,,,,0,76,76,552,,right,red,2.2,584.3822901248932,584.8572659492493,2,,4,9,brightness,readingArea,realistic,75,2023-03-30_09h30.55.415,tripletExp_regina_11082022,2022.2.4,119.19801521554407,
9,0,3,0,0.444444444444444,1.0,0,0.027777777777778,0.298245614035088,0,0.444444444444444,0.298245614035088,ReadingArea_rsl0-rcl44-esl100-rsm0-rcm2-esm29-rsr0-rcr44-esr29,exr/ReadingArea_rsl0-rcl44-esl100-rsm0-rcm2-esm29-rsr0-rcr44-esr29.exr,ReadingArea_rsl0-rcl44-esl100-rsm0-rcm2-esm29-rsr0-rcr44-esr29.npz,,,,,0,77,77,2,,right,red,2.15,588.3561339378357,588.8369660377502,2,,4,9,brightness,readingArea,realistic,75,2023-03-30_09h30.55.415,tripletExp_regina_11082022,2022.2.4,119.19801521554407,
5,3,0,0,1.0,0.298245614035088,0,0.444444444444444,0.298245614035088,0,0.027777777777778,0.298245614035088,ReadingArea_rsl0-rcl100-esl29-rsm0-rcm44-esm29-rsr0-rcr2-esr29,exr/ReadingArea_rsl0-rcl100-esl29-rsm0-rcm44-esm29-rsr0-rcr2-esr29.exr,ReadingArea_rsl0-rcl100-esl29-rsm0-rcm44-esm29-rsr0-rcr2-esr29.npz,,,,,0,78,78,303,,left,green,3.18,592.3166601657867,592.776221036911,2,,4,9,brightness,readingArea,realistic,75,2023-03-30_09h30.55.415,tripletExp_regina_11082022,2022.2.4,119.19801521554407,
8,6,0,0,0.25,1.0,0,0.027777777777778,1.0,0,0.027777777777778,0.298245614035088,ReadingArea_rsl0-rcl25-esl100-rsm0-rcm2-esm100-rsr0-rcr2-esr29,exr/ReadingArea_rsl0-rcl25-esl100-rsm0-rcm2-esm100-rsr0-rcr2-esr29.exr,ReadingArea_rsl0-rcl25-esl100-rsm0-rcm2-esm100-rsr0-rcr2-esr29.npz,,,,,0,79,79,187,,right,red,1.78,594.4668140411377,594.9153730869293,2,,4,9,brightness,readingArea,realistic,75,2023-03-30_09h30.55.415,tripletExp_regina_11082022,2022.2.4,119.19801521554407,
4,8,14,0,0.694444444444444,0.298245614035088,0,0.25,1.0,0,0.25,3.10526315789474,ReadingArea_rsl0-rcl69-esl29-rsm0-rcm25-esm100-rsr0-rcr25-esr310,exr/ReadingArea_rsl0-rcl69-esl29-rsm0-rcm25-esm100-rsr0-rcr25-esr310.exr,ReadingArea_rsl0-rcl69-esl29-rsm0-rcm25-esm100-rsr0-rcr25-esr310.npz,,,,,0,80,80,234,,left,green,1.89,598.421483039856,599.1453311443329,2,,4,9,brightness,readingArea,realistic,75,2023-03-30_09h30.55.415,tripletExp_regina_11082022,2022.2.4,119.19801521554407,
1,10,0,0,0.111111111111111,0.298245614035088,0,0.694444444444444,1.0,0,0.027777777777778,0.298245614035088,ReadingArea_rsl0-rcl11-esl29-rsm0-rcm69-esm100-rsr0-rcr2-esr29,exr/ReadingArea_rsl0-rcl11-esl29-rsm0-rcm69-esm100-rsr0-rcr2-esr29.exr,ReadingArea_rsl0-rcl11-esl29-rsm0-rcm69-esm100-rsr0-rcr2-esr29.npz,,,,,0,81,81,196,,left,green,2.86,602.614217042923,603.1006081104279,2,,4,9,brightness,readingArea,realistic,75,2023-03-30_09h30.55.415,tripletExp_regina_11082022,2022.2.4,119.19801521554407,
2,13,3,0,0.25,0.298245614035088,0,0.111111111111111,3.10526315789474,0,0.444444444444444,0.298245614035088,ReadingArea_rsl0-rcl25-esl29-rsm0-rcm11-esm310-rsr0-rcr44-esr29,exr/ReadingArea_rsl0-rcl25-esl29-rsm0-rcm11-esm310-rsr0-rcr44-esr29.exr,ReadingArea_rsl0-rcl25-esl29-rsm0-rcm11-esm310-rsr0-rcr44-esr29.npz,,,,,0,82,82,473,,right,red,2.43,606.5822601318359,607.0672199726105,2,,4,9,brightness,readingArea,realistic,75,2023-03-30_09h30.55.415,tripletExp_regina_11082022,2022.2.4,119.19801521554407,
2,3,4,0,0.25,0.298245614035088,0,0.444444444444444,0.298245614035088,0,0.694444444444444,0.298245614035088,ReadingArea_rsl0-rcl25-esl29-rsm0-rcm44-esm29-rsr0-rcr69-esr29,exr/ReadingArea_rsl0-rcl25-esl29-rsm0-rcm44-esm29-rsr0-rcr69-esr29.exr,ReadingArea_rsl0-rcl25-esl29-rsm0-rcm44-esm29-rsr0-rcr69-esr29.npz,,,,,0,83,83,61,,left,green,2.51,610.5387060642242,,2,,4,9,brightness,readingArea,realistic,75,2023-03-30_09h30.55.415,tripletExp_regina_11082022,2022.2.4,119.19801521554407,
12,6,7,0,0.027777777777778,3.10526315789474,0,0.027777777777778,1.0,0,0.111111111111111,1.0,ReadingArea_rsl0-rcl2-esl310-rsm0-rcm2-esm100-rsr0-rcr11-esr100,exr/ReadingArea_rsl0-rcl2-esl310-rsm0-rcm2-esm100-rsr0-rcr11-esr100.exr,ReadingArea_rsl0-rcl2-esl310-rsm0-rcm2-esm100-rsr0-rcr11-esr100.npz,,,,,0,84,84,308,,left,green,4.55,616.2362959384918,616.7150220870972,2,,4,9,brightness,readingArea,realistic,75,2023-03-30_09h30.55.415,tripletExp_regina_11082022,2022.2.4,119.19801521554407,
4,12,7,0,0.694444444444444,0.298245614035088,0,0.027777777777778,3.10526315789474,0,0.111111111111111,1.0,ReadingArea_rsl0-rcl69-esl29-rsm0-rcm2-esm310-rsr0-rcr11-esr100,exr/ReadingArea_rsl0-rcl69-esl29-rsm0-rcm2-esm310-rsr0-rcr11-esr100.exr,ReadingArea_rsl0-rcl69-esl29-rsm0-rcm2-esm310-rsr0-rcr11-esr100.npz,,,,,0,85,85,112,,right,red,2.99,620.1865949630737,620.6562139987946,2,,4,9,brightness,readingArea,realistic,75,2023-03-30_09h30.55.415,tripletExp_regina_11082022,2022.2.4,119.19801521554407,
1,11,14,0,0.111111111111111,0.298245614035088,0,1.0,1.0,0,0.25,3.10526315789474,ReadingArea_rsl0-rcl11-esl29-rsm0-rcm100-esm100-rsr0-rcr25-esr310,exr/ReadingArea_rsl0-rcl11-esl29-rsm0-rcm100-esm100-rsr0-rcr25-esr310.exr,ReadingArea_rsl0-rcl11-esl29-rsm0-rcm100-esm100-rsr0-rcr25-esr310.npz,,,,,0,86,86,399,,right,red,1.29,622.379979133606,622.8430500030518,2,,4,9,brightness,readingArea,realistic,75,2023-03-30_09h30.55.415,tripletExp_regina_11082022,2022.2.4,119.19801521554407,
8,0,4,0,0.25,1.0,0,0.027777777777778,0.298245614035088,0,0.694444444444444,0.298245614035088,ReadingArea_rsl0-rcl25-esl100-rsm0-rcm2-esm29-rsr0-rcr69-esr29,exr/ReadingArea_rsl0-rcl25-esl100-rsm0-rcm2-esm29-rsr0-rcr69-esr29.exr,ReadingArea_rsl0-rcl25-esl100-rsm0-rcm2-esm29-rsr0-rcr69-esr29.npz,,,,,0,87,87,346,,right,red,4.02,628.0812239646912,628.5619430541992,2,,4,9,brightness,readingArea,realistic,75,2023-03-30_09h30.55.415,tripletExp_regina_11082022,2022.2.4,119.19801521554407,
7,1,9,0,0.111111111111111,1.0,0,0.111111111111111,0.298245614035088,0,0.444444444444444,1.0,ReadingArea_rsl0-rcl11-esl100-rsm0-rcm11-esm29-rsr0-rcr44-esr100,exr/ReadingArea_rsl0-rcl11-esl100-rsm0-rcm11-esm29-rsr0-rcr44-esr100.exr,ReadingArea_rsl0-rcl11-esl100-rsm0-rcm11-esm29-rsr0-rcr44-esr100.npz,,,,,0,88,88,89,,left,green,2.13,632.0383231639862,632.5119190216064,2,,4,9,brightness,readingArea,realistic,75,2023-03-30_09h30.55.415,tripletExp_regina_11082022,2022.2.4,119.19801521554407,
13,11,7,0,0.111111111111111,3.10526315789474,0,1.0,1.0,0,0.111111111111111,1.0,ReadingArea_rsl0-rcl11-esl310-rsm0-rcm100-esm100-rsr0-rcr11-esr100,exr/ReadingArea_rsl0-rcl11-esl310-rsm0-rcm100-esm100-rsr0-rcr11-esr100.exr,ReadingArea_rsl0-rcl11-esl310-rsm0-rcm100-esm100-rsr0-rcr11-esr100.npz,,,,,0,89,89,590,,left,green,2.23,635.9884090423584,636.4610569477081,2,,4,9,brightness,readingArea,realistic,75,2023-03-30_09h30.55.415,tripletExp_regina_11082022,2022.2.4,119.19801521554407,
9,4,6,0,0.444444444444444,1.0,0,0.694444444444444,0.298245614035088,0,0.027777777777778,1.0,ReadingArea_rsl0-rcl44-esl100-rsm0-rcm69-esm29-rsr0-rcr2-esr100,exr/ReadingArea_rsl0-rcl44-esl100-rsm0-rcm69-esm29-rsr0-rcr2-esr100.exr,ReadingArea_rsl0-rcl44-esl100-rsm0-rcm69-esm29-rsr0-rcr2-esr100.npz,,,,,0,90,90,453,,left,green,1.75,638.1607439517975,638.6346380710602,2,,4,9,brightness,readingArea,realistic,75,2023-03-30_09h30.55.415,tripletExp_regina_11082022,2022.2.4,119.19801521554407,
14,7,0,0,0.25,3.10526315789474,0,0.111111111111111,1.0,0,0.027777777777778,0.298245614035088,ReadingArea_rsl0-rcl25-esl310-rsm0-rcm11-esm100-rsr0-rcr2-esr29,exr/ReadingArea_rsl0-rcl25-esl310-rsm0-rcm11-esm100-rsr0-rcr2-esr29.exr,ReadingArea_rsl0-rcl25-esl310-rsm0-rcm11-esm100-rsr0-rcr2-esr29.npz,,,,,0,91,91,412,,right,red,2.22,642.1038229465485,642.5976769924164,2,,4,9,brightness,readingArea,realistic,75,2023-03-30_09h30.55.415,tripletExp_regina_11082022,2022.2.4,119.19801521554407,
4,2,0,0,0.694444444444444,0.298245614035088,0,0.25,0.298245614035088,0,0.027777777777778,0.298245614035088,ReadingArea_rsl0-rcl69-esl29-rsm0-rcm25-esm29-rsr0-rcr2-esr29,exr/ReadingArea_rsl0-rcl69-esl29-rsm0-rcm25-esm29-rsr0-rcr2-esr29.exr,ReadingArea_rsl0-rcl69-esl29-rsm0-rcm25-esm29-rsr0-rcr2-esr29.npz,,,,,0,92,92,71,,left,green,2.45,646.0931730270386,646.5876841545105,2,,4,9,brightness,readingArea,realistic,75,2023-03-30_09h30.55.415,tripletExp_regina_11082022,2022.2.4,119.19801521554407,
3,4,5,0,0.444444444444444,0.298245614035088,0,0.694444444444444,0.298245614035088,0,1.0,0.298245614035088,ReadingArea_rsl0-rcl44-esl29-rsm0-rcm69-esm29-rsr0-rcr100-esr29,exr/ReadingArea_rsl0-rcl44-esl29-rsm0-rcm69-esm29-rsr0-rcr100-esr29.exr,ReadingArea_rsl0-rcl44-esl29-rsm0-rcm69-esm29-rsr0-rcr100-esr29.npz,,,,,0,93,93,233,,right,red,2.62,650.0427219867706,650.5107271671295,2,,4,9,brightness,readingArea,realistic,75,2023-03-30_09h30.55.415,tripletExp_regina_11082022,2022.2.4,119.19801521554407,
6,2,5,0,0.027777777777778,1.0,0,0.25,0.298245614035088,0,1.0,0.298245614035088,ReadingArea_rsl0-rcl2-esl100-rsm0-rcm25-esm29-rsr0-rcr100-esr29,exr/ReadingArea_rsl0-rcl2-esl100-rsm0-rcm25-esm29-rsr0-rcr100-esr29.exr,ReadingArea_rsl0-rcl2-esl100-rsm0-rcm25-esm29-rsr0-rcr100-esr29.npz,,,,,0,94,94,504,,left,green,3.51,653.9648871421814,654.4531531333923,2,,4,9,brightness,readingArea,realistic,75,2023-03-30_09h30.55.415,tripletExp_regina_11082022,2022.2.4,119.19801521554407,
9,0,14,0,0.444444444444444,1.0,0,0.027777777777778,0.298245614035088,0,0.25,3.10526315789474,ReadingArea_rsl0-rcl44-esl100-rsm0-rcm2-esm29-rsr0-rcr25-esr310,exr/ReadingArea_rsl0-rcl44-esl100-rsm0-rcm2-esm29-rsr0-rcr25-esr310.exr,ReadingArea_rsl0-rcl44-esl100-rsm0-rcm2-esm29-rsr0-rcr25-esr310.npz,,,,,0,95,95,550,,left,green,2.34,657.9620730876923,658.4348320960999,2,,4,9,brightness,readingArea,realistic,75,2023-03-30_09h30.55.415,tripletExp_regina_11082022,2022.2.4,119.19801521554407,
11,8,10,0,1.0,1.0,0,0.25,1.0,0,0.694444444444444,1.0,ReadingArea_rsl0-rcl100-esl100-rsm0-rcm25-esm100-rsr0-rcr69-esr100,exr/ReadingArea_rsl0-rcl100-esl100-rsm0-rcm25-esm100-rsr0-rcr69-esr100.exr,ReadingArea_rsl0-rcl100-esl100-rsm0-rcm25-esm100-rsr0-rcr69-esr100.npz,,,,,0,96,96,67,,right,red,3.9,663.6606690883636,664.130872964859,2,,4,9,brightness,readingArea,realistic,75,2023-03-30_09h30.55.415,tripletExp_regina_11082022,2022.2.4,119.19801521554407,
4,8,7,0,0.694444444444444,0.298245614035088,0,0.25,1.0,0,0.111111111111111,1.0,ReadingArea_rsl0-rcl69-esl29-rsm0-rcm25-esm100-rsr0-rcr11-esr100,exr/ReadingArea_rsl0-rcl69-esl29-rsm0-rcm25-esm100-rsr0-rcr11-esr100.exr,ReadingArea_rsl0-rcl69-esl29-rsm0-rcm25-esm100-rsr0-rcr11-esr100.npz,,,,,0,97,97,461,,left,green,2.47,667.5885591506958,668.074933052063,2,,4,9,brightness,readingArea,realistic,75,2023-03-30_09h30.55.415,tripletExp_regina_11082022,2022.2.4,119.19801521554407,
0,10,14,0,0.027777777777778,0.298245614035088,0,0.694444444444444,1.0,0,0.25,3.10526315789474,ReadingArea_rsl0-rcl2-esl29-rsm0-rcm69-esm100-rsr0-rcr25-esr310,exr/ReadingArea_rsl0-rcl2-esl29-rsm0-rcm69-esm100-rsr0-rcr25-esr310.exr,ReadingArea_rsl0-rcl2-esl29-rsm0-rcm69-esm100-rsr0-rcr25-esr310.npz,,,,,0,98,98,31,,right,red,1.34,669.8004591464996,670.2871129512787,2,,4,9,brightness,readingArea,realistic,75,2023-03-30_09h30.55.415,tripletExp_regina_11082022,2022.2.4,119.19801521554407,
10,9,6,0,0.694444444444444,1.0,0,0.444444444444444,1.0,0,0.027777777777778,1.0,ReadingArea_rsl0-rcl69-esl100-rsm0-rcm44-esm100-rsr0-rcr2-esr100,exr/ReadingArea_rsl0-rcl69-esl100-rsm0-rcm44-esm100-rsr0-rcr2-esr100.exr,ReadingArea_rsl0-rcl69-esl100-rsm0-rcm44-esm100-rsr0-rcr2-esr100.npz,,,,,0,99,99,35,,left,green,2.09,673.7778511047363,674.3288769721985,2,,4,9,brightness,readingArea,realistic,75,2023-03-30_09h30.55.415,tripletExp_regina_11082022,2022.2.4,119.19801521554407,
7,0,2,0,0.111111111111111,1.0,0,0.027777777777778,0.298245614035088,0,0.25,0.298245614035088,ReadingArea_rsl0-rcl11-esl100-rsm0-rcm2-esm29-rsr0-rcr25-esr29,exr/ReadingArea_rsl0-rcl11-esl100-rsm0-rcm2-esm29-rsr0-rcr25-esr29.exr,ReadingArea_rsl0-rcl11-esl100-rsm0-rcm2-esm29-rsr0-rcr25-esr29.npz,,,,,0,100,100,347,,right,red,2.19,677.7758510112762,678.265692949295,2,,4,9,brightness,readingArea,realistic,75,2023-03-30_09h30.55.415,tripletExp_regina_11082022,2022.2.4,119.19801521554407,
10,12,11,0,0.694444444444444,1.0,0,0.027777777777778,3.10526315789474,0,1.0,1.0,ReadingArea_rsl0-rcl69-esl100-rsm0-rcm2-esm310-rsr0-rcr100-esr100,exr/ReadingArea_rsl0-rcl69-esl100-rsm0-rcm2-esm310-rsr0-rcr100-esr100.exr,ReadingArea_rsl0-rcl69-esl100-rsm0-rcm2-esm310-rsr0-rcr100-esr100.npz,,,,,0,101,101,317,,left,green,2.12,681.7630350589752,682.2338769435883,2,,4,9,brightness,readingArea,realistic,75,2023-03-30_09h30.55.415,tripletExp_regina_11082022,2022.2.4,119.19801521554407,
10,3,14,0,0.694444444444444,1.0,0,0.444444444444444,0.298245614035088,0,0.25,3.10526315789474,ReadingArea_rsl0-rcl69-esl100-rsm0-rcm44-esm29-rsr0-rcr25-esr310,exr/ReadingArea_rsl0-rcl69-esl100-rsm0-rcm44-esm29-rsr0-rcr25-esr310.exr,ReadingArea_rsl0-rcl69-esl100-rsm0-rcm44-esm29-rsr0-rcr25-esr310.npz,,,,,0,102,102,597,,left,green,2.18,685.7147531509399,686.2188069820404,2,,4,9,brightness,readingArea,realistic,75,2023-03-30_09h30.55.415,tripletExp_regina_11082022,2022.2.4,119.19801521554407,
8,13,2,0,0.25,1.0,0,0.111111111111111,3.10526315789474,0,0.25,0.298245614035088,ReadingArea_rsl0-rcl25-esl100-rsm0-rcm11-esm310-rsr0-rcr25-esr29,exr/ReadingArea_rsl0-rcl25-esl100-rsm0-rcm11-esm310-rsr0-rcr25-esr29.exr,ReadingArea_rsl0-rcl25-esl100-rsm0-rcm11-esm310-rsr0-rcr25-esr29.npz,,,,,0,103,103,376,,left,green,2.23,689.7099640369415,,2,,4,9,brightness,readingArea,realistic,75,2023-03-30_09h30.55.415,tripletExp_regina_11082022,2022.2.4,119.19801521554407,
9,4,11,0,0.444444444444444,1.0,0,0.694444444444444,0.298245614035088,0,1.0,1.0,ReadingArea_rsl0-rcl44-esl100-rsm0-rcm69-esm29-rsr0-rcr100-esr100,exr/ReadingArea_rsl0-rcl44-esl100-rsm0-rcm69-esm29-rsr0-rcr100-esr100.exr,ReadingArea_rsl0-rcl44-esl100-rsm0-rcm69-esm29-rsr0-rcr100-esr100.npz,,,,,0,104,104,133,,left,green,2.17,693.7794070243835,694.2693440914154,2,,4,9,brightness,readingArea,realistic,75,2023-03-30_09h30.55.415,tripletExp_regina_11082022,2022.2.4,119.19801521554407,
14,7,13,0,0.25,3.10526315789474,0,0.111111111111111,1.0,0,0.111111111111111,3.10526315789474,ReadingArea_rsl0-rcl25-esl310-rsm0-rcm11-esm100-rsr0-rcr11-esr310,exr/ReadingArea_rsl0-rcl25-esl310-rsm0-rcm11-esm100-rsr0-rcr11-esr310.exr,ReadingArea_rsl0-rcl25-esl310-rsm0-rcm11-esm100-rsr0-rcr11-esr310.npz,,,,,0,105,105,358,,right,red,2.17,697.7730929851532,698.2597601413727,2,,4,9,brightness,readingArea,realistic,75,2023-03-30_09h30.55.415,tripletExp_regina_11082022,2022.2.4,119.19801521554407,
14,2,7,0,0.25,3.10526315789474,0,0.25,0.298245614035088,0,0.111111111111111,1.0,ReadingArea_rsl0-rcl25-esl310-rsm0-rcm25-esm29-rsr0-rcr11-esr100,exr/ReadingArea_rsl0-rcl25-esl310-rsm0-rcm25-esm29-rsr0-rcr11-esr100.exr,ReadingArea_rsl0-rcl25-esl310-rsm0-rcm25-esm29-rsr0-rcr11-esr100.npz,,,,,0,106,106,569,,right,red,2.15,701.7172601222992,702.1948640346527,2,,4,9,brightness,readingArea,realistic,75,2023-03-30_09h30.55.415,tripletExp_regina_11082022,2022.2.4,119.19801521554407,
5,0,10,0,1.0,0.298245614035088,0,0.027777777777778,0.298245614035088,0,0.694444444444444,1.0,ReadingArea_rsl0-rcl100-esl29-rsm0-rcm2-esm29-rsr0-rcr69-esr100,exr/ReadingArea_rsl0-rcl100-esl29-rsm0-rcm2-esm29-rsr0-rcr69-esr100.exr,ReadingArea_rsl0-rcl100-esl29-rsm0-rcm2-esm29-rsr0-rcr69-esr100.npz,,,,,0,107,107,361,,left,green,2.1,705.6688621044159,706.1601021289825,2,,4,9,brightness,readingArea,realistic,75,2023-03-30_09h30.55.415,tripletExp_regina_11082022,2022.2.4,119.19801521554407,
12,14,4,0,0.027777777777778,3.10526315789474,0,0.25,3.10526315789474,0,0.694444444444444,0.298245614035088,ReadingArea_rsl0-rcl2-esl310-rsm0-rcm25-esm310-rsr0-rcr69-esr29,exr/ReadingArea_rsl0-rcl2-esl310-rsm0-rcm25-esm310-rsr0-rcr69-esr29.exr,ReadingArea_rsl0-rcl2-esl310-rsm0-rcm25-esm310-rsr0-rcr69-esr29.npz,,,,,0,108,108,315,,right,red,4.26,711.3949029445648,711.8659429550171,2,,4,9,brightness,readingArea,realistic,75,2023-03-30_09h30.55.415,tripletExp_regina_11082022,2022.2.4,119.19801521554407,
8,13,9,0,0.25,1.0,0,0.111111111111111,3.10526315789474,0,0.444444444444444,1.0,ReadingArea_rsl0-rcl25-esl100-rsm0-rcm11-esm310-rsr0-rcr44-esr100,exr/ReadingArea_rsl0-rcl25-esl100-rsm0-rcm11-esm310-rsr0-rcr44-esr100.exr,ReadingArea_rsl0-rcl25-esl100-rsm0-rcm11-esm310-rsr0-rcr44-esr100.npz,,,,,0,109,109,487,,left,green,4.06,717.1043519973755,717.7556970119476,2,,4,9,brightness,readingArea,realistic,75,2023-03-30_09h30.55.415,tripletExp_regina_11082022,2022.2.4,119.19801521554407,
13,4,12,0,0.111111111111111,3.10526315789474,0,0.694444444444444,0.298245614035088,0,0.027777777777778,3.10526315789474,ReadingArea_rsl0-rcl11-esl310-rsm0-rcm69-esm29-rsr0-rcr2-esr310,exr/ReadingArea_rsl0-rcl11-esl310-rsm0-rcm69-esm29-rsr0-rcr2-esr310.exr,ReadingArea_rsl0-rcl11-esl310-rsm0-rcm69-esm29-rsr0-rcr2-esr310.npz,,,,,0,110,110,122,,left,green,2.07,721.200679063797,721.6941759586334,2,,4,9,brightness,readingArea,realistic,75,2023-03-30_09h30.55.415,tripletExp_regina_11082022,2022.2.4,119.19801521554407,
7,13,4,0,0.111111111111111,1.0,0,0.111111111111111,3.10526315789474,0,0.694444444444444,0.298245614035088,ReadingArea_rsl0-rcl11-esl100-rsm0-rcm11-esm310-rsr0-rcr69-esr29,exr/ReadingArea_rsl0-rcl11-esl100-rsm0-rcm11-esm310-rsr0-rcr69-esr29.exr,ReadingArea_rsl0-rcl11-esl100-rsm0-rcm11-esm310-rsr0-rcr69-esr29.npz,,,,,0,111,111,456,,right,red,2.22,725.1592400074005,725.6405260562897,2,,4,9,brightness,readingArea,realistic,75,2023-03-30_09h30.55.415,tripletExp_regina_11082022,2022.2.4,119.19801521554407,
7,9,8,0,0.111111111111111,1.0,0,0.444444444444444,1.0,0,0.25,1.0,ReadingArea_rsl0-rcl11-esl100-rsm0-rcm44-esm100-rsr0-rcr25-esr100,exr/ReadingArea_rsl0-rcl11-esl100-rsm0-rcm44-esm100-rsr0-rcr25-esr100.exr,ReadingArea_rsl0-rcl11-esl100-rsm0-rcm44-esm100-rsr0-rcr25-esr100.npz,,,,,0,112,112,515,,right,red,2.33,729.0983200073242,729.6304819583893,2,,4,9,brightness,readingArea,realistic,75,2023-03-30_09h30.55.415,tripletExp_regina_11082022,2022.2.4,119.19801521554407,
5,2,0,0,1.0,0.298245614035088,0,0.25,0.298245614035088,0,0.027777777777778,0.298245614035088,ReadingArea_rsl0-rcl100-esl29-rsm0-rcm25-esm29-rsr0-rcr2-esr29,exr/ReadingArea_rsl0-rcl100-esl29-rsm0-rcm25-esm29-rsr0-rcr2-esr29.exr,ReadingArea_rsl0-rcl100-esl29-rsm0-rcm25-esm29-rsr0-rcr2-esr29.npz,,,,,0,113,113,476,,right,red,4.1,734.9070179462433,735.3860731124878,2,,4,9,brightness,readingArea,realistic,75,2023-03-30_09h30.55.415,tripletExp_regina_11082022,2022.2.4,119.19801521554407,
7,10,5,0,0.111111111111111,1.0,0,0.694444444444444,1.0,0,1.0,0.298245614035088,ReadingArea_rsl0-rcl11-esl100-rsm0-rcm69-esm100-rsr0-rcr100-esr29,exr/ReadingArea_rsl0-rcl11-esl100-rsm0-rcm69-esm100-rsr0-rcr100-esr29.exr,ReadingArea_rsl0-rcl11-esl100-rsm0-rcm69-esm100-rsr0-rcr100-esr29.npz,,,,,0,114,114,395,,right,red,2.29,738.8712120056152,739.351212978363,2,,4,9,brightness,readingArea,realistic,75,2023-03-30_09h30.55.415,tripletExp_regina_11082022,2022.2.4,119.19801521554407,
14,5,13,0,0.25,3.10526315789474,0,1.0,0.298245614035088,0,0.111111111111111,3.10526315789474,ReadingArea_rsl0-rcl25-esl310-rsm0-rcm100-esm29-rsr0-rcr11-esr310,exr/ReadingArea_rsl0-rcl25-esl310-rsm0-rcm100-esm29-rsr0-rcr11-esr310.exr,ReadingArea_rsl0-rcl25-esl310-rsm0-rcm100-esm29-rsr0-rcr11-esr310.npz,,,,,0,115,115,524,,right,red,2.15,742.7962889671326,743.275465965271,2,,4,9,brightness,readingArea,realistic,75,2023-03-30_09h30.55.415,tripletExp_regina_11082022,2022.2.4,119.19801521554407,
9,7,10,0,0.444444444444444,1.0,0,0.111111111111111,1.0,0,0.694444444444444,1.0,ReadingArea_rsl0-rcl44-esl100-rsm0-rcm11-esm100-rsr0-rcr69-esr100,exr/ReadingArea_rsl0-rcl44-esl100-rsm0-rcm11-esm100-rsr0-rcr69-esr100.exr,ReadingArea_rsl0-rcl44-esl100-rsm0-rcm11-esm100-rsr0-rcr69-esr100.npz,,,,,0,116,116,508,,left,green,1.96,746.7579500675201,747.2148430347443,2,,4,9,brightness,readingArea,realistic,75,2023-03-30_09h30.55.415,tripletExp_regina_11082022,2022.2.4,119.19801521554407,
10,6,8,0,0.694444444444444,1.0,0,0.027777777777778,1.0,0,0.25,1.0,ReadingArea_rsl0-rcl69-esl100-rsm0-rcm2-esm100-rsr0-rcr25-esr100,exr/ReadingArea_rsl0-rcl69-esl100-rsm0-rcm2-esm100-rsr0-rcr25-esr100.exr,ReadingArea_rsl0-rcl69-esl100-rsm0-rcm2-esm100-rsr0-rcr25-esr100.npz,,,,,0,117,117,145,,right,red,2.41,750.6871740818024,751.2443039417267,2,,4,9,brightness,readingArea,realistic,75,2023-03-30_09h30.55.415,tripletExp_regina_11082022,2022.2.4,119.19801521554407,
10,13,6,0,0.694444444444444,1.0,0,0.111111111111111,3.10526315789474,0,0.027777777777778,1.0,ReadingArea_rsl0-rcl69-esl100-rsm0-rcm11-esm310-rsr0-rcr2-esr100,exr/ReadingArea_rsl0-rcl69-esl100-rsm0-rcm11-esm310-rsr0-rcr2-esr100.exr,ReadingArea_rsl0-rcl69-esl100-rsm0-rcm11-esm310-rsr0-rcr2-esr100.npz,,,,,0,118,118,351,,right,red,2.24,754.6865010261536,,2,,4,9,brightness,readingArea,realistic,75,2023-03-30_09h30.55.415,tripletExp_regina_11082022,2022.2.4,119.19801521554407,
10,14,1,0,0.694444444444444,1.0,0,0.25,3.10526315789474,0,0.111111111111111,0.298245614035088,ReadingArea_rsl0-rcl69-esl100-rsm0-rcm25-esm310-rsr0-rcr11-esr29,exr/ReadingArea_rsl0-rcl69-esl100-rsm0-rcm25-esm310-rsr0-rcr11-esr29.exr,ReadingArea_rsl0-rcl69-esl100-rsm0-rcm25-esm310-rsr0-rcr11-esr29.npz,,,,,0,119,119,544,,left,green,1.52,756.8783459663391,,2,,4,9,brightness,readingArea,realistic,75,2023-03-30_09h30.55.415,tripletExp_regina_11082022,2022.2.4,119.19801521554407,
12,6,14,0,0.027777777777778,3.10526315789474,0,0.027777777777778,1.0,0,0.25,3.10526315789474,ReadingArea_rsl0-rcl2-esl310-rsm0-rcm2-esm100-rsr0-rcr25-esr310,exr/ReadingArea_rsl0-rcl2-esl310-rsm0-rcm2-esm100-rsr0-rcr25-esr310.exr,ReadingArea_rsl0-rcl2-esl310-rsm0-rcm2-esm100-rsr0-rcr25-esr310.npz,,,,,0,120,120,218,,left,green,3.4,760.8720271587372,761.4734780788422,2,,4,9,brightness,readingArea,realistic,75,2023-03-30_09h30.55.415,tripletExp_regina_11082022,2022.2.4,119.19801521554407,
5,9,0,0,1.0,0.298245614035088,0,0.444444444444444,1.0,0,0.027777777777778,0.298245614035088,ReadingArea_rsl0-rcl100-esl29-rsm0-rcm44-esm100-rsr0-rcr2-esr29,exr/ReadingArea_rsl0-rcl100-esl29-rsm0-rcm44-esm100-rsr0-rcr2-esr29.exr,ReadingArea_rsl0-rcl100-esl29-rsm0-rcm44-esm100-rsr0-rcr2-esr29.npz,,,,,0,121,121,575,,left,green,1.77,763.1613111495972,763.6338369846344,2,,4,9,brightness,readingArea,realistic,75,2023-03-30_09h30.55.415,tripletExp_regina_11082022,2022.2.4,119.19801521554407,
0,8,7,0,0.027777777777778,0.298245614035088,0,0.25,1.0,0,0.111111111111111,1.0,ReadingArea_rsl0-rcl2-esl29-rsm0-rcm25-esm100-rsr0-rcr11-esr100,exr/ReadingArea_rsl0-rcl2-esl29-rsm0-rcm25-esm100-rsr0-rcr11-esr100.exr,ReadingArea_rsl0-rcl2-esl29-rsm0-rcm25-esm100-rsr0-rcr11-esr100.npz,,,,,0,122,122,9,,right,red,2.59,767.1432349681854,767.6221179962158,2,,4,9,brightness,readingArea,realistic,75,2023-03-30_09h30.55.415,tripletExp_regina_11082022,2022.2.4,119.19801521554407,
4,11,14,0,0.694444444444444,0.298245614035088,0,1.0,1.0,0,0.25,3.10526315789474,ReadingArea_rsl0-rcl69-esl29-rsm0-rcm100-esm100-rsr0-rcr25-esr310,exr/ReadingArea_rsl0-rcl69-esl29-rsm0-rcm100-esm100-rsr0-rcr25-esr310.exr,ReadingArea_rsl0-rcl69-esl29-rsm0-rcm100-esm100-rsr0-rcr25-esr310.npz,,,,,0,123,123,165,,right,red,1.06,769.315171957016,769.7970659732819,2,,4,9,brightness,readingArea,realistic,75,2023-03-30_09h30.55.415,tripletExp_regina_11082022,2022.2.4,119.19801521554407,
13,6,2,0,0.111111111111111,3.10526315789474,0,0.027777777777778,1.0,0,0.25,0.298245614035088,ReadingArea_rsl0-rcl11-esl310-rsm0-rcm2-esm100-rsr0-rcr25-esr29,exr/ReadingArea_rsl0-rcl11-esl310-rsm0-rcm2-esm100-rsr0-rcr25-esr29.exr,ReadingArea_rsl0-rcl11-esl310-rsm0-rcm2-esm100-rsr0-rcr25-esr29.npz,,,,,0,124,124,115,,right,red,3.71,775.0246651172638,775.5119640827179,2,,4,9,brightness,readingArea,realistic,75,2023-03-30_09h30.55.415,tripletExp_regina_11082022,2022.2.4,119.19801521554407,
12,3,11,0,0.027777777777778,3.10526315789474,0,0.444444444444444,0.298245614035088,0,1.0,1.0,ReadingArea_rsl0-rcl2-esl310-rsm0-rcm44-esm29-rsr0-rcr100-esr100,exr/ReadingArea_rsl0-rcl2-esl310-rsm0-rcm44-esm29-rsr0-rcr100-esr100.exr,ReadingArea_rsl0-rcl2-esl310-rsm0-rcm44-esm29-rsr0-rcr100-esr100.npz,,,,,0,125,125,83,,left,green,1.72,777.210615158081,777.8540329933167,2,,4,9,brightness,readingArea,realistic,75,2023-03-30_09h30.55.415,tripletExp_regina_11082022,2022.2.4,119.19801521554407,
2,13,0,0,0.25,0.298245614035088,0,0.111111111111111,3.10526315789474,0,0.027777777777778,0.298245614035088,ReadingArea_rsl0-rcl25-esl29-rsm0-rcm11-esm310-rsr0-rcr2-esr29,exr/ReadingArea_rsl0-rcl25-esl29-rsm0-rcm11-esm310-rsr0-rcr2-esr29.exr,ReadingArea_rsl0-rcl25-esl29-rsm0-rcm11-esm310-rsr0-rcr2-esr29.npz,,,,,0,126,126,454,,left,green,4.76,783.0706701278687,783.5531129837036,2,,4,9,brightness,readingArea,realistic,75,2023-03-30_09h30.55.415,tripletExp_regina_11082022,2022.2.4,119.19801521554407,
10,11,0,0,0.694444444444444,1.0,0,1.0,1.0,0,0.027777777777778,0.298245614035088,ReadingArea_rsl0-rcl69-esl100-rsm0-rcm100-esm100-rsr0-rcr2-esr29,exr/ReadingArea_rsl0-rcl69-esl100-rsm0-rcm100-esm100-rsr0-rcr2-esr29.exr,ReadingArea_rsl0-rcl69-esl100-rsm0-rcm100-esm100-rsr0-rcr2-esr29.npz,,,,,0,127,127,58,,left,green,2.18,786.9953520298004,787.478844165802,2,,4,9,brightness,readingArea,realistic,75,2023-03-30_09h30.55.415,tripletExp_regina_11082022,2022.2.4,119.19801521554407,
2,6,10,0,0.25,0.298245614035088,0,0.027777777777778,1.0,0,0.694444444444444,1.0,ReadingArea_rsl0-rcl25-esl29-rsm0-rcm2-esm100-rsr0-rcr69-esr100,exr/ReadingArea_rsl0-rcl25-esl29-rsm0-rcm2-esm100-rsr0-rcr69-esr100.exr,ReadingArea_rsl0-rcl25-esl29-rsm0-rcm2-esm100-rsr0-rcr69-esr100.npz,,,,,0,128,128,42,,left,green,3.09,790.9258029460907,,2,,4,9,brightness,readingArea,realistic,75,2023-03-30_09h30.55.415,tripletExp_regina_11082022,2022.2.4,119.19801521554407,
14,6,5,0,0.25,3.10526315789474,0,0.027777777777778,1.0,0,1.0,0.298245614035088,ReadingArea_rsl0-rcl25-esl310-rsm0-rcm2-esm100-rsr0-rcr100-esr29,exr/ReadingArea_rsl0-rcl25-esl310-rsm0-rcm2-esm100-rsr0-rcr100-esr29.exr,ReadingArea_rsl0-rcl25-esl310-rsm0-rcm2-esm100-rsr0-rcr100-esr29.npz,,,,,0,129,129,297,,right,red,2.42,794.8808791637421,795.3505809307098,2,,4,9,brightness,readingArea,realistic,75,2023-03-30_09h30.55.415,tripletExp_regina_11082022,2022.2.4,119.19801521554407,
8,0,6,0,0.25,1.0,0,0.027777777777778,0.298245614035088,0,0.027777777777778,1.0,ReadingArea_rsl0-rcl25-esl100-rsm0-rcm2-esm29-rsr0-rcr2-esr100,exr/ReadingArea_rsl0-rcl25-esl100-rsm0-rcm2-esm29-rsr0-rcr2-esr100.exr,ReadingArea_rsl0-rcl25-esl100-rsm0-rcm2-esm29-rsr0-rcr2-esr100.npz,,,,,0,130,130,401,,right,red,2.15,798.8048610687256,799.3086080551147,2,,4,9,brightness,readingArea,realistic,75,2023-03-30_09h30.55.415,tripletExp_regina_11082022,2022.2.4,119.19801521554407,
0,9,10,0,0.027777777777778,0.298245614035088,0,0.444444444444444,1.0,0,0.694444444444444,1.0,ReadingArea_rsl0-rcl2-esl29-rsm0-rcm44-esm100-rsr0-rcr69-esr100,exr/ReadingArea_rsl0-rcl2-esl29-rsm0-rcm44-esm100-rsr0-rcr69-esr100.exr,ReadingArea_rsl0-rcl2-esl29-rsm0-rcm44-esm100-rsr0-rcr69-esr100.npz,,,,,0,131,131,434,,right,red,2.35,802.7808899879456,803.2671661376953,2,,4,9,brightness,readingArea,realistic,75,2023-03-30_09h30.55.415,tripletExp_regina_11082022,2022.2.4,119.19801521554407,
9,13,6,0,0.444444444444444,1.0,0,0.111111111111111,3.10526315789474,0,0.027777777777778,1.0,ReadingArea_rsl0-rcl44-esl100-rsm0-rcm11-esm310-rsr0-rcr2-esr100,exr/ReadingArea_rsl0-rcl44-esl100-rsm0-rcm11-esm310-rsr0-rcr2-esr100.exr,ReadingArea_rsl0-rcl44-esl100-rsm0-rcm11-esm310-rsr0-rcr2-esr100.npz,,,,,0,132,132,13,,left,green,2.04,806.770859003067,807.1947751045227,2,,4,9,brightness,readingArea,realistic,75,2023-03-30_09h30.55.415,tripletExp_regina_11082022,2022.2.4,119.19801521554407,
11,0,6,0,1.0,1.0,0,0.027777777777778,0.298245614035088,0,0.027777777777778,1.0,ReadingArea_rsl0-rcl100-esl100-rsm0-rcm2-esm29-rsr0-rcr2-esr100,exr/ReadingArea_rsl0-rcl100-esl100-rsm0-rcm2-esm29-rsr0-rcr2-esr100.exr,ReadingArea_rsl0-rcl100-esl100-rsm0-rcm2-esm29-rsr0-rcr2-esr100.npz,,,,,0,133,133,586,,right,red,2.01,810.6931140422821,811.1781599521637,2,,4,9,brightness,readingArea,realistic,75,2023-03-30_09h30.55.415,tripletExp_regina_11082022,2022.2.4,119.19801521554407,
7,9,5,0,0.111111111111111,1.0,0,0.444444444444444,1.0,0,1.0,0.298245614035088,ReadingArea_rsl0-rcl11-esl100-rsm0-rcm44-esm100-rsr0-rcr100-esr29,exr/ReadingArea_rsl0-rcl11-esl100-rsm0-rcm44-esm100-rsr0-rcr100-esr29.exr,ReadingArea_rsl0-rcl11-esl100-rsm0-rcm44-esm100-rsr0-rcr100-esr29.npz,,,,,0,134,134,291,,right,red,2.2,814.6578991413116,815.2442779541016,2,,4,9,brightness,readingArea,realistic,75,2023-03-30_09h30.55.415,tripletExp_regina_11082022,2022.2.4,119.19801521554407,
11,7,12,0,1.0,1.0,0,0.111111111111111,1.0,0,0.027777777777778,3.10526315789474,ReadingArea_rsl0-rcl100-esl100-rsm0-rcm11-esm100-rsr0-rcr2-esr310,exr/ReadingArea_rsl0-rcl100-esl100-rsm0-rcm11-esm100-rsr0-rcr2-esr310.exr,ReadingArea_rsl0-rcl100-esl100-rsm0-rcm11-esm100-rsr0-rcr2-esr310.npz,,,,,0,135,135,352,,right,red,2.15,818.725713968277,819.1992490291595,2,,4,9,brightness,readingArea,realistic,75,2023-03-30_09h30.55.415,tripletExp_regina_11082022,2022.2.4,119.19801521554407,
6,12,8,0,0.027777777777778,1.0,0,0.027777777777778,3.10526315789474,0,0.25,1.0,ReadingArea_rsl0-rcl2-esl100-rsm0-rcm2-esm310-rsr0-rcr25-esr100,exr/ReadingArea_rsl0-rcl2-esl100-rsm0-rcm2-esm310-rsr0-rcr25-esr100.exr,ReadingArea_rsl0-rcl2-esl100-rsm0-rcm2-esm310-rsr0-rcr25-esr100.npz,,,,,0,136,136,186,,left,green,4.57,824.4556360244751,,2,,4,9,brightness,readingArea,realistic,75,2023-03-30_09h30.55.415,tripletExp_regina_11082022,2022.2.4,119.19801521554407,
9,6,13,0,0.444444444444444,1.0,0,0.027777777777778,1.0,0,0.111111111111111,3.10526315789474,ReadingArea_rsl0-rcl44-esl100-rsm0-rcm2-esm100-rsr0-rcr11-esr310,exr/ReadingArea_rsl0-rcl44-esl100-rsm0-rcm2-esm100-rsr0-rcr11-esr310.exr,ReadingArea_rsl0-rcl44-esl100-rsm0-rcm2-esm100-rsr0-rcr11-esr310.npz,,,,,0,137,137,285,,right,red,2.96,828.4116971492767,828.8892030715942,2,,4,9,brightness,readingArea,realistic,75,2023-03-30_09h30.55.415,tripletExp_regina_11082022,2022.2.4,119.19801521554407,
2,1,3,0,0.25,0.298245614035088,0,0.111111111111111,0.298245614035088,0,0.444444444444444,0.298245614035088,ReadingArea_rsl0-rcl25-esl29-rsm0-rcm11-esm29-rsr0-rcr44-esr29,exr/ReadingArea_rsl0-rcl25-esl29-rsm0-rcm11-esm29-rsr0-rcr44-esr29.exr,ReadingArea_rsl0-rcl25-esl29-rsm0-rcm11-esm29-rsr0-rcr44-esr29.npz,,,,,0,138,138,85,,left,green,2.84,832.3541059494019,832.8440101146698,2,,4,9,brightness,readingArea,realistic,75,2023-03-30_09h30.55.415,tripletExp_regina_11082022,2022.2.4,119.19801521554407,
2,14,7,0,0.25,0.298245614035088,0,0.25,3.10526315789474,0,0.111111111111111,1.0,ReadingArea_rsl0-rcl25-esl29-rsm0-rcm25-esm310-rsr0-rcr11-esr100,exr/ReadingArea_rsl0-rcl25-esl29-rsm0-rcm25-esm310-rsr0-rcr11-esr100.exr,ReadingArea_rsl0-rcl25-esl29-rsm0-rcm25-esm310-rsr0-rcr11-esr100.npz,,,,,0,139,139,310,,left,green,4.69,838.094838142395,838.5866830348969,2,,4,9,brightness,readingArea,realistic,75,2023-03-30_09h30.55.415,tripletExp_regina_11082022,2022.2.4,119.19801521554407,
5,3,4,0,1.0,0.298245614035088,0,0.444444444444444,0.298245614035088,0,0.694444444444444,0.298245614035088,ReadingArea_rsl0-rcl100-esl29-rsm0-rcm44-esm29-rsr0-rcr69-esr29,exr/ReadingArea_rsl0-rcl100-esl29-rsm0-rcm44-esm29-rsr0-rcr69-esr29.exr,ReadingArea_rsl0-rcl100-esl29-rsm0-rcm44-esm29-rsr0-rcr69-esr29.npz,,,,,0,140,140,201,,right,red,2.62,842.0657451152802,842.5548119544983,2,,4,9,brightness,readingArea,realistic,75,2023-03-30_09h30.55.415,tripletExp_regina_11082022,2022.2.4,119.19801521554407,
1,14,5,0,0.111111111111111,0.298245614035088,0,0.25,3.10526315789474,0,1.0,0.298245614035088,ReadingArea_rsl0-rcl11-esl29-rsm0-rcm25-esm310-rsr0-rcr100-esr29,exr/ReadingArea_rsl0-rcl11-esl29-rsm0-rcm25-esm310-rsr0-rcr100-esr29.exr,ReadingArea_rsl0-rcl11-esl29-rsm0-rcm25-esm310-rsr0-rcr100-esr29.npz,,,,,0,141,141,509,,right,red,2.24,846.0352170467377,846.5100569725037,2,,4,9,brightness,readingArea,realistic,75,2023-03-30_09h30.55.415,tripletExp_regina_11082022,2022.2.4,119.19801521554407,
4,0,3,0,0.694444444444444,0.298245614035088,0,0.027777777777778,0.298245614035088,0,0.444444444444444,0.298245614035088,ReadingArea_rsl0-rcl69-esl29-rsm0-rcm2-esm29-rsr0-rcr44-esr29,exr/ReadingArea_rsl0-rcl69-esl29-rsm0-rcm2-esm29-rsr0-rcr44-esr29.exr,ReadingArea_rsl0-rcl69-esl29-rsm0-rcm2-esm29-rsr0-rcr44-esr29.npz,,,,,0,142,142,88,,right,red,3.7,851.7510061264038,852.3256120681763,2,,4,9,brightness,readingArea,realistic,75,2023-03-30_09h30.55.415,tripletExp_regina_11082022,2022.2.4,119.19801521554407,
5,10,12,0,1.0,0.298245614035088,0,0.694444444444444,1.0,0,0.027777777777778,3.10526315789474,ReadingArea_rsl0-rcl100-esl29-rsm0-rcm69-esm100-rsr0-rcr2-esr310,exr/ReadingArea_rsl0-rcl100-esl29-rsm0-rcm69-esm100-rsr0-rcr2-esr310.exr,ReadingArea_rsl0-rcl100-esl29-rsm0-rcm69-esm100-rsr0-rcr2-esr310.npz,,,,,0,143,143,587,,left,green,2.1,855.7695820331573,,2,,4,9,brightness,readingArea,realistic,75,2023-03-30_09h30.55.415,tripletExp_regina_11082022,2022.2.4,119.19801521554407,
1,10,7,0,0.111111111111111,0.298245614035088,0,0.694444444444444,1.0,0,0.111111111111111,1.0,ReadingArea_rsl0-rcl11-esl29-rsm0-rcm69-esm100-rsr0-rcr11-esr100,exr/ReadingArea_rsl0-rcl11-esl29-rsm0-rcm69-esm100-rsr0-rcr11-esr100.exr,ReadingArea_rsl0-rcl11-esl29-rsm0-rcm69-esm100-rsr0-rcr11-esr100.npz,,,,,0,144,144,94,,right,red,2.92,859.7142021656036,860.2008991241455,2,,4,9,brightness,readingArea,realistic,75,2023-03-30_09h30.55.415,tripletExp_regina_11082022,2022.2.4,119.19801521554407,
12,5,4,0,0.027777777777778,3.10526315789474,0,1.0,0.298245614035088,0,0.694444444444444,0.298245614035088,ReadingArea_rsl0-rcl2-esl310-rsm0-rcm100-esm29-rsr0-rcr69-esr29,exr/ReadingArea_rsl0-rcl2-esl310-rsm0-rcm100-esm29-rsr0-rcr69-esr29.exr,ReadingArea_rsl0-rcl2-esl310-rsm0-rcm100-esm29-rsr0-rcr69-esr29.npz,,,,,0,145,145,566,,right,red,2.16,863.6772291660309,864.1529040336609,2,,4,9,brightness,readingArea,realistic,75,2023-03-30_09h30.55.415,tripletExp_regina_11082022,2022.2.4,119.19801521554407,
13,0,4,0,0.111111111111111,3.10526315789474,0,0.027777777777778,0.298245614035088,0,0.694444444444444,0.298245614035088,ReadingArea_rsl0-rcl11-esl310-rsm0-rcm2-esm29-rsr0-rcr69-esr29,exr/ReadingArea_rsl0-rcl11-esl310-rsm0-rcm2-esm29-rsr0-rcr69-esr29.exr,ReadingArea_rsl0-rcl11-esl310-rsm0-rcm2-esm29-rsr0-rcr69-esr29.npz,,,,,0,146,146,270,,right,red,2.15,867.6298270225525,,2,,4,9,brightness,readingArea,realistic,75,2023-03-30_09h30.55.415,tripletExp_regina_11082022,2022.2.4,119.19801521554407,
6,11,8,0,0.027777777777778,1.0,0,1.0,1.0,0,0.25,1.0,ReadingArea_rsl0-rcl2-esl100-rsm0-rcm100-esm100-rsr0-rcr25-esr100,exr/ReadingArea_rsl0-rcl2-esl100-rsm0-rcm100-esm100-rsr0-rcr25-esr100.exr,ReadingArea_rsl0-rcl2-esl100-rsm0-rcm100-esm100-rsr0-rcr25-esr100.npz,,,,,0,147,147,176,,right,red,2.74,871.5750329494476,872.0367541313171,2,,4,9,brightness,readingArea,realistic,75,2023-03-30_09h30.55.415,tripletExp_regina_11082022,2022.2.4,119.19801521554407,
12,3,13,0,0.027777777777778,3.10526315789474,0,0.444444444444444,0.298245614035088,0,0.111111111111111,3.10526315789474,ReadingArea_rsl0-rcl2-esl310-rsm0-rcm44-esm29-rsr0-rcr11-esr310,exr/ReadingArea_rsl0-rcl2-esl310-rsm0-rcm44-esm29-rsr0-rcr11-esr310.exr,ReadingArea_rsl0-rcl2-esl310-rsm0-rcm44-esm29-rsr0-rcr11-esr310.npz,,,,,0,148,148,383,,,red,2.74,877.2595729827881,877.7382390499115,2,876.8975401163101,4,9,brightness,readingArea,realistic,75,2023-03-30_09h30.55.415,tripletExp_regina_11082022,2022.2.4,119.19801521554407,
6,11,7,0,0.027777777777778,1.0,0,1.0,1.0,0,0.111111111111111,1.0,ReadingArea_rsl0-rcl2-esl100-rsm0-rcm100-esm100-rsr0-rcr11-esr100,exr/ReadingArea_rsl0-rcl2-esl100-rsm0-rcm100-esm100-rsr0-rcr11-esr100.exr,ReadingArea_rsl0-rcl2-esl100-rsm0-rcm100-esm100-rsr0-rcr11-esr100.npz,,,,,0,149,149,571,,right,red,2.15,881.2074370384216,881.4134230613708,2,,4,9,brightness,readingArea,realistic,75,2023-03-30_09h30.55.415,tripletExp_regina_11082022,2022.2.4,119.19801521554407,
5,0,6,0,1.0,0.298245614035088,0,0.027777777777778,0.298245614035088,0,0.027777777777778,1.0,ReadingArea_rsl0-rcl100-esl29-rsm0-rcm2-esm29-rsr0-rcr2-esr100,exr/ReadingArea_rsl0-rcl100-esl29-rsm0-rcm2-esm29-rsr0-rcr2-esr100.exr,ReadingArea_rsl0-rcl100-esl29-rsm0-rcm2-esm29-rsr0-rcr2-esr100.npz,,,,,0,150,150,1,,right,red,2.11,988.6098909378052,989.081342935562,3,,4,9,brightness,readingArea,realistic,75,2023-03-30_09h30.55.415,tripletExp_regina_11082022,2022.2.4,119.19801521554407,
0,4,7,0,0.027777777777778,0.298245614035088,0,0.694444444444444,0.298245614035088,0,0.111111111111111,1.0,ReadingArea_rsl0-rcl2-esl29-rsm0-rcm69-esm29-rsr0-rcr11-esr100,exr/ReadingArea_rsl0-rcl2-esl29-rsm0-rcm69-esm29-rsr0-rcr11-esr100.exr,ReadingArea_rsl0-rcl2-esl29-rsm0-rcm69-esm29-rsr0-rcr11-esr100.npz,,,,,0,151,151,200,,right,red,2.18,992.536122083664,993.0369510650636,3,,4,9,brightness,readingArea,realistic,75,2023-03-30_09h30.55.415,tripletExp_regina_11082022,2022.2.4,119.19801521554407,
13,0,8,0,0.111111111111111,3.10526315789474,0,0.027777777777778,0.298245614035088,0,0.25,1.0,ReadingArea_rsl0-rcl11-esl310-rsm0-rcm2-esm29-rsr0-rcr25-esr100,exr/ReadingArea_rsl0-rcl11-esl310-rsm0-rcm2-esm29-rsr0-rcr25-esr100.exr,ReadingArea_rsl0-rcl11-esl310-rsm0-rcm2-esm29-rsr0-rcr25-esr100.npz,,,,,0,152,152,249,,right,red,2.14,996.5113191604614,997.0233581066132,3,,4,9,brightness,readingArea,realistic,75,2023-03-30_09h30.55.415,tripletExp_regina_11082022,2022.2.4,119.19801521554407,
6,12,7,0,0.027777777777778,1.0,0,0.027777777777778,3.10526315789474,0,0.111111111111111,1.0,ReadingArea_rsl0-rcl2-esl100-rsm0-rcm2-esm310-rsr0-rcr11-esr100,exr/ReadingArea_rsl0-rcl2-esl100-rsm0-rcm2-esm310-rsr0-rcr11-esr100.exr,ReadingArea_rsl0-rcl2-esl100-rsm0-rcm2-esm310-rsr0-rcr11-esr100.npz,,,,,0,153,153,157,,right,red,2.46,1000.5199069976808,1001.0209469795228,3,,4,9,brightness,readingArea,realistic,75,2023-03-30_09h30.55.415,tripletExp_regina_11082022,2022.2.4,119.19801521554407,
12,10,5,0,0.027777777777778,3.10526315789474,0,0.694444444444444,1.0,0,1.0,0.298245614035088,ReadingArea_rsl0-rcl2-esl310-rsm0-rcm69-esm100-rsr0-rcr100-esr29,exr/ReadingArea_rsl0-rcl2-esl310-rsm0-rcm69-esm100-rsr0-rcr100-esr29.exr,ReadingArea_rsl0-rcl2-esl310-rsm0-rcm69-esm100-rsr0-rcr100-esr29.npz,,,,,0,154,154,470,,right,red,2.1,1004.522722005844,1005.0276420116425,3,,4,9,brightness,readingArea,realistic,75,2023-03-30_09h30.55.415,tripletExp_regina_11082022,2022.2.4,119.19801521554407,
8,12,13,0,0.25,1.0,0,0.027777777777778,3.10526315789474,0,0.111111111111111,3.10526315789474,ReadingArea_rsl0-rcl25-esl100-rsm0-rcm2-esm310-rsr0-rcr11-esr310,exr/ReadingArea_rsl0-rcl25-esl100-rsm0-rcm2-esm310-rsr0-rcr11-esr310.exr,ReadingArea_rsl0-rcl25-esl100-rsm0-rcm2-esm310-rsr0-rcr11-esr310.npz,,,,,0,155,155,275,,left,green,2.74,1008.5079040527344,1008.96839094162,3,,4,9,brightness,readingArea,realistic,75,2023-03-30_09h30.55.415,tripletExp_regina_11082022,2022.2.4,119.19801521554407,
9,13,5,0,0.444444444444444,1.0,0,0.111111111111111,3.10526315789474,0,1.0,0.298245614035088,ReadingArea_rsl0-rcl44-esl100-rsm0-rcm11-esm310-rsr0-rcr100-esr29,exr/ReadingArea_rsl0-rcl44-esl100-rsm0-rcm11-esm310-rsr0-rcr100-esr29.exr,ReadingArea_rsl0-rcl44-esl100-rsm0-rcm11-esm310-rsr0-rcr100-esr29.npz,,,,,0,156,156,349,,right,red,2.9,1012.4528551101683,1012.9437999725342,3,,4,9,brightness,readingArea,realistic,75,2023-03-30_09h30.55.415,tripletExp_regina_11082022,2022.2.4,119.19801521554407,
1,9,7,0,0.111111111111111,0.298245614035088,0,0.444444444444444,1.0,0,0.111111111111111,1.0,ReadingArea_rsl0-rcl11-esl29-rsm0-rcm44-esm100-rsr0-rcr11-esr100,exr/ReadingArea_rsl0-rcl11-esl29-rsm0-rcm44-esm100-rsr0-rcr11-esr100.exr,ReadingArea_rsl0-rcl11-esl29-rsm0-rcm44-esm100-rsr0-rcr11-esr100.npz,,,,,0,157,157,397,,right,red,2.23,1016.400412082672,1016.9937331676484,3,,4,9,brightness,readingArea,realistic,75,2023-03-30_09h30.55.415,tripletExp_regina_11082022,2022.2.4,119.19801521554407,
1,3,4,0,0.111111111111111,0.298245614035088,0,0.444444444444444,0.298245614035088,0,0.694444444444444,0.298245614035088,ReadingArea_rsl0-rcl11-esl29-rsm0-rcm44-esm29-rsr0-rcr69-esr29,exr/ReadingArea_rsl0-rcl11-esl29-rsm0-rcm44-esm29-rsr0-rcr69-esr29.exr,ReadingArea_rsl0-rcl11-esl29-rsm0-rcm44-esm29-rsr0-rcr69-esr29.npz,,,,,0,158,158,153,,right,red,2.25,1020.4506230354308,1020.9349100589752,3,,4,9,brightness,readingArea,realistic,75,2023-03-30_09h30.55.415,tripletExp_regina_11082022,2022.2.4,119.19801521554407,
5,10,2,0,1.0,0.298245614035088,0,0.694444444444444,1.0,0,0.25,0.298245614035088,ReadingArea_rsl0-rcl100-esl29-rsm0-rcm69-esm100-rsr0-rcr25-esr29,exr/ReadingArea_rsl0-rcl100-esl29-rsm0-rcm69-esm100-rsr0-rcr25-esr29.exr,ReadingArea_rsl0-rcl100-esl29-rsm0-rcm69-esm100-rsr0-rcr25-esr29.npz,,,,,0,159,159,489,,left,green,1.15,1022.6257281303406,1023.0809440612792,3,,4,9,brightness,readingArea,realistic,75,2023-03-30_09h30.55.415,tripletExp_regina_11082022,2022.2.4,119.19801521554407,
12,9,11,0,0.027777777777778,3.10526315789474,0,0.444444444444444,1.0,0,1.0,1.0,ReadingArea_rsl0-rcl2-esl310-rsm0-rcm44-esm100-rsr0-rcr100-esr100,exr/ReadingArea_rsl0-rcl2-esl310-rsm0-rcm44-esm100-rsr0-rcr100-esr100.exr,ReadingArea_rsl0-rcl2-esl310-rsm0-rcm44-esm100-rsr0-rcr100-esr100.npz,,,,,0,160,160,18,,right,red,2.75,1026.562320947647,,3,,4,9,brightness,readingArea,realistic,75,2023-03-30_09h30.55.415,tripletExp_regina_11082022,2022.2.4,119.19801521554407,
8,9,6,0,0.25,1.0,0,0.444444444444444,1.0,0,0.027777777777778,1.0,ReadingArea_rsl0-rcl25-esl100-rsm0-rcm44-esm100-rsr0-rcr2-esr100,exr/ReadingArea_rsl0-rcl25-esl100-rsm0-rcm44-esm100-rsr0-rcr2-esr100.exr,ReadingArea_rsl0-rcl25-esl100-rsm0-rcm44-esm100-rsr0-rcr2-esr100.npz,,,,,0,161,161,3,,left,green,2.05,1030.6737689971924,1031.1550779342651,3,,4,9,brightness,readingArea,realistic,75,2023-03-30_09h30.55.415,tripletExp_regina_11082022,2022.2.4,119.19801521554407,
7,11,13,0,0.111111111111111,1.0,0,1.0,1.0,0,0.111111111111111,3.10526315789474,ReadingArea_rsl0-rcl11-esl100-rsm0-rcm100-esm100-rsr0-rcr11-esr310,exr/ReadingArea_rsl0-rcl11-esl100-rsm0-rcm100-esm100-rsr0-rcr11-esr310.exr,ReadingArea_rsl0-rcl11-esl100-rsm0-rcm100-esm100-rsr0-rcr11-esr310.npz,,,,,0,162,162,76,,right,red,2.21,1034.630352973938,,3,,4,9,brightness,readingArea,realistic,75,2023-03-30_09h30.55.415,tripletExp_regina_11082022,2022.2.4,119.19801521554407,
0,8,9,0,0.027777777777778,0.298245614035088,0,0.25,1.0,0,0.444444444444444,1.0,ReadingArea_rsl0-rcl2-esl29-rsm0-rcm25-esm100-rsr0-rcr44-esr100,exr/ReadingArea_rsl0-rcl2-esl29-rsm0-rcm25-esm100-rsr0-rcr44-esr100.exr,ReadingArea_rsl0-rcl2-esl29-rsm0-rcm25-esm100-rsr0-rcr44-esr100.npz,,,,,0,163,163,541,,right,red,2.34,1038.5948510169983,1039.079257965088,3,,4,9,brightness,readingArea,realistic,75,2023-03-30_09h30.55.415,tripletExp_regina_11082022,2022.2.4,119.19801521554407,
13,2,9,0,0.111111111111111,3.10526315789474,0,0.25,0.298245614035088,0,0.444444444444444,1.0,ReadingArea_rsl0-rcl11-esl310-rsm0-rcm25-esm29-rsr0-rcr44-esr100,exr/ReadingArea_rsl0-rcl11-esl310-rsm0-rcm25-esm29-rsr0-rcr44-esr100.exr,ReadingArea_rsl0-rcl11-esl310-rsm0-rcm25-esm29-rsr0-rcr44-esr100.npz,,,,,0,164,164,457,,left,green,3.84,1044.3243401050568,1044.82807803154,3,,4,9,brightness,readingArea,realistic,75,2023-03-30_09h30.55.415,tripletExp_regina_11082022,2022.2.4,119.19801521554407,
14,6,2,0,0.25,3.10526315789474,0,0.027777777777778,1.0,0,0.25,0.298245614035088,ReadingArea_rsl0-rcl25-esl310-rsm0-rcm2-esm100-rsr0-rcr25-esr29,exr/ReadingArea_rsl0-rcl25-esl310-rsm0-rcm2-esm100-rsr0-rcr25-esr29.exr,ReadingArea_rsl0-rcl25-esl310-rsm0-rcm2-esm100-rsr0-rcr25-esr29.npz,,,,,0,165,165,272,,right,red,2.08,1048.2892010211945,1048.74365401268,3,,4,9,brightness,readingArea,realistic,75,2023-03-30_09h30.55.415,tripletExp_regina_11082022,2022.2.4,119.19801521554407,
14,6,13,0,0.25,3.10526315789474,0,0.027777777777778,1.0,0,0.111111111111111,3.10526315789474,ReadingArea_rsl0-rcl25-esl310-rsm0-rcm2-esm100-rsr0-rcr11-esr310,exr/ReadingArea_rsl0-rcl25-esl310-rsm0-rcm2-esm100-rsr0-rcr11-esr310.exr,ReadingArea_rsl0-rcl25-esl310-rsm0-rcm2-esm100-rsr0-rcr11-esr310.npz,,,,,0,166,166,91,,right,red,2.37,1052.224364042282,1052.734845161438,3,,4,9,brightness,readingArea,realistic,75,2023-03-30_09h30.55.415,tripletExp_regina_11082022,2022.2.4,119.19801521554407,
5,14,11,0,1.0,0.298245614035088,0,0.25,3.10526315789474,0,1.0,1.0,ReadingArea_rsl0-rcl100-esl29-rsm0-rcm25-esm310-rsr0-rcr100-esr100,exr/ReadingArea_rsl0-rcl100-esl29-rsm0-rcm25-esm310-rsr0-rcr100-esr100.exr,ReadingArea_rsl0-rcl100-esl29-rsm0-rcm25-esm310-rsr0-rcr100-esr100.npz,,,,,0,167,167,98,,right,red,4.33,1057.9710431098938,1058.5551159381866,3,,4,9,brightness,readingArea,realistic,75,2023-03-30_09h30.55.415,tripletExp_regina_11082022,2022.2.4,119.19801521554407,
10,11,12,0,0.694444444444444,1.0,0,1.0,1.0,0,0.027777777777778,3.10526315789474,ReadingArea_rsl0-rcl69-esl100-rsm0-rcm100-esm100-rsr0-rcr2-esr310,exr/ReadingArea_rsl0-rcl69-esl100-rsm0-rcm100-esm100-rsr0-rcr2-esr310.exr,ReadingArea_rsl0-rcl69-esl100-rsm0-rcm100-esm100-rsr0-rcr2-esr310.npz,,,,,0,168,168,533,,left,green,2.15,1062.0065071582794,1062.4883630275726,3,,4,9,brightness,readingArea,realistic,75,2023-03-30_09h30.55.415,tripletExp_regina_11082022,2022.2.4,119.19801521554407,
2,6,0,0,0.25,0.298245614035088,0,0.027777777777778,1.0,0,0.027777777777778,0.298245614035088,ReadingArea_rsl0-rcl25-esl29-rsm0-rcm2-esm100-rsr0-rcr2-esr29,exr/ReadingArea_rsl0-rcl25-esl29-rsm0-rcm2-esm100-rsr0-rcr2-esr29.exr,ReadingArea_rsl0-rcl25-esl29-rsm0-rcm2-esm100-rsr0-rcr2-esr29.npz,,,,,0,169,169,525,,left,green,2.77,1065.9463059902191,1066.4239189624786,3,,4,9,brightness,readingArea,realistic,75,2023-03-30_09h30.55.415,tripletExp_regina_11082022,2022.2.4,119.19801521554407,
11,7,10,0,1.0,1.0,0,0.111111111111111,1.0,0,0.694444444444444,1.0,ReadingArea_rsl0-rcl100-esl100-rsm0-rcm11-esm100-rsr0-rcr69-esr100,exr/ReadingArea_rsl0-rcl100-esl100-rsm0-rcm11-esm100-rsr0-rcr69-esr100.exr,ReadingArea_rsl0-rcl100-esl100-rsm0-rcm11-esm100-rsr0-rcr69-esr100.npz,,,,,0,170,170,411,,right,red,2.33,1069.9196000099182,,3,,4,9,brightness,readingArea,realistic,75,2023-03-30_09h30.55.415,tripletExp_regina_11082022,2022.2.4,119.19801521554407,
4,12,2,0,0.694444444444444,0.298245614035088,0,0.027777777777778,3.10526315789474,0,0.25,0.298245614035088,ReadingArea_rsl0-rcl69-esl29-rsm0-rcm2-esm310-rsr0-rcr25-esr29,exr/ReadingArea_rsl0-rcl69-esl29-rsm0-rcm2-esm310-rsr0-rcr25-esr29.exr,ReadingArea_rsl0-rcl69-esl29-rsm0-rcm2-esm310-rsr0-rcr25-esr29.npz,,,,,0,171,171,543,,right,red,2.24,1073.8716940879822,1074.35688495636,3,,4,9,brightness,readingArea,realistic,75,2023-03-30_09h30.55.415,tripletExp_regina_11082022,2022.2.4,119.19801521554407,
6,12,0,0,0.027777777777778,1.0,0,0.027777777777778,3.10526315789474,0,0.027777777777778,0.298245614035088,ReadingArea_rsl0-rcl2-esl100-rsm0-rcm2-esm310-rsr0-rcr2-esr29,exr/ReadingArea_rsl0-rcl2-esl100-rsm0-rcm2-esm310-rsr0-rcr2-esr29.exr,ReadingArea_rsl0-rcl2-esl100-rsm0-rcm2-esm310-rsr0-rcr2-esr29.npz,,,,,0,172,172,23,,left,green,2.68,1077.8512630462646,1078.334510087967,3,,4,9,brightness,readingArea,realistic,75,2023-03-30_09h30.55.415,tripletExp_regina_11082022,2022.2.4,119.19801521554407,
12,8,3,0,0.027777777777778,3.10526315789474,0,0.25,1.0,0,0.444444444444444,0.298245614035088,ReadingArea_rsl0-rcl2-esl310-rsm0-rcm25-esm100-rsr0-rcr44-esr29,exr/ReadingArea_rsl0-rcl2-esl310-rsm0-rcm25-esm100-rsr0-rcr44-esr29.exr,ReadingArea_rsl0-rcl2-esl310-rsm0-rcm25-esm100-rsr0-rcr44-esr29.npz,,,,,0,173,173,386,,right,red,2.74,1081.838984966278,1082.3519940376282,3,,4,9,brightness,readingArea,realistic,75,2023-03-30_09h30.55.415,tripletExp_regina_11082022,2022.2.4,119.19801521554407,
13,3,7,0,0.111111111111111,3.10526315789474,0,0.444444444444444,0.298245614035088,0,0.111111111111111,1.0,ReadingArea_rsl0-rcl11-esl310-rsm0-rcm44-esm29-rsr0-rcr11-esr100,exr/ReadingArea_rsl0-rcl11-esl310-rsm0-rcm44-esm29-rsr0-rcr11-esr100.exr,ReadingArea_rsl0-rcl11-esl310-rsm0-rcm44-esm29-rsr0-rcr11-esr100.npz,,,,,0,174,174,497,,right,red,2.69,1085.8414771556854,1086.3288879394531,3,,4,9,brightness,readingArea,realistic,75,2023-03-30_09h30.55.415,tripletExp_regina_11082022,2022.2.4,119.19801521554407,
3,8,1,0,0.444444444444444,0.298245614035088,0,0.25,1.0,0,0.111111111111111,0.298245614035088,ReadingArea_rsl0-rcl44-esl29-rsm0-rcm25-esm100-rsr0-rcr11-esr29,exr/ReadingArea_rsl0-rcl44-esl29-rsm0-rcm25-esm100-rsr0-rcr11-esr29.exr,ReadingArea_rsl0-rcl44-esl29-rsm0-rcm25-esm100-rsr0-rcr11-esr29.npz,,,,,0,175,175,230,,left,green,2.3,1089.80987906456,1090.3042459487915,3,,4,9,brightness,readingArea,realistic,75,2023-03-30_09h30.55.415,tripletExp_regina_11082022,2022.2.4,119.19801521554407,
11,12,10,0,1.0,1.0,0,0.027777777777778,3.10526315789474,0,0.694444444444444,1.0,ReadingArea_rsl0-rcl100-esl100-rsm0-rcm2-esm310-rsr0-rcr69-esr100,exr/ReadingArea_rsl0-rcl100-esl100-rsm0-rcm2-esm310-rsr0-rcr69-esr100.exr,ReadingArea_rsl0-rcl100-esl100-rsm0-rcm2-esm310-rsr0-rcr69-esr100.npz,,,,,0,176,176,465,,right,red,2.22,1093.7928609848022,1094.286386013031,3,,4,9,brightness,readingArea,realistic,75,2023-03-30_09h30.55.415,tripletExp_regina_11082022,2022.2.4,119.19801521554407,
1,12,11,0,0.111111111111111,0.298245614035088,0,0.027777777777778,3.10526315789474,0,1.0,1.0,ReadingArea_rsl0-rcl11-esl29-rsm0-rcm2-esm310-rsr0-rcr100-esr100,exr/ReadingArea_rsl0-rcl11-esl29-rsm0-rcm2-esm310-rsr0-rcr100-esr100.exr,ReadingArea_rsl0-rcl11-esl29-rsm0-rcm2-esm310-rsr0-rcr100-esr100.npz,,,,,0,177,177,178,,left,green,1.69,1095.9780580997467,1096.491639137268,3,,4,9,brightness,readingArea,realistic,75,2023-03-30_09h30.55.415,tripletExp_regina_11082022,2022.2.4,119.19801521554407,
14,2,6,0,0.25,3.10526315789474,0,0.25,0.298245614035088,0,0.027777777777778,1.0,ReadingArea_rsl0-rcl25-esl310-rsm0-rcm25-esm29-rsr0-rcr2-esr100,exr/ReadingArea_rsl0-rcl25-esl310-rsm0-rcm25-esm29-rsr0-rcr2-esr100.exr,ReadingArea_rsl0-rcl25-esl310-rsm0-rcm25-esm29-rsr0-rcr2-esr100.npz,,,,,0,178,178,350,,right,red,2.17,1099.9384939670565,1100.4261009693146,3,,4,9,brightness,readingArea,realistic,75,2023-03-30_09h30.55.415,tripletExp_regina_11082022,2022.2.4,119.19801521554407,
0,14,6,0,0.027777777777778,0.298245614035088,0,0.25,3.10526315789474,0,0.027777777777778,1.0,ReadingArea_rsl0-rcl2-esl29-rsm0-rcm25-esm310-rsr0-rcr2-esr100,exr/ReadingArea_rsl0-rcl2-esl29-rsm0-rcm25-esm310-rsr0-rcr2-esr100.exr,ReadingArea_rsl0-rcl2-esl29-rsm0-rcm25-esm310-rsr0-rcr2-esr100.npz,,,,,0,179,179,499,,right,red,2.18,1103.935739994049,1104.4369809627533,3,,4,9,brightness,readingArea,realistic,75,2023-03-30_09h30.55.415,tripletExp_regina_11082022,2022.2.4,119.19801521554407,
11,12,2,0,1.0,1.0,0,0.027777777777778,3.10526315789474,0,0.25,0.298245614035088,ReadingArea_rsl0-rcl100-esl100-rsm0-rcm2-esm310-rsr0-rcr25-esr29,exr/ReadingArea_rsl0-rcl100-esl100-rsm0-rcm2-esm310-rsr0-rcr25-esr29.exr,ReadingArea_rsl0-rcl100-esl100-rsm0-rcm2-esm310-rsr0-rcr25-esr29.npz,,,,,0,180,180,423,,right,red,1.1,1106.1576681137085,1106.6376819610596,3,,4,9,brightness,readingArea,realistic,75,2023-03-30_09h30.55.415,tripletExp_regina_11082022,2022.2.4,119.19801521554407,
1,14,8,0,0.111111111111111,0.298245614035088,0,0.25,3.10526315789474,0,0.25,1.0,ReadingArea_rsl0-rcl11-esl29-rsm0-rcm25-esm310-rsr0-rcr25-esr100,exr/ReadingArea_rsl0-rcl11-esl29-rsm0-rcm25-esm310-rsr0-rcr25-esr100.exr,ReadingArea_rsl0-rcl11-esl29-rsm0-rcm25-esm310-rsr0-rcr25-esr100.npz,,,,,0,181,181,108,,right,red,2.84,1110.101746082306,1110.5901720523834,3,,4,9,brightness,readingArea,realistic,75,2023-03-30_09h30.55.415,tripletExp_regina_11082022,2022.2.4,119.19801521554407,
6,0,11,0,0.027777777777778,1.0,0,0.027777777777778,0.298245614035088,0,1.0,1.0,ReadingArea_rsl0-rcl2-esl100-rsm0-rcm2-esm29-rsr0-rcr100-esr100,exr/ReadingArea_rsl0-rcl2-esl100-rsm0-rcm2-esm29-rsr0-rcr100-esr100.exr,ReadingArea_rsl0-rcl2-esl100-rsm0-rcm2-esm29-rsr0-rcr100-esr100.npz,,,,,0,182,182,245,,left,green,2.2,1114.0530750751495,1114.544676065445,3,,4,9,brightness,readingArea,realistic,75,2023-03-30_09h30.55.415,tripletExp_regina_11082022,2022.2.4,119.19801521554407,
11,14,9,0,1.0,1.0,0,0.25,3.10526315789474,0,0.444444444444444,1.0,ReadingArea_rsl0-rcl100-esl100-rsm0-rcm25-esm310-rsr0-rcr44-esr100,exr/ReadingArea_rsl0-rcl100-esl100-rsm0-rcm25-esm310-rsr0-rcr44-esr100.exr,ReadingArea_rsl0-rcl100-esl100-rsm0-rcm25-esm310-rsr0-rcr44-esr100.npz,,,,,0,183,183,43,,right,red,4.54,1119.7890009880066,1120.3993971347809,3,,4,9,brightness,readingArea,realistic,75,2023-03-30_09h30.55.415,tripletExp_regina_11082022,2022.2.4,119.19801521554407,
13,12,5,0,0.111111111111111,3.10526315789474,0,0.027777777777778,3.10526315789474,0,1.0,0.298245614035088,ReadingArea_rsl0-rcl11-esl310-rsm0-rcm2-esm310-rsr0-rcr100-esr29,exr/ReadingArea_rsl0-rcl11-esl310-rsm0-rcm2-esm310-rsr0-rcr100-esr29.exr,ReadingArea_rsl0-rcl11-esl310-rsm0-rcm2-esm310-rsr0-rcr100-esr29.npz,,,,,0,184,184,294,,left,green,3.74,1125.5984539985657,1126.0789771080017,3,,4,9,brightness,readingArea,realistic,75,2023-03-30_09h30.55.415,tripletExp_regina_11082022,2022.2.4,119.19801521554407,
9,0,8,0,0.444444444444444,1.0,0,0.027777777777778,0.298245614035088,0,0.25,1.0,ReadingArea_rsl0-rcl44-esl100-rsm0-rcm2-esm29-rsr0-rcr25-esr100,exr/ReadingArea_rsl0-rcl44-esl100-rsm0-rcm2-esm29-rsr0-rcr25-esr100.exr,ReadingArea_rsl0-rcl44-esl100-rsm0-rcm2-esm29-rsr0-rcr25-esr100.npz,,,,,0,185,185,27,,right,red,1.96,1129.5678820610046,1130.075670003891,3,,4,9,brightness,readingArea,realistic,75,2023-03-30_09h30.55.415,tripletExp_regina_11082022,2022.2.4,119.19801521554407,
8,4,1,0,0.25,1.0,0,0.694444444444444,0.298245614035088,0,0.111111111111111,0.298245614035088,ReadingArea_rsl0-rcl25-esl100-rsm0-rcm69-esm29-rsr0-rcr11-esr29,exr/ReadingArea_rsl0-rcl25-esl100-rsm0-rcm69-esm29-rsr0-rcr11-esr29.exr,ReadingArea_rsl0-rcl25-esl100-rsm0-rcm69-esm29-rsr0-rcr11-esr29.npz,,,,,0,186,186,286,,left,green,2.17,1133.5569760799408,1134.2480821609497,3,,4,9,brightness,readingArea,realistic,75,2023-03-30_09h30.55.415,tripletExp_regina_11082022,2022.2.4,119.19801521554407,
10,11,13,0,0.694444444444444,1.0,0,1.0,1.0,0,0.111111111111111,3.10526315789474,ReadingArea_rsl0-rcl69-esl100-rsm0-rcm100-esm100-rsr0-rcr11-esr310,exr/ReadingArea_rsl0-rcl69-esl100-rsm0-rcm100-esm100-rsr0-rcr11-esr310.exr,ReadingArea_rsl0-rcl69-esl100-rsm0-rcm100-esm100-rsr0-rcr11-esr310.npz,,,,,0,187,187,79,,left,green,2.41,1137.684298038483,1138.1828801631927,3,,4,9,brightness,readingArea,realistic,75,2023-03-30_09h30.55.415,tripletExp_regina_11082022,2022.2.4,119.19801521554407,
0,8,3,0,0.027777777777778,0.298245614035088,0,0.25,1.0,0,0.444444444444444,0.298245614035088,ReadingArea_rsl0-rcl2-esl29-rsm0-rcm25-esm100-rsr0-rcr44-esr29,exr/ReadingArea_rsl0-rcl2-esl29-rsm0-rcm25-esm100-rsr0-rcr44-esr29.exr,ReadingArea_rsl0-rcl2-esl29-rsm0-rcm25-esm100-rsr0-rcr44-esr29.npz,,,,,0,188,188,301,,right,red,2.24,1141.660495042801,1142.153165102005,3,,4,9,brightness,readingArea,realistic,75,2023-03-30_09h30.55.415,tripletExp_regina_11082022,2022.2.4,119.19801521554407,
6,3,13,0,0.027777777777778,1.0,0,0.444444444444444,0.298245614035088,0,0.111111111111111,3.10526315789474,ReadingArea_rsl0-rcl2-esl100-rsm0-rcm44-esm29-rsr0-rcr11-esr310,exr/ReadingArea_rsl0-rcl2-esl100-rsm0-rcm44-esm29-rsr0-rcr11-esr310.exr,ReadingArea_rsl0-rcl2-esl100-rsm0-rcm44-esm29-rsr0-rcr11-esr310.npz,,,,,0,189,189,228,,right,red,2.16,1145.6316640377045,,3,,4,9,brightness,readingArea,realistic,75,2023-03-30_09h30.55.415,tripletExp_regina_11082022,2022.2.4,119.19801521554407,
11,14,2,0,1.0,1.0,0,0.25,3.10526315789474,0,0.25,0.298245614035088,ReadingArea_rsl0-rcl100-esl100-rsm0-rcm25-esm310-rsr0-rcr25-esr29,exr/ReadingArea_rsl0-rcl100-esl100-rsm0-rcm25-esm310-rsr0-rcr25-esr29.exr,ReadingArea_rsl0-rcl100-esl100-rsm0-rcm25-esm310-rsr0-rcr25-esr29.npz,,,,,0,190,190,419,,left,green,2.11,1149.5946249961853,1150.0935230255127,3,,4,9,brightness,readingArea,realistic,75,2023-03-30_09h30.55.415,tripletExp_regina_11082022,2022.2.4,119.19801521554407,
1,7,2,0,0.111111111111111,0.298245614035088,0,0.111111111111111,1.0,0,0.25,0.298245614035088,ReadingArea_rsl0-rcl11-esl29-rsm0-rcm11-esm100-rsr0-rcr25-esr29,exr/ReadingArea_rsl0-rcl11-esl29-rsm0-rcm11-esm100-rsr0-rcr25-esr29.exr,ReadingArea_rsl0-rcl11-esl29-rsm0-rcm11-esm100-rsr0-rcr25-esr29.npz,,,,,0,191,191,162,,right,red,2.41,1153.5454649925232,1154.0218901634216,3,,4,9,brightness,readingArea,realistic,75,2023-03-30_09h30.55.415,tripletExp_regina_11082022,2022.2.4,119.19801521554407,
12,9,13,0,0.027777777777778,3.10526315789474,0,0.444444444444444,1.0,0,0.111111111111111,3.10526315789474,ReadingArea_rsl0-rcl2-esl310-rsm0-rcm44-esm100-rsr0-rcr11-esr310,exr/ReadingArea_rsl0-rcl2-esl310-rsm0-rcm44-esm100-rsr0-rcr11-esr310.exr,ReadingArea_rsl0-rcl2-esl310-rsm0-rcm44-esm100-rsr0-rcr11-esr310.npz,,,,,0,192,192,529,,right,red,2.0,1157.4847781658173,1157.9769990444183,3,,4,9,brightness,readingArea,realistic,75,2023-03-30_09h30.55.415,tripletExp_regina_11082022,2022.2.4,119.19801521554407,
0,11,9,0,0.027777777777778,0.298245614035088,0,1.0,1.0,0,0.444444444444444,1.0,ReadingArea_rsl0-rcl2-esl29-rsm0-rcm100-esm100-rsr0-rcr44-esr100,exr/ReadingArea_rsl0-rcl2-esl29-rsm0-rcm100-esm100-rsr0-rcr44-esr100.exr,ReadingArea_rsl0-rcl2-esl29-rsm0-rcm100-esm100-rsr0-rcr44-esr100.npz,,,,,0,193,193,32,,right,red,2.19,1161.447870016098,1161.949844121933,3,,4,9,brightness,readingArea,realistic,75,2023-03-30_09h30.55.415,tripletExp_regina_11082022,2022.2.4,119.19801521554407,
2,14,8,0,0.25,0.298245614035088,0,0.25,3.10526315789474,0,0.25,1.0,ReadingArea_rsl0-rcl25-esl29-rsm0-rcm25-esm310-rsr0-rcr25-esr100,exr/ReadingArea_rsl0-rcl25-esl29-rsm0-rcm25-esm310-rsr0-rcr25-esr100.exr,ReadingArea_rsl0-rcl25-esl29-rsm0-rcm25-esm310-rsr0-rcr25-esr100.npz,,,,,0,194,194,255,,right,red,2.54,1165.4545540809631,1165.9397361278534,3,,4,9,brightness,readingArea,realistic,75,2023-03-30_09h30.55.415,tripletExp_regina_11082022,2022.2.4,119.19801521554407,
12,13,10,0,0.027777777777778,3.10526315789474,0,0.111111111111111,3.10526315789474,0,0.694444444444444,1.0,ReadingArea_rsl0-rcl2-esl310-rsm0-rcm11-esm310-rsr0-rcr69-esr100,exr/ReadingArea_rsl0-rcl2-esl310-rsm0-rcm11-esm310-rsr0-rcr69-esr100.exr,ReadingArea_rsl0-rcl2-esl310-rsm0-rcm11-esm310-rsr0-rcr69-esr100.npz,,,,,0,195,195,295,,left,green,4.37,1171.1522500514984,,3,,4,9,brightness,readingArea,realistic,75,2023-03-30_09h30.55.415,tripletExp_regina_11082022,2022.2.4,119.19801521554407,
0,13,1,0,0.027777777777778,0.298245614035088,0,0.111111111111111,3.10526315789474,0,0.111111111111111,0.298245614035088,ReadingArea_rsl0-rcl2-esl29-rsm0-rcm11-esm310-rsr0-rcr11-esr29,exr/ReadingArea_rsl0-rcl2-esl29-rsm0-rcm11-esm310-rsr0-rcr11-esr29.exr,ReadingArea_rsl0-rcl2-esl29-rsm0-rcm11-esm310-rsr0-rcr11-esr29.npz,,,,,0,196,196,458,,right,red,2.67,1175.1006410121918,1175.5753920078278,3,,4,9,brightness,readingArea,realistic,75,2023-03-30_09h30.55.415,tripletExp_regina_11082022,2022.2.4,119.19801521554407,
13,0,12,0,0.111111111111111,3.10526315789474,0,0.027777777777778,0.298245614035088,0,0.027777777777778,3.10526315789474,ReadingArea_rsl0-rcl11-esl310-rsm0-rcm2-esm29-rsr0-rcr2-esr310,exr/ReadingArea_rsl0-rcl11-esl310-rsm0-rcm2-esm29-rsr0-rcr2-esr310.exr,ReadingArea_rsl0-rcl11-esl310-rsm0-rcm2-esm29-rsr0-rcr2-esr310.npz,,,,,0,197,197,56,,right,red,2.96,1179.0467610359192,1179.5414731502533,3,,4,9,brightness,readingArea,realistic,75,2023-03-30_09h30.55.415,tripletExp_regina_11082022,2022.2.4,119.19801521554407,
3,9,13,0,0.444444444444444,0.298245614035088,0,0.444444444444444,1.0,0,0.111111111111111,3.10526315789474,ReadingArea_rsl0-rcl44-esl29-rsm0-rcm44-esm100-rsr0-rcr11-esr310,exr/ReadingArea_rsl0-rcl44-esl29-rsm0-rcm44-esm100-rsr0-rcr11-esr310.exr,ReadingArea_rsl0-rcl44-esl29-rsm0-rcm44-esm100-rsr0-rcr11-esr310.npz,,,,,0,198,198,341,,right,red,2.16,1182.99183011055,1183.4532549381256,3,,4,9,brightness,readingArea,realistic,75,2023-03-30_09h30.55.415,tripletExp_regina_11082022,2022.2.4,119.19801521554407,
11,6,14,0,1.0,1.0,0,0.027777777777778,1.0,0,0.25,3.10526315789474,ReadingArea_rsl0-rcl100-esl100-rsm0-rcm2-esm100-rsr0-rcr25-esr310,exr/ReadingArea_rsl0-rcl100-esl100-rsm0-rcm2-esm100-rsr0-rcr25-esr310.exr,ReadingArea_rsl0-rcl100-esl100-rsm0-rcm2-esm100-rsr0-rcr25-esr310.npz,,,,,0,199,199,305,,right,red,2.1,1186.9495100975037,1187.43905210495,3,,4,9,brightness,readingArea,realistic,75,2023-03-30_09h30.55.415,tripletExp_regina_11082022,2022.2.4,119.19801521554407,
7,8,6,0,0.111111111111111,1.0,0,0.25,1.0,0,0.027777777777778,1.0,ReadingArea_rsl0-rcl11-esl100-rsm0-rcm25-esm100-rsr0-rcr2-esr100,exr/ReadingArea_rsl0-rcl11-esl100-rsm0-rcm25-esm100-rsr0-rcr2-esr100.exr,ReadingArea_rsl0-rcl11-esl100-rsm0-rcm25-esm100-rsr0-rcr2-esr100.npz,,,,,0,200,200,387,,left,green,2.14,1190.9199810028076,1191.4087460041046,3,,4,9,brightness,readingArea,realistic,75,2023-03-30_09h30.55.415,tripletExp_regina_11082022,2022.2.4,119.19801521554407,
7,12,2,0,0.111111111111111,1.0,0,0.027777777777778,3.10526315789474,0,0.25,0.298245614035088,ReadingArea_rsl0-rcl11-esl100-rsm0-rcm2-esm310-rsr0-rcr25-esr29,exr/ReadingArea_rsl0-rcl11-esl100-rsm0-rcm2-esm310-rsr0-rcr25-esr29.exr,ReadingArea_rsl0-rcl11-esl100-rsm0-rcm2-esm310-rsr0-rcr25-esr29.npz,,,,,0,201,201,72,,left,green,4.56,1196.6569001674652,1197.1474001407623,3,,4,9,brightness,readingArea,realistic,75,2023-03-30_09h30.55.415,tripletExp_regina_11082022,2022.2.4,119.19801521554407,
4,8,10,0,0.694444444444444,0.298245614035088,0,0.25,1.0,0,0.694444444444444,1.0,ReadingArea_rsl0-rcl69-esl29-rsm0-rcm25-esm100-rsr0-rcr69-esr100,exr/ReadingArea_rsl0-rcl69-esl29-rsm0-rcm25-esm100-rsr0-rcr69-esr100.exr,ReadingArea_rsl0-rcl69-esl29-rsm0-rcm25-esm100-rsr0-rcr69-esr100.npz,,,,,0,202,202,221,,left,green,2.48,1200.6352429389954,1201.112354040146,3,,4,9,brightness,readingArea,realistic,75,2023-03-30_09h30.55.415,tripletExp_regina_11082022,2022.2.4,119.19801521554407,
3,12,4,0,0.444444444444444,0.298245614035088,0,0.027777777777778,3.10526315789474,0,0.694444444444444,0.298245614035088,ReadingArea_rsl0-rcl44-esl29-rsm0-rcm2-esm310-rsr0-rcr69-esr29,exr/ReadingArea_rsl0-rcl44-esl29-rsm0-rcm2-esm310-rsr0-rcr69-esr29.exr,ReadingArea_rsl0-rcl44-esl29-rsm0-rcm2-esm310-rsr0-rcr69-esr29.npz,,,,,0,203,203,426,,left,green,2.25,1204.5904099941254,,3,,4,9,brightness,readingArea,realistic,75,2023-03-30_09h30.55.415,tripletExp_regina_11082022,2022.2.4,119.19801521554407,
