index_left,index_middle,index_right,reflectance_surround_left,reflectance_center_left,emission_spot_left,reflectance_surround_middle,reflectance_center_middle,emission_spot_middle,reflectance_surround_right,reflectance_center_right,emission_spot_right,ImageName,ImageExr,ImageNpy,trials_2.thisRepN,trials_2.thisTrialN,trials_2.thisN,trials_2.thisIndex,trials.thisRepN,trials.thisTrialN,trials.thisN,trials.thisIndex,sound_1.started,BB_Trial.resp,BB_Trial.color,BB_Trial.rt,text.started,text.stopped,sound_2.started,block,sound_4.started,participant,session,L/B,scene,condition,nTrialsPerBlock,date,expName,psychopyVersion,frameRate,Unnamed: 42
2,3,4,0,0.25,0.298245614035088,0,0.444444444444444,0.298245614035088,0,0.694444444444444,0.298245614035088,ReadingArea_rsl0-rcl25-esl29-rsm0-rcm44-esm29-rsr0-rcr69-esr29,exr/ReadingArea_rsl0-rcl25-esl29-rsm0-rcm44-esm29-rsr0-rcr69-esr29.exr,ReadingArea_rsl0-rcl25-esl29-rsm0-rcm44-esm29-rsr0-rcr69-esr29.npz,,,,,0,0,0,61,141.39532673358917,right,red,1.14,149.55606389045715,150.1564588546753,127.0453315973282,1,,3,5,lightness,readingArea,realistic,75,2023-03-18_13h28.17.438,tripletExp_regina_11082022,2022.2.4,120.31818612109548,
13,1,4,0,0.111111111111111,3.10526315789474,0,0.111111111111111,0.298245614035088,0,0.694444444444444,0.298245614035088,ReadingArea_rsl0-rcl11-esl310-rsm0-rcm11-esm29-rsr0-rcr69-esr29,exr/ReadingArea_rsl0-rcl11-esl310-rsm0-rcm11-esm29-rsr0-rcr69-esr29.exr,ReadingArea_rsl0-rcl11-esl310-rsm0-rcm11-esm29-rsr0-rcr69-esr29.npz,,,,,0,1,1,396,,right,red,2.61,153.6231038570404,155.4968340396881,,1,,3,5,lightness,readingArea,realistic,75,2023-03-18_13h28.17.438,tripletExp_regina_11082022,2022.2.4,120.31818612109548,
0,13,12,0,0.027777777777778,0.298245614035088,0,0.111111111111111,3.10526315789474,0,0.027777777777778,3.10526315789474,ReadingArea_rsl0-rcl2-esl29-rsm0-rcm11-esm310-rsr0-rcr2-esr310,exr/ReadingArea_rsl0-rcl2-esl29-rsm0-rcm11-esm310-rsr0-rcr2-esr310.exr,ReadingArea_rsl0-rcl2-esl29-rsm0-rcm11-esm310-rsr0-rcr2-esr310.npz,,,,,0,2,2,501,,right,red,1.16,157.1982660293579,157.6571409702301,,1,,3,5,lightness,readingArea,realistic,75,2023-03-18_13h28.17.438,tripletExp_regina_11082022,2022.2.4,120.31818612109548,
12,9,2,0,0.027777777777778,3.10526315789474,0,0.444444444444444,1.0,0,0.25,0.298245614035088,ReadingArea_rsl0-rcl2-esl310-rsm0-rcm44-esm100-rsr0-rcr25-esr29,exr/ReadingArea_rsl0-rcl2-esl310-rsm0-rcm44-esm100-rsr0-rcr25-esr29.exr,ReadingArea_rsl0-rcl2-esl310-rsm0-rcm44-esm100-rsr0-rcr25-esr29.npz,,,,,0,3,3,226,,right,red,1.56,159.3634638786316,159.78665590286255,,1,,3,5,lightness,readingArea,realistic,75,2023-03-18_13h28.17.438,tripletExp_regina_11082022,2022.2.4,120.31818612109548,
10,1,13,0,0.694444444444444,1.0,0,0.111111111111111,0.298245614035088,0,0.111111111111111,3.10526315789474,ReadingArea_rsl0-rcl69-esl100-rsm0-rcm11-esm29-rsr0-rcr11-esr310,exr/ReadingArea_rsl0-rcl69-esl100-rsm0-rcm11-esm29-rsr0-rcr11-esr310.exr,ReadingArea_rsl0-rcl69-esl100-rsm0-rcm11-esm29-rsr0-rcr11-esr310.npz,,,,,0,4,4,45,,right,red,1.16,161.47743201255798,,,1,,3,5,lightness,readingArea,realistic,75,2023-03-18_13h28.17.438,tripletExp_regina_11082022,2022.2.4,120.31818612109548,
10,7,8,0,0.694444444444444,1.0,0,0.111111111111111,1.0,0,0.25,1.0,ReadingArea_rsl0-rcl69-esl100-rsm0-rcm11-esm100-rsr0-rcr25-esr100,exr/ReadingArea_rsl0-rcl69-esl100-rsm0-rcm11-esm100-rsr0-rcr25-esr100.exr,ReadingArea_rsl0-rcl69-esl100-rsm0-rcm11-esm100-rsr0-rcr25-esr100.npz,,,,,0,5,5,57,,right,red,0.74,163.59876489639282,164.16018295288086,,1,,3,5,lightness,readingArea,realistic,75,2023-03-18_13h28.17.438,tripletExp_regina_11082022,2022.2.4,120.31818612109548,
14,3,2,0,0.25,3.10526315789474,0,0.444444444444444,0.298245614035088,0,0.25,0.298245614035088,ReadingArea_rsl0-rcl25-esl310-rsm0-rcm44-esm29-rsr0-rcr25-esr29,exr/ReadingArea_rsl0-rcl25-esl310-rsm0-rcm44-esm29-rsr0-rcr25-esr29.exr,ReadingArea_rsl0-rcl25-esl310-rsm0-rcm44-esm29-rsr0-rcr25-esr29.npz,,,,,0,6,6,52,,right,red,1.02,165.84519004821777,166.28986382484436,,1,,3,5,lightness,readingArea,realistic,75,2023-03-18_13h28.17.438,tripletExp_regina_11082022,2022.2.4,120.31818612109548,
7,10,13,0,0.111111111111111,1.0,0,0.694444444444444,1.0,0,0.111111111111111,3.10526315789474,ReadingArea_rsl0-rcl11-esl100-rsm0-rcm69-esm100-rsr0-rcr11-esr310,exr/ReadingArea_rsl0-rcl11-esl100-rsm0-rcm69-esm100-rsr0-rcr11-esr310.exr,ReadingArea_rsl0-rcl11-esl100-rsm0-rcm69-esm100-rsr0-rcr11-esr310.npz,,,,,0,7,7,446,,right,red,0.86,167.98160696029663,168.42563605308533,,1,,3,5,lightness,readingArea,realistic,75,2023-03-18_13h28.17.438,tripletExp_regina_11082022,2022.2.4,120.31818612109548,
2,5,14,0,0.25,0.298245614035088,0,1.0,0.298245614035088,0,0.25,3.10526315789474,ReadingArea_rsl0-rcl25-esl29-rsm0-rcm100-esm29-rsr0-rcr25-esr310,exr/ReadingArea_rsl0-rcl25-esl29-rsm0-rcm100-esm29-rsr0-rcr25-esr310.exr,ReadingArea_rsl0-rcl25-esl29-rsm0-rcm100-esm29-rsr0-rcr25-esr310.npz,,,,,0,8,8,390,,right,red,1.59,170.14343690872192,170.59440803527832,,1,,3,5,lightness,readingArea,realistic,75,2023-03-18_13h28.17.438,tripletExp_regina_11082022,2022.2.4,120.31818612109548,
14,11,3,0,0.25,3.10526315789474,0,1.0,1.0,0,0.444444444444444,0.298245614035088,ReadingArea_rsl0-rcl25-esl310-rsm0-rcm100-esm100-rsr0-rcr44-esr29,exr/ReadingArea_rsl0-rcl25-esl310-rsm0-rcm100-esm100-rsr0-rcr44-esr29.exr,ReadingArea_rsl0-rcl25-esl310-rsm0-rcm100-esm100-rsr0-rcr44-esr29.npz,,,,,0,9,9,78,,left,green,0.87,172.28352403640747,172.71346998214722,,1,,3,5,lightness,readingArea,realistic,75,2023-03-18_13h28.17.438,tripletExp_regina_11082022,2022.2.4,120.31818612109548,
9,6,13,0,0.444444444444444,1.0,0,0.027777777777778,1.0,0,0.111111111111111,3.10526315789474,ReadingArea_rsl0-rcl44-esl100-rsm0-rcm2-esm100-rsr0-rcr11-esr310,exr/ReadingArea_rsl0-rcl44-esl100-rsm0-rcm2-esm100-rsr0-rcr11-esr310.exr,ReadingArea_rsl0-rcl44-esl100-rsm0-rcm2-esm100-rsr0-rcr11-esr310.npz,,,,,0,10,10,285,,right,red,2.76,176.18197989463806,176.674320936203,,1,,3,5,lightness,readingArea,realistic,75,2023-03-18_13h28.17.438,tripletExp_regina_11082022,2022.2.4,120.31818612109548,
2,1,3,0,0.25,0.298245614035088,0,0.111111111111111,0.298245614035088,0,0.444444444444444,0.298245614035088,ReadingArea_rsl0-rcl25-esl29-rsm0-rcm11-esm29-rsr0-rcr44-esr29,exr/ReadingArea_rsl0-rcl25-esl29-rsm0-rcm11-esm29-rsr0-rcr44-esr29.exr,ReadingArea_rsl0-rcl25-esl29-rsm0-rcm11-esm29-rsr0-rcr44-esr29.npz,,,,,0,11,11,85,,left,green,3.15,180.13850688934326,180.7300629615784,,1,,3,5,lightness,readingArea,realistic,75,2023-03-18_13h28.17.438,tripletExp_regina_11082022,2022.2.4,120.31818612109548,
6,11,3,0,0.027777777777778,1.0,0,1.0,1.0,0,0.444444444444444,0.298245614035088,ReadingArea_rsl0-rcl2-esl100-rsm0-rcm100-esm100-rsr0-rcr44-esr29,exr/ReadingArea_rsl0-rcl2-esl100-rsm0-rcm100-esm100-rsr0-rcr44-esr29.exr,ReadingArea_rsl0-rcl2-esl100-rsm0-rcm100-esm100-rsr0-rcr44-esr29.npz,,,,,0,12,12,11,,right,red,1.68,182.406790971756,182.87504196166992,,1,,3,5,lightness,readingArea,realistic,75,2023-03-18_13h28.17.438,tripletExp_regina_11082022,2022.2.4,120.31818612109548,
1,5,8,0,0.111111111111111,0.298245614035088,0,1.0,0.298245614035088,0,0.25,1.0,ReadingArea_rsl0-rcl11-esl29-rsm0-rcm100-esm29-rsr0-rcr25-esr100,exr/ReadingArea_rsl0-rcl11-esl29-rsm0-rcm100-esm29-rsr0-rcr25-esr100.exr,ReadingArea_rsl0-rcl11-esl29-rsm0-rcm100-esm29-rsr0-rcr25-esr100.npz,,,,,0,13,13,238,,right,red,1.22,184.5767178535461,185.0284378528595,,1,,3,5,lightness,readingArea,realistic,75,2023-03-18_13h28.17.438,tripletExp_regina_11082022,2022.2.4,120.31818612109548,
14,9,0,0,0.25,3.10526315789474,0,0.444444444444444,1.0,0,0.027777777777778,0.298245614035088,ReadingArea_rsl0-rcl25-esl310-rsm0-rcm44-esm100-rsr0-rcr2-esr29,exr/ReadingArea_rsl0-rcl25-esl310-rsm0-rcm44-esm100-rsr0-rcr2-esr29.exr,ReadingArea_rsl0-rcl25-esl310-rsm0-rcm44-esm100-rsr0-rcr2-esr29.npz,,,,,0,14,14,313,,left,green,0.92,186.7205460071564,187.1881139278412,,1,,3,5,lightness,readingArea,realistic,75,2023-03-18_13h28.17.438,tripletExp_regina_11082022,2022.2.4,120.31818612109548,
10,3,14,0,0.694444444444444,1.0,0,0.444444444444444,0.298245614035088,0,0.25,3.10526315789474,ReadingArea_rsl0-rcl69-esl100-rsm0-rcm44-esm29-rsr0-rcr25-esr310,exr/ReadingArea_rsl0-rcl69-esl100-rsm0-rcm44-esm29-rsr0-rcr25-esr310.exr,ReadingArea_rsl0-rcl69-esl100-rsm0-rcm44-esm29-rsr0-rcr25-esr310.npz,,,,,0,15,15,597,,left,green,4.68,192.4199879169464,192.9703278541565,,1,,3,5,lightness,readingArea,realistic,75,2023-03-18_13h28.17.438,tripletExp_regina_11082022,2022.2.4,120.31818612109548,
5,3,6,0,1.0,0.298245614035088,0,0.444444444444444,0.298245614035088,0,0.027777777777778,1.0,ReadingArea_rsl0-rcl100-esl29-rsm0-rcm44-esm29-rsr0-rcr2-esr100,exr/ReadingArea_rsl0-rcl100-esl29-rsm0-rcm44-esm29-rsr0-rcr2-esr100.exr,ReadingArea_rsl0-rcl100-esl29-rsm0-rcm44-esm29-rsr0-rcr2-esr100.npz,,,,,0,16,16,316,,left,green,1.58,194.6756720542908,195.2246999740601,,1,,3,5,lightness,readingArea,realistic,75,2023-03-18_13h28.17.438,tripletExp_regina_11082022,2022.2.4,120.31818612109548,
0,2,1,0,0.027777777777778,0.298245614035088,0,0.25,0.298245614035088,0,0.111111111111111,0.298245614035088,ReadingArea_rsl0-rcl2-esl29-rsm0-rcm25-esm29-rsr0-rcr11-esr29,exr/ReadingArea_rsl0-rcl2-esl29-rsm0-rcm25-esm29-rsr0-rcr11-esr29.exr,ReadingArea_rsl0-rcl2-esl29-rsm0-rcm25-esm29-rsr0-rcr11-esr29.npz,,,,,0,17,17,527,,right,red,1.49,196.9363558292389,197.3844108581543,,1,,3,5,lightness,readingArea,realistic,75,2023-03-18_13h28.17.438,tripletExp_regina_11082022,2022.2.4,120.31818612109548,
0,12,7,0,0.027777777777778,0.298245614035088,0,0.027777777777778,3.10526315789474,0,0.111111111111111,1.0,ReadingArea_rsl0-rcl2-esl29-rsm0-rcm2-esm310-rsr0-rcr11-esr100,exr/ReadingArea_rsl0-rcl2-esl29-rsm0-rcm2-esm310-rsr0-rcr11-esr100.exr,ReadingArea_rsl0-rcl2-esl29-rsm0-rcm2-esm310-rsr0-rcr11-esr100.npz,,,,,0,18,18,481,,right,red,0.91,199.08080196380607,199.54682302474976,,1,,3,5,lightness,readingArea,realistic,75,2023-03-18_13h28.17.438,tripletExp_regina_11082022,2022.2.4,120.31818612109548,
7,14,10,0,0.111111111111111,1.0,0,0.25,3.10526315789474,0,0.694444444444444,1.0,ReadingArea_rsl0-rcl11-esl100-rsm0-rcm25-esm310-rsr0-rcr69-esr100,exr/ReadingArea_rsl0-rcl11-esl100-rsm0-rcm25-esm310-rsr0-rcr69-esr100.exr,ReadingArea_rsl0-rcl11-esl100-rsm0-rcm25-esm310-rsr0-rcr69-esr100.npz,,,,,0,19,19,472,,right,red,0.8,201.238538980484,201.709233045578,,1,,3,5,lightness,readingArea,realistic,75,2023-03-18_13h28.17.438,tripletExp_regina_11082022,2022.2.4,120.31818612109548,
6,7,3,0,0.027777777777778,1.0,0,0.111111111111111,1.0,0,0.444444444444444,0.298245614035088,ReadingArea_rsl0-rcl2-esl100-rsm0-rcm11-esm100-rsr0-rcr44-esr29,exr/ReadingArea_rsl0-rcl2-esl100-rsm0-rcm11-esm100-rsr0-rcr44-esr29.exr,ReadingArea_rsl0-rcl2-esl100-rsm0-rcm11-esm100-rsr0-rcr44-esr29.npz,,,,,0,20,20,47,,right,red,1.03,203.4052698612213,203.82292294502253,,1,,3,5,lightness,readingArea,realistic,75,2023-03-18_13h28.17.438,tripletExp_regina_11082022,2022.2.4,120.31818612109548,
10,11,12,0,0.694444444444444,1.0,0,1.0,1.0,0,0.027777777777778,3.10526315789474,ReadingArea_rsl0-rcl69-esl100-rsm0-rcm100-esm100-rsr0-rcr2-esr310,exr/ReadingArea_rsl0-rcl69-esl100-rsm0-rcm100-esm100-rsr0-rcr2-esr310.exr,ReadingArea_rsl0-rcl69-esl100-rsm0-rcm100-esm100-rsr0-rcr2-esr310.npz,,,,,0,21,21,533,,left,green,0.74,205.52322697639465,205.9467499256134,,1,,3,5,lightness,readingArea,realistic,75,2023-03-18_13h28.17.438,tripletExp_regina_11082022,2022.2.4,120.31818612109548,
4,7,1,0,0.694444444444444,0.298245614035088,0,0.111111111111111,1.0,0,0.111111111111111,0.298245614035088,ReadingArea_rsl0-rcl69-esl29-rsm0-rcm11-esm100-rsr0-rcr11-esr29,exr/ReadingArea_rsl0-rcl69-esl29-rsm0-rcm11-esm100-rsr0-rcr11-esr29.exr,ReadingArea_rsl0-rcl69-esl29-rsm0-rcm11-esm100-rsr0-rcr11-esr29.npz,,,,,0,22,22,33,,left,green,0.95,207.64471101760864,208.0912380218506,,1,,3,5,lightness,readingArea,realistic,75,2023-03-18_13h28.17.438,tripletExp_regina_11082022,2022.2.4,120.31818612109548,
0,14,8,0,0.027777777777778,0.298245614035088,0,0.25,3.10526315789474,0,0.25,1.0,ReadingArea_rsl0-rcl2-esl29-rsm0-rcm25-esm310-rsr0-rcr25-esr100,exr/ReadingArea_rsl0-rcl2-esl29-rsm0-rcm25-esm310-rsr0-rcr25-esr100.exr,ReadingArea_rsl0-rcl2-esl29-rsm0-rcm25-esm310-rsr0-rcr25-esr100.npz,,,,,0,23,23,545,,right,red,0.76,209.7806940078736,210.23191499710083,,1,,3,5,lightness,readingArea,realistic,75,2023-03-18_13h28.17.438,tripletExp_regina_11082022,2022.2.4,120.31818612109548,
1,3,4,0,0.111111111111111,0.298245614035088,0,0.444444444444444,0.298245614035088,0,0.694444444444444,0.298245614035088,ReadingArea_rsl0-rcl11-esl29-rsm0-rcm44-esm29-rsr0-rcr69-esr29,exr/ReadingArea_rsl0-rcl11-esl29-rsm0-rcm44-esm29-rsr0-rcr69-esr29.exr,ReadingArea_rsl0-rcl11-esl29-rsm0-rcm44-esm29-rsr0-rcr69-esr29.npz,,,,,0,24,24,153,,right,red,0.68,211.9233989715576,212.35502696037287,,1,,3,5,lightness,readingArea,realistic,75,2023-03-18_13h28.17.438,tripletExp_regina_11082022,2022.2.4,120.31818612109548,
2,1,6,0,0.25,0.298245614035088,0,0.111111111111111,0.298245614035088,0,0.027777777777778,1.0,ReadingArea_rsl0-rcl25-esl29-rsm0-rcm11-esm29-rsr0-rcr2-esr100,exr/ReadingArea_rsl0-rcl25-esl29-rsm0-rcm11-esm29-rsr0-rcr2-esr100.exr,ReadingArea_rsl0-rcl25-esl29-rsm0-rcm11-esm29-rsr0-rcr2-esr100.npz,,,,,0,25,25,171,,right,red,3.09,215.8324909210205,216.27286195755005,,1,,3,5,lightness,readingArea,realistic,75,2023-03-18_13h28.17.438,tripletExp_regina_11082022,2022.2.4,120.31818612109548,
4,7,5,0,0.694444444444444,0.298245614035088,0,0.111111111111111,1.0,0,1.0,0.298245614035088,ReadingArea_rsl0-rcl69-esl29-rsm0-rcm11-esm100-rsr0-rcr100-esr29,exr/ReadingArea_rsl0-rcl69-esl29-rsm0-rcm11-esm100-rsr0-rcr100-esr29.exr,ReadingArea_rsl0-rcl69-esl29-rsm0-rcm11-esm100-rsr0-rcr100-esr29.npz,,,,,0,26,26,195,,left,green,2.8,219.73611283302307,,,1,,3,5,lightness,readingArea,realistic,75,2023-03-18_13h28.17.438,tripletExp_regina_11082022,2022.2.4,120.31818612109548,
11,5,8,0,1.0,1.0,0,1.0,0.298245614035088,0,0.25,1.0,ReadingArea_rsl0-rcl100-esl100-rsm0-rcm100-esm29-rsr0-rcr25-esr100,exr/ReadingArea_rsl0-rcl100-esl100-rsm0-rcm100-esm29-rsr0-rcr25-esr100.exr,ReadingArea_rsl0-rcl100-esl100-rsm0-rcm100-esm29-rsr0-rcr25-esr100.npz,,,,,0,27,27,86,,right,red,1.24,221.86367988586423,222.3000898361206,,1,,3,5,lightness,readingArea,realistic,75,2023-03-18_13h28.17.438,tripletExp_regina_11082022,2022.2.4,120.31818612109548,
13,11,7,0,0.111111111111111,3.10526315789474,0,1.0,1.0,0,0.111111111111111,1.0,ReadingArea_rsl0-rcl11-esl310-rsm0-rcm100-esm100-rsr0-rcr11-esr100,exr/ReadingArea_rsl0-rcl11-esl310-rsm0-rcm100-esm100-rsr0-rcr11-esr100.exr,ReadingArea_rsl0-rcl11-esl310-rsm0-rcm100-esm100-rsr0-rcr11-esr100.npz,,,,,0,28,28,590,,left,green,1.29,224.0232548713684,224.454824924469,,1,,3,5,lightness,readingArea,realistic,75,2023-03-18_13h28.17.438,tripletExp_regina_11082022,2022.2.4,120.31818612109548,
7,4,1,0,0.111111111111111,1.0,0,0.694444444444444,0.298245614035088,0,0.111111111111111,0.298245614035088,ReadingArea_rsl0-rcl11-esl100-rsm0-rcm69-esm29-rsr0-rcr11-esr29,exr/ReadingArea_rsl0-rcl11-esl100-rsm0-rcm69-esm29-rsr0-rcr11-esr29.exr,ReadingArea_rsl0-rcl11-esl100-rsm0-rcm69-esm29-rsr0-rcr11-esr29.npz,,,,,0,29,29,369,,left,green,1.09,226.1507179737091,226.7070288658142,,1,,3,5,lightness,readingArea,realistic,75,2023-03-18_13h28.17.438,tripletExp_regina_11082022,2022.2.4,120.31818612109548,
14,11,0,0,0.25,3.10526315789474,0,1.0,1.0,0,0.027777777777778,0.298245614035088,ReadingArea_rsl0-rcl25-esl310-rsm0-rcm100-esm100-rsr0-rcr2-esr29,exr/ReadingArea_rsl0-rcl25-esl310-rsm0-rcm100-esm100-rsr0-rcr2-esr29.exr,ReadingArea_rsl0-rcl25-esl310-rsm0-rcm100-esm100-rsr0-rcr2-esr29.npz,,,,,0,30,30,227,,left,green,0.89,228.4019639492035,228.86659598350525,,1,,3,5,lightness,readingArea,realistic,75,2023-03-18_13h28.17.438,tripletExp_regina_11082022,2022.2.4,120.31818612109548,
0,8,6,0,0.027777777777778,0.298245614035088,0,0.25,1.0,0,0.027777777777778,1.0,ReadingArea_rsl0-rcl2-esl29-rsm0-rcm25-esm100-rsr0-rcr2-esr100,exr/ReadingArea_rsl0-rcl2-esl29-rsm0-rcm25-esm100-rsr0-rcr2-esr100.exr,ReadingArea_rsl0-rcl2-esl29-rsm0-rcm25-esm100-rsr0-rcr2-esr100.npz,,,,,0,31,31,92,,right,red,1.09,230.58868288993835,231.1375839710236,,1,,3,5,lightness,readingArea,realistic,75,2023-03-18_13h28.17.438,tripletExp_regina_11082022,2022.2.4,120.31818612109548,
12,8,10,0,0.027777777777778,3.10526315789474,0,0.25,1.0,0,0.694444444444444,1.0,ReadingArea_rsl0-rcl2-esl310-rsm0-rcm25-esm100-rsr0-rcr69-esr100,exr/ReadingArea_rsl0-rcl2-esl310-rsm0-rcm25-esm100-rsr0-rcr69-esr100.exr,ReadingArea_rsl0-rcl2-esl310-rsm0-rcm25-esm100-rsr0-rcr69-esr100.npz,,,,,0,32,32,216,,left,green,4.01,236.33982682228088,236.89369082450867,,1,,3,5,lightness,readingArea,realistic,75,2023-03-18_13h28.17.438,tripletExp_regina_11082022,2022.2.4,120.31818612109548,
6,3,13,0,0.027777777777778,1.0,0,0.444444444444444,0.298245614035088,0,0.111111111111111,3.10526315789474,ReadingArea_rsl0-rcl2-esl100-rsm0-rcm44-esm29-rsr0-rcr11-esr310,exr/ReadingArea_rsl0-rcl2-esl100-rsm0-rcm44-esm29-rsr0-rcr11-esr310.exr,ReadingArea_rsl0-rcl2-esl100-rsm0-rcm44-esm29-rsr0-rcr11-esr310.npz,,,,,0,33,33,228,,right,red,1.25,238.5830898284912,239.04678082466123,,1,,3,5,lightness,readingArea,realistic,75,2023-03-18_13h28.17.438,tripletExp_regina_11082022,2022.2.4,120.31818612109548,
2,9,8,0,0.25,0.298245614035088,0,0.444444444444444,1.0,0,0.25,1.0,ReadingArea_rsl0-rcl25-esl29-rsm0-rcm44-esm100-rsr0-rcr25-esr100,exr/ReadingArea_rsl0-rcl25-esl29-rsm0-rcm44-esm100-rsr0-rcr25-esr100.exr,ReadingArea_rsl0-rcl25-esl29-rsm0-rcm44-esm100-rsr0-rcr25-esr100.npz,,,,,0,34,34,407,,right,red,0.95,240.7662808895111,241.1887629032135,,1,,3,5,lightness,readingArea,realistic,75,2023-03-18_13h28.17.438,tripletExp_regina_11082022,2022.2.4,120.31818612109548,
4,10,6,0,0.694444444444444,0.298245614035088,0,0.694444444444444,1.0,0,0.027777777777778,1.0,ReadingArea_rsl0-rcl69-esl29-rsm0-rcm69-esm100-rsr0-rcr2-esr100,exr/ReadingArea_rsl0-rcl69-esl29-rsm0-rcm69-esm100-rsr0-rcr2-esr100.exr,ReadingArea_rsl0-rcl69-esl29-rsm0-rcm69-esm100-rsr0-rcr2-esr100.npz,,,,,0,35,35,468,,left,green,1.14,242.89449882507324,243.4863629341125,,1,,3,5,lightness,readingArea,realistic,75,2023-03-18_13h28.17.438,tripletExp_regina_11082022,2022.2.4,120.31818612109548,
10,3,0,0,0.694444444444444,1.0,0,0.444444444444444,0.298245614035088,0,0.027777777777778,0.298245614035088,ReadingArea_rsl0-rcl69-esl100-rsm0-rcm44-esm29-rsr0-rcr2-esr29,exr/ReadingArea_rsl0-rcl69-esl100-rsm0-rcm44-esm29-rsr0-rcr2-esr29.exr,ReadingArea_rsl0-rcl69-esl100-rsm0-rcm44-esm29-rsr0-rcr2-esr29.npz,,,,,0,36,36,203,,left,green,1.34,245.18310284614563,245.59547996521,,1,,3,5,lightness,readingArea,realistic,75,2023-03-18_13h28.17.438,tripletExp_regina_11082022,2022.2.4,120.31818612109548,
11,7,14,0,1.0,1.0,0,0.111111111111111,1.0,0,0.25,3.10526315789474,ReadingArea_rsl0-rcl100-esl100-rsm0-rcm11-esm100-rsr0-rcr25-esr310,exr/ReadingArea_rsl0-rcl100-esl100-rsm0-rcm11-esm100-rsr0-rcr25-esr310.exr,ReadingArea_rsl0-rcl100-esl100-rsm0-rcm11-esm100-rsr0-rcr25-esr310.npz,,,,,0,37,37,119,,left,green,1.62,247.2850949764252,247.7633719444275,,1,,3,5,lightness,readingArea,realistic,75,2023-03-18_13h28.17.438,tripletExp_regina_11082022,2022.2.4,120.31818612109548,
7,8,3,0,0.111111111111111,1.0,0,0.25,1.0,0,0.444444444444444,0.298245614035088,ReadingArea_rsl0-rcl11-esl100-rsm0-rcm25-esm100-rsr0-rcr44-esr29,exr/ReadingArea_rsl0-rcl11-esl100-rsm0-rcm25-esm100-rsr0-rcr44-esr29.exr,ReadingArea_rsl0-rcl11-esl100-rsm0-rcm25-esm100-rsr0-rcr44-esr29.npz,,,,,0,38,38,459,,right,red,1.51,249.46832489967343,249.89445805549624,,1,,3,5,lightness,readingArea,realistic,75,2023-03-18_13h28.17.438,tripletExp_regina_11082022,2022.2.4,120.31818612109548,
12,6,7,0,0.027777777777778,3.10526315789474,0,0.027777777777778,1.0,0,0.111111111111111,1.0,ReadingArea_rsl0-rcl2-esl310-rsm0-rcm2-esm100-rsr0-rcr11-esr100,exr/ReadingArea_rsl0-rcl2-esl310-rsm0-rcm2-esm100-rsr0-rcr11-esr100.exr,ReadingArea_rsl0-rcl2-esl310-rsm0-rcm2-esm100-rsr0-rcr11-esr100.npz,,,,,0,39,39,308,,left,green,1.42,251.59527587890625,252.00999689102173,,1,,3,5,lightness,readingArea,realistic,75,2023-03-18_13h28.17.438,tripletExp_regina_11082022,2022.2.4,120.31818612109548,
9,4,14,0,0.444444444444444,1.0,0,0.694444444444444,0.298245614035088,0,0.25,3.10526315789474,ReadingArea_rsl0-rcl44-esl100-rsm0-rcm69-esm29-rsr0-rcr25-esr310,exr/ReadingArea_rsl0-rcl44-esl100-rsm0-rcm69-esm29-rsr0-rcr25-esr310.exr,ReadingArea_rsl0-rcl44-esl100-rsm0-rcm69-esm29-rsr0-rcr25-esr310.npz,,,,,0,40,40,104,,left,green,1.01,253.7107739448548,254.11969089508057,,1,,3,5,lightness,readingArea,realistic,75,2023-03-18_13h28.17.438,tripletExp_regina_11082022,2022.2.4,120.31818612109548,
9,11,10,0,0.444444444444444,1.0,0,1.0,1.0,0,0.694444444444444,1.0,ReadingArea_rsl0-rcl44-esl100-rsm0-rcm100-esm100-rsr0-rcr69-esr100,exr/ReadingArea_rsl0-rcl44-esl100-rsm0-rcm100-esm100-rsr0-rcr69-esr100.exr,ReadingArea_rsl0-rcl44-esl100-rsm0-rcm100-esm100-rsr0-rcr69-esr100.npz,,,,,0,41,41,591,,right,red,0.88,255.8293709754944,256.2812738418579,,1,,3,5,lightness,readingArea,realistic,75,2023-03-18_13h28.17.438,tripletExp_regina_11082022,2022.2.4,120.31818612109548,
8,12,7,0,0.25,1.0,0,0.027777777777778,3.10526315789474,0,0.111111111111111,1.0,ReadingArea_rsl0-rcl25-esl100-rsm0-rcm2-esm310-rsr0-rcr11-esr100,exr/ReadingArea_rsl0-rcl25-esl100-rsm0-rcm2-esm310-rsr0-rcr11-esr100.exr,ReadingArea_rsl0-rcl25-esl100-rsm0-rcm2-esm310-rsr0-rcr11-esr100.npz,,,,,0,42,42,467,,right,red,1.12,257.9677219390869,258.4123270511627,,1,,3,5,lightness,readingArea,realistic,75,2023-03-18_13h28.17.438,tripletExp_regina_11082022,2022.2.4,120.31818612109548,
8,13,9,0,0.25,1.0,0,0.111111111111111,3.10526315789474,0,0.444444444444444,1.0,ReadingArea_rsl0-rcl25-esl100-rsm0-rcm11-esm310-rsr0-rcr44-esr100,exr/ReadingArea_rsl0-rcl25-esl100-rsm0-rcm11-esm310-rsr0-rcr44-esr100.exr,ReadingArea_rsl0-rcl25-esl100-rsm0-rcm11-esm310-rsr0-rcr44-esr100.npz,,,,,0,43,43,487,,left,green,1.31,260.1104140281677,260.7008278369904,,1,,3,5,lightness,readingArea,realistic,75,2023-03-18_13h28.17.438,tripletExp_regina_11082022,2022.2.4,120.31818612109548,
6,4,2,0,0.027777777777778,1.0,0,0.694444444444444,0.298245614035088,0,0.25,0.298245614035088,ReadingArea_rsl0-rcl2-esl100-rsm0-rcm69-esm29-rsr0-rcr25-esr29,exr/ReadingArea_rsl0-rcl2-esl100-rsm0-rcm69-esm29-rsr0-rcr25-esr29.exr,ReadingArea_rsl0-rcl2-esl100-rsm0-rcm69-esm29-rsr0-rcr25-esr29.npz,,,,,0,44,44,134,,right,red,1.6,262.3918850421905,262.8778898715973,,1,,3,5,lightness,readingArea,realistic,75,2023-03-18_13h28.17.438,tripletExp_regina_11082022,2022.2.4,120.31818612109548,
10,14,4,0,0.694444444444444,1.0,0,0.25,3.10526315789474,0,0.694444444444444,0.298245614035088,ReadingArea_rsl0-rcl69-esl100-rsm0-rcm25-esm310-rsr0-rcr69-esr29,exr/ReadingArea_rsl0-rcl69-esl100-rsm0-rcm25-esm310-rsr0-rcr69-esr29.exr,ReadingArea_rsl0-rcl69-esl100-rsm0-rcm25-esm310-rsr0-rcr69-esr29.npz,,,,,0,45,45,267,,left,green,1.16,264.59985399246216,265.0935740470886,,1,,3,5,lightness,readingArea,realistic,75,2023-03-18_13h28.17.438,tripletExp_regina_11082022,2022.2.4,120.31818612109548,
0,5,12,0,0.027777777777778,0.298245614035088,0,1.0,0.298245614035088,0,0.027777777777778,3.10526315789474,ReadingArea_rsl0-rcl2-esl29-rsm0-rcm100-esm29-rsr0-rcr2-esr310,exr/ReadingArea_rsl0-rcl2-esl29-rsm0-rcm100-esm29-rsr0-rcr2-esr310.exr,ReadingArea_rsl0-rcl2-esl29-rsm0-rcm100-esm29-rsr0-rcr2-esr310.npz,,,,,0,46,46,366,,right,red,0.84,266.8123378753662,267.26449489593506,,1,,3,5,lightness,readingArea,realistic,75,2023-03-18_13h28.17.438,tripletExp_regina_11082022,2022.2.4,120.31818612109548,
12,7,2,0,0.027777777777778,3.10526315789474,0,0.111111111111111,1.0,0,0.25,0.298245614035088,ReadingArea_rsl0-rcl2-esl310-rsm0-rcm11-esm100-rsr0-rcr25-esr29,exr/ReadingArea_rsl0-rcl2-esl310-rsm0-rcm11-esm100-rsr0-rcr25-esr29.exr,ReadingArea_rsl0-rcl2-esl310-rsm0-rcm11-esm100-rsr0-rcr25-esr29.npz,,,,,0,47,47,248,,right,red,4.69,272.49024200439453,272.96405601501465,,1,,3,5,lightness,readingArea,realistic,75,2023-03-18_13h28.17.438,tripletExp_regina_11082022,2022.2.4,120.31818612109548,
5,4,1,0,1.0,0.298245614035088,0,0.694444444444444,0.298245614035088,0,0.111111111111111,0.298245614035088,ReadingArea_rsl0-rcl100-esl29-rsm0-rcm69-esm29-rsr0-rcr11-esr29,exr/ReadingArea_rsl0-rcl100-esl29-rsm0-rcm69-esm29-rsr0-rcr11-esr29.exr,ReadingArea_rsl0-rcl100-esl29-rsm0-rcm69-esm29-rsr0-rcr11-esr29.npz,,,,,0,48,48,560,,left,green,0.88,274.66239500045776,275.1433629989624,,1,,3,5,lightness,readingArea,realistic,75,2023-03-18_13h28.17.438,tripletExp_regina_11082022,2022.2.4,120.31818612109548,
1,8,12,0,0.111111111111111,0.298245614035088,0,0.25,1.0,0,0.027777777777778,3.10526315789474,ReadingArea_rsl0-rcl11-esl29-rsm0-rcm25-esm100-rsr0-rcr2-esr310,exr/ReadingArea_rsl0-rcl11-esl29-rsm0-rcm25-esm100-rsr0-rcr2-esr310.exr,ReadingArea_rsl0-rcl11-esl29-rsm0-rcm25-esm100-rsr0-rcr2-esr310.npz,,,,,0,49,49,156,,right,red,1.17,276.8312180042267,277.25040793418884,,1,,3,5,lightness,readingArea,realistic,75,2023-03-18_13h28.17.438,tripletExp_regina_11082022,2022.2.4,120.31818612109548,
11,5,3,0,1.0,1.0,0,1.0,0.298245614035088,0,0.444444444444444,0.298245614035088,ReadingArea_rsl0-rcl100-esl100-rsm0-rcm100-esm29-rsr0-rcr44-esr29,exr/ReadingArea_rsl0-rcl100-esl100-rsm0-rcm100-esm29-rsr0-rcr44-esr29.exr,ReadingArea_rsl0-rcl100-esl100-rsm0-rcm100-esm29-rsr0-rcr44-esr29.npz,,,,,0,50,50,172,,left,green,1.57,278.9664399623871,279.4074008464813,,1,,3,5,lightness,readingArea,realistic,75,2023-03-18_13h28.17.438,tripletExp_regina_11082022,2022.2.4,120.31818612109548,
4,5,8,0,0.694444444444444,0.298245614035088,0,1.0,0.298245614035088,0,0.25,1.0,ReadingArea_rsl0-rcl69-esl29-rsm0-rcm100-esm29-rsr0-rcr25-esr100,exr/ReadingArea_rsl0-rcl69-esl29-rsm0-rcm100-esm29-rsr0-rcr25-esr100.exr,ReadingArea_rsl0-rcl69-esl29-rsm0-rcm100-esm29-rsr0-rcr25-esr100.npz,,,,,0,51,51,54,,right,red,1.23,281.12116384506226,281.5781509876251,,1,,3,5,lightness,readingArea,realistic,75,2023-03-18_13h28.17.438,tripletExp_regina_11082022,2022.2.4,120.31818612109548,
7,8,11,0,0.111111111111111,1.0,0,0.25,1.0,0,1.0,1.0,ReadingArea_rsl0-rcl11-esl100-rsm0-rcm25-esm100-rsr0-rcr100-esr100,exr/ReadingArea_rsl0-rcl11-esl100-rsm0-rcm25-esm100-rsr0-rcr100-esr100.exr,ReadingArea_rsl0-rcl11-esl100-rsm0-rcm25-esm100-rsr0-rcr100-esr100.npz,,,,,0,52,52,363,,left,green,1.1,283.2684369087219,283.8178470134735,,1,,3,5,lightness,readingArea,realistic,75,2023-03-18_13h28.17.438,tripletExp_regina_11082022,2022.2.4,120.31818612109548,
11,14,9,0,1.0,1.0,0,0.25,3.10526315789474,0,0.444444444444444,1.0,ReadingArea_rsl0-rcl100-esl100-rsm0-rcm25-esm310-rsr0-rcr44-esr100,exr/ReadingArea_rsl0-rcl100-esl100-rsm0-rcm25-esm310-rsr0-rcr44-esr100.exr,ReadingArea_rsl0-rcl100-esl100-rsm0-rcm25-esm310-rsr0-rcr44-esr100.npz,,,,,0,53,53,43,,left,green,0.86,285.52261996269226,285.968318939209,,1,,3,5,lightness,readingArea,realistic,75,2023-03-18_13h28.17.438,tripletExp_regina_11082022,2022.2.4,120.31818612109548,
9,6,1,0,0.444444444444444,1.0,0,0.027777777777778,1.0,0,0.111111111111111,0.298245614035088,ReadingArea_rsl0-rcl44-esl100-rsm0-rcm2-esm100-rsr0-rcr11-esr29,exr/ReadingArea_rsl0-rcl44-esl100-rsm0-rcm2-esm100-rsr0-rcr11-esr29.exr,ReadingArea_rsl0-rcl44-esl100-rsm0-rcm2-esm100-rsr0-rcr11-esr29.npz,,,,,0,54,54,526,,right,red,1.07,287.68411803245544,288.23744797706604,,1,,3,5,lightness,readingArea,realistic,75,2023-03-18_13h28.17.438,tripletExp_regina_11082022,2022.2.4,120.31818612109548,
9,14,7,0,0.444444444444444,1.0,0,0.25,3.10526315789474,0,0.111111111111111,1.0,ReadingArea_rsl0-rcl44-esl100-rsm0-rcm25-esm310-rsr0-rcr11-esr100,exr/ReadingArea_rsl0-rcl44-esl100-rsm0-rcm25-esm310-rsr0-rcr11-esr100.exr,ReadingArea_rsl0-rcl44-esl100-rsm0-rcm25-esm310-rsr0-rcr11-esr100.npz,,,,,0,55,55,44,,left,green,0.94,289.92190885543823,,,1,,3,5,lightness,readingArea,realistic,75,2023-03-18_13h28.17.438,tripletExp_regina_11082022,2022.2.4,120.31818612109548,
6,1,9,0,0.027777777777778,1.0,0,0.111111111111111,0.298245614035088,0,0.444444444444444,1.0,ReadingArea_rsl0-rcl2-esl100-rsm0-rcm11-esm29-rsr0-rcr44-esr100,exr/ReadingArea_rsl0-rcl2-esl100-rsm0-rcm11-esm29-rsr0-rcr44-esr100.exr,ReadingArea_rsl0-rcl2-esl100-rsm0-rcm11-esm29-rsr0-rcr44-esr100.npz,,,,,0,56,56,74,,left,green,1.3,292.08016705513,292.5476188659668,,1,,3,5,lightness,readingArea,realistic,75,2023-03-18_13h28.17.438,tripletExp_regina_11082022,2022.2.4,120.31818612109548,
0,8,9,0,0.027777777777778,0.298245614035088,0,0.25,1.0,0,0.444444444444444,1.0,ReadingArea_rsl0-rcl2-esl29-rsm0-rcm25-esm100-rsr0-rcr44-esr100,exr/ReadingArea_rsl0-rcl2-esl29-rsm0-rcm25-esm100-rsr0-rcr44-esr100.exr,ReadingArea_rsl0-rcl2-esl29-rsm0-rcm25-esm100-rsr0-rcr44-esr100.npz,,,,,0,57,57,541,,right,red,0.87,294.25959491729736,294.7564709186554,,1,,3,5,lightness,readingArea,realistic,75,2023-03-18_13h28.17.438,tripletExp_regina_11082022,2022.2.4,120.31818612109548,
13,7,6,0,0.111111111111111,3.10526315789474,0,0.111111111111111,1.0,0,0.027777777777778,1.0,ReadingArea_rsl0-rcl11-esl310-rsm0-rcm11-esm100-rsr0-rcr2-esr100,exr/ReadingArea_rsl0-rcl11-esl310-rsm0-rcm11-esm100-rsr0-rcr2-esr100.exr,ReadingArea_rsl0-rcl11-esl310-rsm0-rcm11-esm100-rsr0-rcr2-esr100.npz,,,,,0,58,58,283,,left,green,0.79,296.4521100521088,296.9715030193329,,1,,3,5,lightness,readingArea,realistic,75,2023-03-18_13h28.17.438,tripletExp_regina_11082022,2022.2.4,120.31818612109548,
13,11,10,0,0.111111111111111,3.10526315789474,0,1.0,1.0,0,0.694444444444444,1.0,ReadingArea_rsl0-rcl11-esl310-rsm0-rcm100-esm100-rsr0-rcr69-esr100,exr/ReadingArea_rsl0-rcl11-esl310-rsm0-rcm100-esm100-rsr0-rcr69-esr100.exr,ReadingArea_rsl0-rcl11-esl310-rsm0-rcm100-esm100-rsr0-rcr69-esr100.npz,,,,,0,59,59,577,,right,red,0.9,298.66132283210754,299.16018295288086,,1,,3,5,lightness,readingArea,realistic,75,2023-03-18_13h28.17.438,tripletExp_regina_11082022,2022.2.4,120.31818612109548,
3,14,10,0,0.444444444444444,0.298245614035088,0,0.25,3.10526315789474,0,0.694444444444444,1.0,ReadingArea_rsl0-rcl44-esl29-rsm0-rcm25-esm310-rsr0-rcr69-esr100,exr/ReadingArea_rsl0-rcl44-esl29-rsm0-rcm25-esm310-rsr0-rcr69-esr100.exr,ReadingArea_rsl0-rcl44-esl29-rsm0-rcm25-esm310-rsr0-rcr69-esr100.npz,,,,,0,60,60,279,,right,red,0.77,300.8678948879242,301.31955790519714,,1,,3,5,lightness,readingArea,realistic,75,2023-03-18_13h28.17.438,tripletExp_regina_11082022,2022.2.4,120.31818612109548,
10,4,13,0,0.694444444444444,1.0,0,0.694444444444444,0.298245614035088,0,0.111111111111111,3.10526315789474,ReadingArea_rsl0-rcl69-esl100-rsm0-rcm69-esm29-rsr0-rcr11-esr310,exr/ReadingArea_rsl0-rcl69-esl100-rsm0-rcm69-esm29-rsr0-rcr11-esr310.exr,ReadingArea_rsl0-rcl69-esl100-rsm0-rcm69-esm29-rsr0-rcr11-esr310.npz,,,,,0,61,61,24,,right,red,0.82,303.02840089797974,303.5039930343628,,1,,3,5,lightness,readingArea,realistic,75,2023-03-18_13h28.17.438,tripletExp_regina_11082022,2022.2.4,120.31818612109548,
0,5,2,0,0.027777777777778,0.298245614035088,0,1.0,0.298245614035088,0,0.25,0.298245614035088,ReadingArea_rsl0-rcl2-esl29-rsm0-rcm100-esm29-rsr0-rcr25-esr29,exr/ReadingArea_rsl0-rcl2-esl29-rsm0-rcm100-esm29-rsr0-rcr25-esr29.exr,ReadingArea_rsl0-rcl2-esl29-rsm0-rcm100-esm29-rsr0-rcr25-esr29.npz,,,,,0,62,62,25,,right,red,1.2,305.19461584091187,305.6367709636688,,1,,3,5,lightness,readingArea,realistic,75,2023-03-18_13h28.17.438,tripletExp_regina_11082022,2022.2.4,120.31818612109548,
9,11,5,0,0.444444444444444,1.0,0,1.0,1.0,0,1.0,0.298245614035088,ReadingArea_rsl0-rcl44-esl100-rsm0-rcm100-esm100-rsr0-rcr100-esr29,exr/ReadingArea_rsl0-rcl44-esl100-rsm0-rcm100-esm100-rsr0-rcr100-esr29.exr,ReadingArea_rsl0-rcl44-esl100-rsm0-rcm100-esm100-rsr0-rcr100-esr29.npz,,,,,0,63,63,142,,left,green,0.99,307.3277039527893,307.8548469543457,,1,,3,5,lightness,readingArea,realistic,75,2023-03-18_13h28.17.438,tripletExp_regina_11082022,2022.2.4,120.31818612109548,
10,7,11,0,0.694444444444444,1.0,0,0.111111111111111,1.0,0,1.0,1.0,ReadingArea_rsl0-rcl69-esl100-rsm0-rcm11-esm100-rsr0-rcr100-esr100,exr/ReadingArea_rsl0-rcl69-esl100-rsm0-rcm11-esm100-rsr0-rcr100-esr100.exr,ReadingArea_rsl0-rcl69-esl100-rsm0-rcm11-esm100-rsr0-rcr100-esr100.npz,,,,,0,64,64,542,,left,green,2.98,311.3288290500641,311.7853579521179,,1,,3,5,lightness,readingArea,realistic,75,2023-03-18_13h28.17.438,tripletExp_regina_11082022,2022.2.4,120.31818612109548,
10,7,2,0,0.694444444444444,1.0,0,0.111111111111111,1.0,0,0.25,0.298245614035088,ReadingArea_rsl0-rcl69-esl100-rsm0-rcm11-esm100-rsr0-rcr25-esr29,exr/ReadingArea_rsl0-rcl69-esl100-rsm0-rcm11-esm100-rsr0-rcr25-esr29.exr,ReadingArea_rsl0-rcl69-esl100-rsm0-rcm11-esm100-rsr0-rcr25-esr29.npz,,,,,0,65,65,523,,right,red,1.16,313.5068678855896,313.9336588382721,,1,,3,5,lightness,readingArea,realistic,75,2023-03-18_13h28.17.438,tripletExp_regina_11082022,2022.2.4,120.31818612109548,
2,4,13,0,0.25,0.298245614035088,0,0.694444444444444,0.298245614035088,0,0.111111111111111,3.10526315789474,ReadingArea_rsl0-rcl25-esl29-rsm0-rcm69-esm29-rsr0-rcr11-esr310,exr/ReadingArea_rsl0-rcl25-esl29-rsm0-rcm69-esm29-rsr0-rcr11-esr310.exr,ReadingArea_rsl0-rcl25-esl29-rsm0-rcm69-esm29-rsr0-rcr11-esr310.npz,,,,,0,66,66,325,,right,red,0.83,315.6426148414612,,,1,,3,5,lightness,readingArea,realistic,75,2023-03-18_13h28.17.438,tripletExp_regina_11082022,2022.2.4,120.31818612109548,
1,10,7,0,0.111111111111111,0.298245614035088,0,0.694444444444444,1.0,0,0.111111111111111,1.0,ReadingArea_rsl0-rcl11-esl29-rsm0-rcm69-esm100-rsr0-rcr11-esr100,exr/ReadingArea_rsl0-rcl11-esl29-rsm0-rcm69-esm100-rsr0-rcr11-esr100.exr,ReadingArea_rsl0-rcl11-esl29-rsm0-rcm69-esm100-rsr0-rcr11-esr100.npz,,,,,0,67,67,94,,right,red,1.01,317.7891778945923,318.2703378200531,,1,,3,5,lightness,readingArea,realistic,75,2023-03-18_13h28.17.438,tripletExp_regina_11082022,2022.2.4,120.31818612109548,
10,14,13,0,0.694444444444444,1.0,0,0.25,3.10526315789474,0,0.111111111111111,3.10526315789474,ReadingArea_rsl0-rcl69-esl100-rsm0-rcm25-esm310-rsr0-rcr11-esr310,exr/ReadingArea_rsl0-rcl69-esl100-rsm0-rcm25-esm310-rsr0-rcr11-esr310.exr,ReadingArea_rsl0-rcl69-esl100-rsm0-rcm25-esm310-rsr0-rcr11-esr310.npz,,,,,0,68,68,168,,left,green,1.11,319.98618602752686,320.43691396713257,,1,,3,5,lightness,readingArea,realistic,75,2023-03-18_13h28.17.438,tripletExp_regina_11082022,2022.2.4,120.31818612109548,
2,14,7,0,0.25,0.298245614035088,0,0.25,3.10526315789474,0,0.111111111111111,1.0,ReadingArea_rsl0-rcl25-esl29-rsm0-rcm25-esm310-rsr0-rcr11-esr100,exr/ReadingArea_rsl0-rcl25-esl29-rsm0-rcm25-esm310-rsr0-rcr11-esr100.exr,ReadingArea_rsl0-rcl25-esl29-rsm0-rcm25-esm310-rsr0-rcr11-esr100.npz,,,,,0,69,69,310,,right,red,1.44,322.1343128681183,322.5976178646088,,1,,3,5,lightness,readingArea,realistic,75,2023-03-18_13h28.17.438,tripletExp_regina_11082022,2022.2.4,120.31818612109548,
7,8,12,0,0.111111111111111,1.0,0,0.25,1.0,0,0.027777777777778,3.10526315789474,ReadingArea_rsl0-rcl11-esl100-rsm0-rcm25-esm100-rsr0-rcr2-esr310,exr/ReadingArea_rsl0-rcl11-esl100-rsm0-rcm25-esm100-rsr0-rcr2-esr310.exr,ReadingArea_rsl0-rcl11-esl100-rsm0-rcm25-esm100-rsr0-rcr2-esr310.npz,,,,,0,70,70,271,,left,green,1.66,324.28802704811096,324.7769548892975,,1,,3,5,lightness,readingArea,realistic,75,2023-03-18_13h28.17.438,tripletExp_regina_11082022,2022.2.4,120.31818612109548,
12,13,14,0,0.027777777777778,3.10526315789474,0,0.111111111111111,3.10526315789474,0,0.25,3.10526315789474,ReadingArea_rsl0-rcl2-esl310-rsm0-rcm11-esm310-rsr0-rcr25-esr310,exr/ReadingArea_rsl0-rcl2-esl310-rsm0-rcm11-esm310-rsr0-rcr25-esr310.exr,ReadingArea_rsl0-rcl2-esl310-rsm0-rcm11-esm310-rsr0-rcr25-esr310.npz,,,,,0,71,71,208,,right,red,2.9,328.2428569793701,328.6861000061035,,1,,3,5,lightness,readingArea,realistic,75,2023-03-18_13h28.17.438,tripletExp_regina_11082022,2022.2.4,120.31818612109548,
2,8,4,0,0.25,0.298245614035088,0,0.25,1.0,0,0.694444444444444,0.298245614035088,ReadingArea_rsl0-rcl25-esl29-rsm0-rcm25-esm100-rsr0-rcr69-esr29,exr/ReadingArea_rsl0-rcl25-esl29-rsm0-rcm25-esm100-rsr0-rcr69-esr29.exr,ReadingArea_rsl0-rcl25-esl29-rsm0-rcm25-esm100-rsr0-rcr69-esr29.npz,,,,,0,72,72,507,,right,red,1.23,330.390408039093,330.8613519668579,,1,,3,5,lightness,readingArea,realistic,75,2023-03-18_13h28.17.438,tripletExp_regina_11082022,2022.2.4,120.31818612109548,
0,11,9,0,0.027777777777778,0.298245614035088,0,1.0,1.0,0,0.444444444444444,1.0,ReadingArea_rsl0-rcl2-esl29-rsm0-rcm100-esm100-rsr0-rcr44-esr100,exr/ReadingArea_rsl0-rcl2-esl29-rsm0-rcm100-esm100-rsr0-rcr44-esr100.exr,ReadingArea_rsl0-rcl2-esl29-rsm0-rcm100-esm100-rsr0-rcr44-esr100.npz,,,,,0,73,73,32,,right,red,0.75,332.5747458934784,333.0082769393921,,1,,3,5,lightness,readingArea,realistic,75,2023-03-18_13h28.17.438,tripletExp_regina_11082022,2022.2.4,120.31818612109548,
11,13,8,0,1.0,1.0,0,0.111111111111111,3.10526315789474,0,0.25,1.0,ReadingArea_rsl0-rcl100-esl100-rsm0-rcm11-esm310-rsr0-rcr25-esr100,exr/ReadingArea_rsl0-rcl100-esl100-rsm0-rcm11-esm310-rsr0-rcr25-esr100.exr,ReadingArea_rsl0-rcl100-esl100-rsm0-rcm11-esm310-rsr0-rcr25-esr100.npz,,,,,0,74,74,198,,right,red,0.8,334.7160029411316,334.9196538925171,,1,,3,5,lightness,readingArea,realistic,75,2023-03-18_13h28.17.438,tripletExp_regina_11082022,2022.2.4,120.31818612109548,
8,13,2,0,0.25,1.0,0,0.111111111111111,3.10526315789474,0,0.25,0.298245614035088,ReadingArea_rsl0-rcl25-esl100-rsm0-rcm11-esm310-rsr0-rcr25-esr29,exr/ReadingArea_rsl0-rcl25-esl100-rsm0-rcm11-esm310-rsr0-rcr25-esr29.exr,ReadingArea_rsl0-rcl25-esl100-rsm0-rcm11-esm310-rsr0-rcr25-esr29.npz,,,,,0,75,75,376,,left,green,0.93,343.06952595710754,343.51016497612,,2,,3,5,lightness,readingArea,realistic,75,2023-03-18_13h28.17.438,tripletExp_regina_11082022,2022.2.4,120.31818612109548,
14,6,11,0,0.25,3.10526315789474,0,0.027777777777778,1.0,0,1.0,1.0,ReadingArea_rsl0-rcl25-esl310-rsm0-rcm2-esm100-rsr0-rcr100-esr100,exr/ReadingArea_rsl0-rcl25-esl310-rsm0-rcm2-esm100-rsr0-rcr100-esr100.exr,ReadingArea_rsl0-rcl25-esl310-rsm0-rcm2-esm100-rsr0-rcr100-esr100.npz,,,,,0,76,76,337,,left,green,3.1,346.98730397224426,347.43020701408386,,2,,3,5,lightness,readingArea,realistic,75,2023-03-18_13h28.17.438,tripletExp_regina_11082022,2022.2.4,120.31818612109548,
7,5,11,0,0.111111111111111,1.0,0,1.0,0.298245614035088,0,1.0,1.0,ReadingArea_rsl0-rcl11-esl100-rsm0-rcm100-esm29-rsr0-rcr100-esr100,exr/ReadingArea_rsl0-rcl11-esl100-rsm0-rcm100-esm29-rsr0-rcr100-esr100.exr,ReadingArea_rsl0-rcl11-esl100-rsm0-rcm100-esm29-rsr0-rcr100-esr100.npz,,,,,0,77,77,10,,left,green,1.3,349.1514229774475,349.59881591796875,,2,,3,5,lightness,readingArea,realistic,75,2023-03-18_13h28.17.438,tripletExp_regina_11082022,2022.2.4,120.31818612109548,
1,13,2,0,0.111111111111111,0.298245614035088,0,0.111111111111111,3.10526315789474,0,0.25,0.298245614035088,ReadingArea_rsl0-rcl11-esl29-rsm0-rcm11-esm310-rsr0-rcr25-esr29,exr/ReadingArea_rsl0-rcl11-esl29-rsm0-rcm11-esm310-rsr0-rcr25-esr29.exr,ReadingArea_rsl0-rcl11-esl29-rsm0-rcm11-esm310-rsr0-rcr25-esr29.npz,,,,,0,78,78,118,,right,red,1.13,351.29724884033203,351.79058504104614,,2,,3,5,lightness,readingArea,realistic,75,2023-03-18_13h28.17.438,tripletExp_regina_11082022,2022.2.4,120.31818612109548,
9,12,11,0,0.444444444444444,1.0,0,0.027777777777778,3.10526315789474,0,1.0,1.0,ReadingArea_rsl0-rcl44-esl100-rsm0-rcm2-esm310-rsr0-rcr100-esr100,exr/ReadingArea_rsl0-rcl44-esl100-rsm0-rcm2-esm310-rsr0-rcr100-esr100.exr,ReadingArea_rsl0-rcl44-esl100-rsm0-rcm2-esm310-rsr0-rcr100-esr100.npz,,,,,0,79,79,144,,left,green,1.24,353.4934158325196,353.96811985969543,,2,,3,5,lightness,readingArea,realistic,75,2023-03-18_13h28.17.438,tripletExp_regina_11082022,2022.2.4,120.31818612109548,
5,10,12,0,1.0,0.298245614035088,0,0.694444444444444,1.0,0,0.027777777777778,3.10526315789474,ReadingArea_rsl0-rcl100-esl29-rsm0-rcm69-esm100-rsr0-rcr2-esr310,exr/ReadingArea_rsl0-rcl100-esl29-rsm0-rcm69-esm100-rsr0-rcr2-esr310.exr,ReadingArea_rsl0-rcl100-esl29-rsm0-rcm69-esm100-rsr0-rcr2-esr310.npz,,,,,0,80,80,587,,left,green,1.16,355.6538429260254,356.12295484542847,,2,,3,5,lightness,readingArea,realistic,75,2023-03-18_13h28.17.438,tripletExp_regina_11082022,2022.2.4,120.31818612109548,
2,0,3,0,0.25,0.298245614035088,0,0.027777777777778,0.298245614035088,0,0.444444444444444,0.298245614035088,ReadingArea_rsl0-rcl25-esl29-rsm0-rcm2-esm29-rsr0-rcr44-esr29,exr/ReadingArea_rsl0-rcl25-esl29-rsm0-rcm2-esm29-rsr0-rcr44-esr29.exr,ReadingArea_rsl0-rcl25-esl29-rsm0-rcm2-esm29-rsr0-rcr44-esr29.npz,,,,,0,81,81,338,,left,green,1.31,357.8382828235626,358.3292829990387,,2,,3,5,lightness,readingArea,realistic,75,2023-03-18_13h28.17.438,tripletExp_regina_11082022,2022.2.4,120.31818612109548,
8,10,9,0,0.25,1.0,0,0.694444444444444,1.0,0,0.444444444444444,1.0,ReadingArea_rsl0-rcl25-esl100-rsm0-rcm69-esm100-rsr0-rcr44-esr100,exr/ReadingArea_rsl0-rcl25-esl100-rsm0-rcm69-esm100-rsr0-rcr44-esr100.exr,ReadingArea_rsl0-rcl25-esl100-rsm0-rcm69-esm100-rsr0-rcr44-esr100.npz,,,,,0,82,82,342,,right,red,1.41,360.0310318470001,360.4817678928375,,2,,3,5,lightness,readingArea,realistic,75,2023-03-18_13h28.17.438,tripletExp_regina_11082022,2022.2.4,120.31818612109548,
1,3,12,0,0.111111111111111,0.298245614035088,0,0.444444444444444,0.298245614035088,0,0.027777777777778,3.10526315789474,ReadingArea_rsl0-rcl11-esl29-rsm0-rcm44-esm29-rsr0-rcr2-esr310,exr/ReadingArea_rsl0-rcl11-esl29-rsm0-rcm44-esm29-rsr0-rcr2-esr310.exr,ReadingArea_rsl0-rcl11-esl29-rsm0-rcm44-esm29-rsr0-rcr2-esr310.npz,,,,,0,83,83,323,,right,red,1.01,362.2031099796295,362.8289668560028,,2,,3,5,lightness,readingArea,realistic,75,2023-03-18_13h28.17.438,tripletExp_regina_11082022,2022.2.4,120.31818612109548,
1,7,2,0,0.111111111111111,0.298245614035088,0,0.111111111111111,1.0,0,0.25,0.298245614035088,ReadingArea_rsl0-rcl11-esl29-rsm0-rcm11-esm100-rsr0-rcr25-esr29,exr/ReadingArea_rsl0-rcl11-esl29-rsm0-rcm11-esm100-rsr0-rcr25-esr29.exr,ReadingArea_rsl0-rcl11-esl29-rsm0-rcm11-esm100-rsr0-rcr25-esr29.npz,,,,,0,84,84,162,,right,red,1.13,364.5362539291382,365.0882740020752,,2,,3,5,lightness,readingArea,realistic,75,2023-03-18_13h28.17.438,tripletExp_regina_11082022,2022.2.4,120.31818612109548,
9,4,11,0,0.444444444444444,1.0,0,0.694444444444444,0.298245614035088,0,1.0,1.0,ReadingArea_rsl0-rcl44-esl100-rsm0-rcm69-esm29-rsr0-rcr100-esr100,exr/ReadingArea_rsl0-rcl44-esl100-rsm0-rcm69-esm29-rsr0-rcr100-esr100.exr,ReadingArea_rsl0-rcl44-esl100-rsm0-rcm69-esm29-rsr0-rcr100-esr100.npz,,,,,0,85,85,133,,left,green,1.17,366.78582096099854,367.3108658790589,,2,,3,5,lightness,readingArea,realistic,75,2023-03-18_13h28.17.438,tripletExp_regina_11082022,2022.2.4,120.31818612109548,
13,9,6,0,0.111111111111111,3.10526315789474,0,0.444444444444444,1.0,0,0.027777777777778,1.0,ReadingArea_rsl0-rcl11-esl310-rsm0-rcm44-esm100-rsr0-rcr2-esr100,exr/ReadingArea_rsl0-rcl11-esl310-rsm0-rcm44-esm100-rsr0-rcr2-esr100.exr,ReadingArea_rsl0-rcl11-esl310-rsm0-rcm44-esm100-rsr0-rcr2-esr100.npz,,,,,0,86,86,19,,left,green,1.05,369.0071549415589,369.4484329223633,,2,,3,5,lightness,readingArea,realistic,75,2023-03-18_13h28.17.438,tripletExp_regina_11082022,2022.2.4,120.31818612109548,
8,12,13,0,0.25,1.0,0,0.027777777777778,3.10526315789474,0,0.111111111111111,3.10526315789474,ReadingArea_rsl0-rcl25-esl100-rsm0-rcm2-esm310-rsr0-rcr11-esr310,exr/ReadingArea_rsl0-rcl25-esl100-rsm0-rcm2-esm310-rsr0-rcr11-esr310.exr,ReadingArea_rsl0-rcl25-esl100-rsm0-rcm2-esm310-rsr0-rcr11-esr310.npz,,,,,0,87,87,275,,left,green,1.58,371.1577889919281,371.5931088924408,,2,,3,5,lightness,readingArea,realistic,75,2023-03-18_13h28.17.438,tripletExp_regina_11082022,2022.2.4,120.31818612109548,
14,4,8,0,0.25,3.10526315789474,0,0.694444444444444,0.298245614035088,0,0.25,1.0,ReadingArea_rsl0-rcl25-esl310-rsm0-rcm69-esm29-rsr0-rcr25-esr100,exr/ReadingArea_rsl0-rcl25-esl310-rsm0-rcm69-esm29-rsr0-rcr25-esr100.exr,ReadingArea_rsl0-rcl25-esl310-rsm0-rcm69-esm29-rsr0-rcr25-esr100.npz,,,,,0,88,88,253,,right,red,1.23,373.2815890312195,373.7290070056915,,2,,3,5,lightness,readingArea,realistic,75,2023-03-18_13h28.17.438,tripletExp_regina_11082022,2022.2.4,120.31818612109548,
13,4,7,0,0.111111111111111,3.10526315789474,0,0.694444444444444,0.298245614035088,0,0.111111111111111,1.0,ReadingArea_rsl0-rcl11-esl310-rsm0-rcm69-esm29-rsr0-rcr11-esr100,exr/ReadingArea_rsl0-rcl11-esl310-rsm0-rcm69-esm29-rsr0-rcr11-esr100.exr,ReadingArea_rsl0-rcl11-esl310-rsm0-rcm69-esm29-rsr0-rcr11-esr100.npz,,,,,0,89,89,282,,left,green,0.91,375.4494979381561,376.01220297813416,,2,,3,5,lightness,readingArea,realistic,75,2023-03-18_13h28.17.438,tripletExp_regina_11082022,2022.2.4,120.31818612109548,
12,6,9,0,0.027777777777778,3.10526315789474,0,0.027777777777778,1.0,0,0.444444444444444,1.0,ReadingArea_rsl0-rcl2-esl310-rsm0-rcm2-esm100-rsr0-rcr44-esr100,exr/ReadingArea_rsl0-rcl2-esl310-rsm0-rcm2-esm100-rsr0-rcr44-esr100.exr,ReadingArea_rsl0-rcl2-esl310-rsm0-rcm2-esm100-rsr0-rcr44-esr100.npz,,,,,0,90,90,177,,left,green,1.13,377.70030403137207,378.17809295654297,,2,,3,5,lightness,readingArea,realistic,75,2023-03-18_13h28.17.438,tripletExp_regina_11082022,2022.2.4,120.31818612109548,
2,1,8,0,0.25,0.298245614035088,0,0.111111111111111,0.298245614035088,0,0.25,1.0,ReadingArea_rsl0-rcl25-esl29-rsm0-rcm11-esm29-rsr0-rcr25-esr100,exr/ReadingArea_rsl0-rcl25-esl29-rsm0-rcm11-esm29-rsr0-rcr25-esr100.exr,ReadingArea_rsl0-rcl25-esl29-rsm0-rcm11-esm29-rsr0-rcr25-esr100.npz,,,,,0,91,91,125,,left,green,1.01,379.883024930954,380.32936096191406,,2,,3,5,lightness,readingArea,realistic,75,2023-03-18_13h28.17.438,tripletExp_regina_11082022,2022.2.4,120.31818612109548,
2,14,1,0,0.25,0.298245614035088,0,0.25,3.10526315789474,0,0.111111111111111,0.298245614035088,ReadingArea_rsl0-rcl25-esl29-rsm0-rcm25-esm310-rsr0-rcr11-esr29,exr/ReadingArea_rsl0-rcl25-esl29-rsm0-rcm25-esm310-rsr0-rcr11-esr29.exr,ReadingArea_rsl0-rcl25-esl29-rsm0-rcm25-esm310-rsr0-rcr11-esr29.npz,,,,,0,92,92,579,,left,green,1.39,382.0440309047699,382.4894728660584,,2,,3,5,lightness,readingArea,realistic,75,2023-03-18_13h28.17.438,tripletExp_regina_11082022,2022.2.4,120.31818612109548,
1,10,0,0,0.111111111111111,0.298245614035088,0,0.694444444444444,1.0,0,0.027777777777778,0.298245614035088,ReadingArea_rsl0-rcl11-esl29-rsm0-rcm69-esm100-rsr0-rcr2-esr29,exr/ReadingArea_rsl0-rcl11-esl29-rsm0-rcm69-esm100-rsr0-rcr2-esr29.exr,ReadingArea_rsl0-rcl11-esl29-rsm0-rcm69-esm100-rsr0-rcr2-esr29.npz,,,,,0,93,93,196,,left,green,1.23,384.19563388824463,,,2,,3,5,lightness,readingArea,realistic,75,2023-03-18_13h28.17.438,tripletExp_regina_11082022,2022.2.4,120.31818612109548,
6,5,0,0,0.027777777777778,1.0,0,1.0,0.298245614035088,0,0.027777777777778,0.298245614035088,ReadingArea_rsl0-rcl2-esl100-rsm0-rcm100-esm29-rsr0-rcr2-esr29,exr/ReadingArea_rsl0-rcl2-esl100-rsm0-rcm100-esm29-rsr0-rcr2-esr29.exr,ReadingArea_rsl0-rcl2-esl100-rsm0-rcm100-esm29-rsr0-rcr2-esr29.npz,,,,,0,94,94,558,,left,green,1.05,386.3767828941345,386.8639578819275,,2,,3,5,lightness,readingArea,realistic,75,2023-03-18_13h28.17.438,tripletExp_regina_11082022,2022.2.4,120.31818612109548,
1,8,5,0,0.111111111111111,0.298245614035088,0,0.25,1.0,0,1.0,0.298245614035088,ReadingArea_rsl0-rcl11-esl29-rsm0-rcm25-esm100-rsr0-rcr100-esr29,exr/ReadingArea_rsl0-rcl11-esl29-rsm0-rcm25-esm100-rsr0-rcr100-esr29.exr,ReadingArea_rsl0-rcl11-esl29-rsm0-rcm25-esm100-rsr0-rcr100-esr29.npz,,,,,0,95,95,445,,right,red,0.85,388.5804300308228,389.0344128608704,,2,,3,5,lightness,readingArea,realistic,75,2023-03-18_13h28.17.438,tripletExp_regina_11082022,2022.2.4,120.31818612109548,
2,4,14,0,0.25,0.298245614035088,0,0.694444444444444,0.298245614035088,0,0.25,3.10526315789474,ReadingArea_rsl0-rcl25-esl29-rsm0-rcm69-esm29-rsr0-rcr25-esr310,exr/ReadingArea_rsl0-rcl25-esl29-rsm0-rcm69-esm29-rsr0-rcr25-esr310.exr,ReadingArea_rsl0-rcl25-esl29-rsm0-rcm69-esm29-rsr0-rcr25-esr310.npz,,,,,0,96,96,356,,right,red,0.74,390.7376089096069,391.1602518558502,,2,,3,5,lightness,readingArea,realistic,75,2023-03-18_13h28.17.438,tripletExp_regina_11082022,2022.2.4,120.31818612109548,
11,7,13,0,1.0,1.0,0,0.111111111111111,1.0,0,0.111111111111111,3.10526315789474,ReadingArea_rsl0-rcl100-esl100-rsm0-rcm11-esm100-rsr0-rcr11-esr310,exr/ReadingArea_rsl0-rcl100-esl100-rsm0-rcm11-esm100-rsr0-rcr11-esr310.exr,ReadingArea_rsl0-rcl100-esl100-rsm0-rcm11-esm100-rsr0-rcr11-esr310.npz,,,,,0,97,97,431,,right,red,1.08,392.8606548309326,393.3109028339386,,2,,3,5,lightness,readingArea,realistic,75,2023-03-18_13h28.17.438,tripletExp_regina_11082022,2022.2.4,120.31818612109548,
1,12,0,0,0.111111111111111,0.298245614035088,0,0.027777777777778,3.10526315789474,0,0.027777777777778,0.298245614035088,ReadingArea_rsl0-rcl11-esl29-rsm0-rcm2-esm310-rsr0-rcr2-esr29,exr/ReadingArea_rsl0-rcl11-esl29-rsm0-rcm2-esm310-rsr0-rcr2-esr29.exr,ReadingArea_rsl0-rcl11-esl29-rsm0-rcm2-esm310-rsr0-rcr2-esr29.npz,,,,,0,98,98,113,,left,green,1.64,394.9988179206848,395.6429688930512,,2,,3,5,lightness,readingArea,realistic,75,2023-03-18_13h28.17.438,tripletExp_regina_11082022,2022.2.4,120.31818612109548,
11,12,10,0,1.0,1.0,0,0.027777777777778,3.10526315789474,0,0.694444444444444,1.0,ReadingArea_rsl0-rcl100-esl100-rsm0-rcm2-esm310-rsr0-rcr69-esr100,exr/ReadingArea_rsl0-rcl100-esl100-rsm0-rcm2-esm310-rsr0-rcr69-esr100.exr,ReadingArea_rsl0-rcl100-esl100-rsm0-rcm2-esm310-rsr0-rcr69-esr100.npz,,,,,0,99,99,465,,right,red,1.55,397.317076921463,397.7603259086609,,2,,3,5,lightness,readingArea,realistic,75,2023-03-18_13h28.17.438,tripletExp_regina_11082022,2022.2.4,120.31818612109548,
4,9,13,0,0.694444444444444,0.298245614035088,0,0.444444444444444,1.0,0,0.111111111111111,3.10526315789474,ReadingArea_rsl0-rcl69-esl29-rsm0-rcm44-esm100-rsr0-rcr11-esr310,exr/ReadingArea_rsl0-rcl69-esl29-rsm0-rcm44-esm100-rsr0-rcr11-esr310.exr,ReadingArea_rsl0-rcl69-esl29-rsm0-rcm44-esm100-rsr0-rcr11-esr310.npz,,,,,0,100,100,488,,right,red,1.57,399.4628849029541,399.9630579948425,,2,,3,5,lightness,readingArea,realistic,75,2023-03-18_13h28.17.438,tripletExp_regina_11082022,2022.2.4,120.31818612109548,
0,5,7,0,0.027777777777778,0.298245614035088,0,1.0,0.298245614035088,0,0.111111111111111,1.0,ReadingArea_rsl0-rcl2-esl29-rsm0-rcm100-esm29-rsr0-rcr11-esr100,exr/ReadingArea_rsl0-rcl2-esl29-rsm0-rcm100-esm29-rsr0-rcr11-esr100.exr,ReadingArea_rsl0-rcl2-esl29-rsm0-rcm100-esm29-rsr0-rcr11-esr100.npz,,,,,0,101,101,217,,right,red,1.12,401.6762499809265,402.1394469738007,,2,,3,5,lightness,readingArea,realistic,75,2023-03-18_13h28.17.438,tripletExp_regina_11082022,2022.2.4,120.31818612109548,
5,6,0,0,1.0,0.298245614035088,0,0.027777777777778,1.0,0,0.027777777777778,0.298245614035088,ReadingArea_rsl0-rcl100-esl29-rsm0-rcm2-esm100-rsr0-rcr2-esr29,exr/ReadingArea_rsl0-rcl100-esl29-rsm0-rcm2-esm100-rsr0-rcr2-esr29.exr,ReadingArea_rsl0-rcl100-esl29-rsm0-rcm2-esm100-rsr0-rcr2-esr29.npz,,,,,0,102,102,511,,right,red,2.57,405.6128890514374,406.31456184387207,,2,,3,5,lightness,readingArea,realistic,75,2023-03-18_13h28.17.438,tripletExp_regina_11082022,2022.2.4,120.31818612109548,
6,0,11,0,0.027777777777778,1.0,0,0.027777777777778,0.298245614035088,0,1.0,1.0,ReadingArea_rsl0-rcl2-esl100-rsm0-rcm2-esm29-rsr0-rcr100-esr100,exr/ReadingArea_rsl0-rcl2-esl100-rsm0-rcm2-esm29-rsr0-rcr100-esr100.exr,ReadingArea_rsl0-rcl2-esl100-rsm0-rcm2-esm29-rsr0-rcr100-esr100.npz,,,,,0,103,103,245,,left,green,1.22,408.006078004837,408.4270548820496,,2,,3,5,lightness,readingArea,realistic,75,2023-03-18_13h28.17.438,tripletExp_regina_11082022,2022.2.4,120.31818612109548,
4,12,5,0,0.694444444444444,0.298245614035088,0,0.027777777777778,3.10526315789474,0,1.0,0.298245614035088,ReadingArea_rsl0-rcl69-esl29-rsm0-rcm2-esm310-rsr0-rcr100-esr29,exr/ReadingArea_rsl0-rcl69-esl29-rsm0-rcm2-esm310-rsr0-rcr100-esr29.exr,ReadingArea_rsl0-rcl69-esl29-rsm0-rcm2-esm310-rsr0-rcr100-esr29.npz,,,,,0,104,104,296,,left,green,2.8,411.89326190948486,412.34370493888855,,2,,3,5,lightness,readingArea,realistic,75,2023-03-18_13h28.17.438,tripletExp_regina_11082022,2022.2.4,120.31818612109548,
12,8,9,0,0.027777777777778,3.10526315789474,0,0.25,1.0,0,0.444444444444444,1.0,ReadingArea_rsl0-rcl2-esl310-rsm0-rcm25-esm100-rsr0-rcr44-esr100,exr/ReadingArea_rsl0-rcl2-esl310-rsm0-rcm25-esm100-rsr0-rcr44-esr100.exr,ReadingArea_rsl0-rcl2-esl310-rsm0-rcm25-esm100-rsr0-rcr44-esr100.npz,,,,,0,105,105,517,,right,red,4.52,417.5692799091339,418.0398099422455,,2,,3,5,lightness,readingArea,realistic,75,2023-03-18_13h28.17.438,tripletExp_regina_11082022,2022.2.4,120.31818612109548,
12,0,2,0,0.027777777777778,3.10526315789474,0,0.027777777777778,0.298245614035088,0,0.25,0.298245614035088,ReadingArea_rsl0-rcl2-esl310-rsm0-rcm2-esm29-rsr0-rcr25-esr29,exr/ReadingArea_rsl0-rcl2-esl310-rsm0-rcm2-esm29-rsr0-rcr25-esr29.exr,ReadingArea_rsl0-rcl2-esl310-rsm0-rcm2-esm29-rsr0-rcr25-esr29.npz,,,,,0,106,106,77,,left,green,4.48,423.3007588386536,423.75536704063416,,2,,3,5,lightness,readingArea,realistic,75,2023-03-18_13h28.17.438,tripletExp_regina_11082022,2022.2.4,120.31818612109548,
14,5,11,0,0.25,3.10526315789474,0,1.0,0.298245614035088,0,1.0,1.0,ReadingArea_rsl0-rcl25-esl310-rsm0-rcm100-esm29-rsr0-rcr100-esr100,exr/ReadingArea_rsl0-rcl25-esl310-rsm0-rcm100-esm29-rsr0-rcr100-esr100.exr,ReadingArea_rsl0-rcl25-esl310-rsm0-rcm100-esm29-rsr0-rcr100-esr100.npz,,,,,0,107,107,161,,right,red,4.89,428.9954798221588,429.4345939159393,,2,,3,5,lightness,readingArea,realistic,75,2023-03-18_13h28.17.438,tripletExp_regina_11082022,2022.2.4,120.31818612109548,
14,0,3,0,0.25,3.10526315789474,0,0.027777777777778,0.298245614035088,0,0.444444444444444,0.298245614035088,ReadingArea_rsl0-rcl25-esl310-rsm0-rcm2-esm29-rsr0-rcr44-esr29,exr/ReadingArea_rsl0-rcl25-esl310-rsm0-rcm2-esm29-rsr0-rcr44-esr29.exr,ReadingArea_rsl0-rcl25-esl310-rsm0-rcm2-esm29-rsr0-rcr44-esr29.npz,,,,,0,108,108,75,,right,red,1.19,431.135498046875,431.5624508857727,,2,,3,5,lightness,readingArea,realistic,75,2023-03-18_13h28.17.438,tripletExp_regina_11082022,2022.2.4,120.31818612109548,
2,13,3,0,0.25,0.298245614035088,0,0.111111111111111,3.10526315789474,0,0.444444444444444,0.298245614035088,ReadingArea_rsl0-rcl25-esl29-rsm0-rcm11-esm310-rsr0-rcr44-esr29,exr/ReadingArea_rsl0-rcl25-esl29-rsm0-rcm11-esm310-rsr0-rcr44-esr29.exr,ReadingArea_rsl0-rcl25-esl29-rsm0-rcm11-esm310-rsr0-rcr44-esr29.npz,,,,,0,109,109,473,,right,red,1.41,433.2555899620056,433.6844830513001,,2,,3,5,lightness,readingArea,realistic,75,2023-03-18_13h28.17.438,tripletExp_regina_11082022,2022.2.4,120.31818612109548,
3,13,10,0,0.444444444444444,0.298245614035088,0,0.111111111111111,3.10526315789474,0,0.694444444444444,1.0,ReadingArea_rsl0-rcl44-esl29-rsm0-rcm11-esm310-rsr0-rcr69-esr100,exr/ReadingArea_rsl0-rcl44-esl29-rsm0-rcm11-esm310-rsr0-rcr69-esr100.exr,ReadingArea_rsl0-rcl44-esl29-rsm0-rcm11-esm310-rsr0-rcr69-esr100.npz,,,,,0,110,110,416,,left,green,1.64,435.4018218517304,435.8331270217896,,2,,3,5,lightness,readingArea,realistic,75,2023-03-18_13h28.17.438,tripletExp_regina_11082022,2022.2.4,120.31818612109548,
8,1,9,0,0.25,1.0,0,0.111111111111111,0.298245614035088,0,0.444444444444444,1.0,ReadingArea_rsl0-rcl25-esl100-rsm0-rcm11-esm29-rsr0-rcr44-esr100,exr/ReadingArea_rsl0-rcl25-esl100-rsm0-rcm11-esm29-rsr0-rcr44-esr100.exr,ReadingArea_rsl0-rcl25-esl100-rsm0-rcm11-esm29-rsr0-rcr44-esr100.npz,,,,,0,111,111,432,,left,green,1.75,437.5453269481659,,,2,,3,5,lightness,readingArea,realistic,75,2023-03-18_13h28.17.438,tripletExp_regina_11082022,2022.2.4,120.31818612109548,
2,6,10,0,0.25,0.298245614035088,0,0.027777777777778,1.0,0,0.694444444444444,1.0,ReadingArea_rsl0-rcl25-esl29-rsm0-rcm2-esm100-rsr0-rcr69-esr100,exr/ReadingArea_rsl0-rcl25-esl29-rsm0-rcm2-esm100-rsr0-rcr69-esr100.exr,ReadingArea_rsl0-rcl25-esl29-rsm0-rcm2-esm100-rsr0-rcr69-esr100.npz,,,,,0,112,112,42,,left,green,1.31,439.6827609539032,440.1626749038696,,2,,3,5,lightness,readingArea,realistic,75,2023-03-18_13h28.17.438,tripletExp_regina_11082022,2022.2.4,120.31818612109548,
12,9,13,0,0.027777777777778,3.10526315789474,0,0.444444444444444,1.0,0,0.111111111111111,3.10526315789474,ReadingArea_rsl0-rcl2-esl310-rsm0-rcm44-esm100-rsr0-rcr11-esr310,exr/ReadingArea_rsl0-rcl2-esl310-rsm0-rcm44-esm100-rsr0-rcr11-esr310.exr,ReadingArea_rsl0-rcl2-esl310-rsm0-rcm44-esm100-rsr0-rcr11-esr310.npz,,,,,0,113,113,529,,right,red,1.04,441.8711519241333,,,2,,3,5,lightness,readingArea,realistic,75,2023-03-18_13h28.17.438,tripletExp_regina_11082022,2022.2.4,120.31818612109548,
8,10,6,0,0.25,1.0,0,0.694444444444444,1.0,0,0.027777777777778,1.0,ReadingArea_rsl0-rcl25-esl100-rsm0-rcm69-esm100-rsr0-rcr2-esr100,exr/ReadingArea_rsl0-rcl25-esl100-rsm0-rcm69-esm100-rsr0-rcr2-esr100.exr,ReadingArea_rsl0-rcl25-esl100-rsm0-rcm69-esm100-rsr0-rcr2-esr100.npz,,,,,0,114,114,129,,left,green,0.81,444.0482139587402,444.4825978279114,,2,,3,5,lightness,readingArea,realistic,75,2023-03-18_13h28.17.438,tripletExp_regina_11082022,2022.2.4,120.31818612109548,
4,13,2,0,0.694444444444444,0.298245614035088,0,0.111111111111111,3.10526315789474,0,0.25,0.298245614035088,ReadingArea_rsl0-rcl69-esl29-rsm0-rcm11-esm310-rsr0-rcr25-esr29,exr/ReadingArea_rsl0-rcl69-esl29-rsm0-rcm11-esm310-rsr0-rcr25-esr29.exr,ReadingArea_rsl0-rcl69-esl29-rsm0-rcm11-esm310-rsr0-rcr25-esr29.npz,,,,,0,115,115,592,,left,green,0.91,446.1918878555298,446.66460704803467,,2,,3,5,lightness,readingArea,realistic,75,2023-03-18_13h28.17.438,tripletExp_regina_11082022,2022.2.4,120.31818612109548,
10,8,11,0,0.694444444444444,1.0,0,0.25,1.0,0,1.0,1.0,ReadingArea_rsl0-rcl69-esl100-rsm0-rcm25-esm100-rsr0-rcr100-esr100,exr/ReadingArea_rsl0-rcl69-esl100-rsm0-rcm25-esm100-rsr0-rcr100-esr100.exr,ReadingArea_rsl0-rcl69-esl100-rsm0-rcm25-esm100-rsr0-rcr100-esr100.npz,,,,,0,116,116,578,,left,green,1.41,448.37270402908325,448.83214688301086,,2,,3,5,lightness,readingArea,realistic,75,2023-03-18_13h28.17.438,tripletExp_regina_11082022,2022.2.4,120.31818612109548,
2,8,3,0,0.25,0.298245614035088,0,0.25,1.0,0,0.444444444444444,0.298245614035088,ReadingArea_rsl0-rcl25-esl29-rsm0-rcm25-esm100-rsr0-rcr44-esr29,exr/ReadingArea_rsl0-rcl25-esl29-rsm0-rcm25-esm100-rsr0-rcr44-esr29.exr,ReadingArea_rsl0-rcl25-esl29-rsm0-rcm25-esm100-rsr0-rcr44-esr29.npz,,,,,0,117,117,568,,right,red,0.89,450.5542719364166,450.98738384246826,,2,,3,5,lightness,readingArea,realistic,75,2023-03-18_13h28.17.438,tripletExp_regina_11082022,2022.2.4,120.31818612109548,
12,8,3,0,0.027777777777778,3.10526315789474,0,0.25,1.0,0,0.444444444444444,0.298245614035088,ReadingArea_rsl0-rcl2-esl310-rsm0-rcm25-esm100-rsr0-rcr44-esr29,exr/ReadingArea_rsl0-rcl2-esl310-rsm0-rcm25-esm100-rsr0-rcr44-esr29.exr,ReadingArea_rsl0-rcl2-esl310-rsm0-rcm25-esm100-rsr0-rcr44-esr29.npz,,,,,0,118,118,386,,right,red,0.78,452.7058548927307,,,2,,3,5,lightness,readingArea,realistic,75,2023-03-18_13h28.17.438,tripletExp_regina_11082022,2022.2.4,120.31818612109548,
9,7,10,0,0.444444444444444,1.0,0,0.111111111111111,1.0,0,0.694444444444444,1.0,ReadingArea_rsl0-rcl44-esl100-rsm0-rcm11-esm100-rsr0-rcr69-esr100,exr/ReadingArea_rsl0-rcl44-esl100-rsm0-rcm11-esm100-rsr0-rcr69-esr100.exr,ReadingArea_rsl0-rcl44-esl100-rsm0-rcm11-esm100-rsr0-rcr69-esr100.npz,,,,,0,119,119,508,,left,green,1.17,454.8630950450897,455.3097560405731,,2,,3,5,lightness,readingArea,realistic,75,2023-03-18_13h28.17.438,tripletExp_regina_11082022,2022.2.4,120.31818612109548,
11,8,7,0,1.0,1.0,0,0.25,1.0,0,0.111111111111111,1.0,ReadingArea_rsl0-rcl100-esl100-rsm0-rcm25-esm100-rsr0-rcr11-esr100,exr/ReadingArea_rsl0-rcl100-esl100-rsm0-rcm25-esm100-rsr0-rcr11-esr100.exr,ReadingArea_rsl0-rcl100-esl100-rsm0-rcm25-esm100-rsr0-rcr11-esr100.npz,,,,,0,120,120,105,,right,red,1.13,457.0122239589691,457.46130895614624,,2,,3,5,lightness,readingArea,realistic,75,2023-03-18_13h28.17.438,tripletExp_regina_11082022,2022.2.4,120.31818612109548,
7,12,1,0,0.111111111111111,1.0,0,0.027777777777778,3.10526315789474,0,0.111111111111111,0.298245614035088,ReadingArea_rsl0-rcl11-esl100-rsm0-rcm2-esm310-rsr0-rcr11-esr29,exr/ReadingArea_rsl0-rcl11-esl100-rsm0-rcm2-esm310-rsr0-rcr11-esr29.exr,ReadingArea_rsl0-rcl11-esl100-rsm0-rcm2-esm310-rsr0-rcr11-esr29.npz,,,,,0,121,121,20,,left,green,1.47,459.1602499485016,459.6408698558808,,2,,3,5,lightness,readingArea,realistic,75,2023-03-18_13h28.17.438,tripletExp_regina_11082022,2022.2.4,120.31818612109548,
13,6,0,0,0.111111111111111,3.10526315789474,0,0.027777777777778,1.0,0,0.027777777777778,0.298245614035088,ReadingArea_rsl0-rcl11-esl310-rsm0-rcm2-esm100-rsr0-rcr2-esr29,exr/ReadingArea_rsl0-rcl11-esl310-rsm0-rcm2-esm100-rsr0-rcr2-esr29.exr,ReadingArea_rsl0-rcl11-esl310-rsm0-rcm2-esm100-rsr0-rcr2-esr29.npz,,,,,0,122,122,309,,right,red,1.05,461.3533709049225,461.82135581970215,,2,,3,5,lightness,readingArea,realistic,75,2023-03-18_13h28.17.438,tripletExp_regina_11082022,2022.2.4,120.31818612109548,
6,4,13,0,0.027777777777778,1.0,0,0.694444444444444,0.298245614035088,0,0.111111111111111,3.10526315789474,ReadingArea_rsl0-rcl2-esl100-rsm0-rcm69-esm29-rsr0-rcr11-esr310,exr/ReadingArea_rsl0-rcl2-esl100-rsm0-rcm69-esm29-rsr0-rcr11-esr310.exr,ReadingArea_rsl0-rcl2-esl100-rsm0-rcm69-esm29-rsr0-rcr11-esr310.npz,,,,,0,123,123,202,,right,red,0.76,463.5161850452423,,,2,,3,5,lightness,readingArea,realistic,75,2023-03-18_13h28.17.438,tripletExp_regina_11082022,2022.2.4,120.31818612109548,
11,12,4,0,1.0,1.0,0,0.027777777777778,3.10526315789474,0,0.694444444444444,0.298245614035088,ReadingArea_rsl0-rcl100-esl100-rsm0-rcm2-esm310-rsr0-rcr69-esr29,exr/ReadingArea_rsl0-rcl100-esl100-rsm0-rcm2-esm310-rsr0-rcr69-esr29.exr,ReadingArea_rsl0-rcl100-esl100-rsm0-rcm2-esm310-rsr0-rcr69-esr29.npz,,,,,0,124,124,250,,right,red,0.9,465.6697208881378,466.09501791000366,,2,,3,5,lightness,readingArea,realistic,75,2023-03-18_13h28.17.438,tripletExp_regina_11082022,2022.2.4,120.31818612109548,
11,7,8,0,1.0,1.0,0,0.111111111111111,1.0,0,0.25,1.0,ReadingArea_rsl0-rcl100-esl100-rsm0-rcm11-esm100-rsr0-rcr25-esr100,exr/ReadingArea_rsl0-rcl100-esl100-rsm0-rcm11-esm100-rsr0-rcr25-esr100.exr,ReadingArea_rsl0-rcl100-esl100-rsm0-rcm11-esm100-rsr0-rcr25-esr100.npz,,,,,0,125,125,37,,right,red,0.66,467.8064649105072,468.2276840209961,,2,,3,5,lightness,readingArea,realistic,75,2023-03-18_13h28.17.438,tripletExp_regina_11082022,2022.2.4,120.31818612109548,
14,3,4,0,0.25,3.10526315789474,0,0.444444444444444,0.298245614035088,0,0.694444444444444,0.298245614035088,ReadingArea_rsl0-rcl25-esl310-rsm0-rcm44-esm29-rsr0-rcr69-esr29,exr/ReadingArea_rsl0-rcl25-esl310-rsm0-rcm44-esm29-rsr0-rcr69-esr29.exr,ReadingArea_rsl0-rcl25-esl310-rsm0-rcm44-esm29-rsr0-rcr69-esr29.npz,,,,,0,126,126,127,,right,red,0.64,469.9342908859253,470.3544409275055,,2,,3,5,lightness,readingArea,realistic,75,2023-03-18_13h28.17.438,tripletExp_regina_11082022,2022.2.4,120.31818612109548,
10,9,6,0,0.694444444444444,1.0,0,0.444444444444444,1.0,0,0.027777777777778,1.0,ReadingArea_rsl0-rcl69-esl100-rsm0-rcm44-esm100-rsr0-rcr2-esr100,exr/ReadingArea_rsl0-rcl69-esl100-rsm0-rcm44-esm100-rsr0-rcr2-esr100.exr,ReadingArea_rsl0-rcl69-esl100-rsm0-rcm44-esm100-rsr0-rcr2-esr100.npz,,,,,0,127,127,35,,left,green,0.96,472.0504729747772,,,2,,3,5,lightness,readingArea,realistic,75,2023-03-18_13h28.17.438,tripletExp_regina_11082022,2022.2.4,120.31818612109548,
7,0,2,0,0.111111111111111,1.0,0,0.027777777777778,0.298245614035088,0,0.25,0.298245614035088,ReadingArea_rsl0-rcl11-esl100-rsm0-rcm2-esm29-rsr0-rcr25-esr29,exr/ReadingArea_rsl0-rcl11-esl100-rsm0-rcm2-esm29-rsr0-rcr25-esr29.exr,ReadingArea_rsl0-rcl11-esl100-rsm0-rcm2-esm29-rsr0-rcr25-esr29.npz,,,,,0,128,128,347,,left,green,1.0,474.3198399543762,474.92452001571655,,2,,3,5,lightness,readingArea,realistic,75,2023-03-18_13h28.17.438,tripletExp_regina_11082022,2022.2.4,120.31818612109548,
5,7,14,0,1.0,0.298245614035088,0,0.111111111111111,1.0,0,0.25,3.10526315789474,ReadingArea_rsl0-rcl100-esl29-rsm0-rcm11-esm100-rsr0-rcr25-esr310,exr/ReadingArea_rsl0-rcl100-esl29-rsm0-rcm11-esm100-rsr0-rcr25-esr310.exr,ReadingArea_rsl0-rcl100-esl29-rsm0-rcm11-esm100-rsr0-rcr25-esr310.npz,,,,,0,129,129,210,,left,green,1.03,476.6420969963074,477.0941128730774,,2,,3,5,lightness,readingArea,realistic,75,2023-03-18_13h28.17.438,tripletExp_regina_11082022,2022.2.4,120.31818612109548,
0,10,12,0,0.027777777777778,0.298245614035088,0,0.694444444444444,1.0,0,0.027777777777778,3.10526315789474,ReadingArea_rsl0-rcl2-esl29-rsm0-rcm69-esm100-rsr0-rcr2-esr310,exr/ReadingArea_rsl0-rcl2-esl29-rsm0-rcm69-esm100-rsr0-rcr2-esr310.exr,ReadingArea_rsl0-rcl2-esl29-rsm0-rcm69-esm100-rsr0-rcr2-esr310.npz,,,,,0,130,130,531,,right,red,0.96,478.7960798740387,479.25322699546814,,2,,3,5,lightness,readingArea,realistic,75,2023-03-18_13h28.17.438,tripletExp_regina_11082022,2022.2.4,120.31818612109548,
11,12,2,0,1.0,1.0,0,0.027777777777778,3.10526315789474,0,0.25,0.298245614035088,ReadingArea_rsl0-rcl100-esl100-rsm0-rcm2-esm310-rsr0-rcr25-esr29,exr/ReadingArea_rsl0-rcl100-esl100-rsm0-rcm2-esm310-rsr0-rcr25-esr29.exr,ReadingArea_rsl0-rcl100-esl100-rsm0-rcm2-esm310-rsr0-rcr25-esr29.npz,,,,,0,131,131,423,,right,red,1.14,480.96431183815,481.3999528884888,,2,,3,5,lightness,readingArea,realistic,75,2023-03-18_13h28.17.438,tripletExp_regina_11082022,2022.2.4,120.31818612109548,
1,5,13,0,0.111111111111111,0.298245614035088,0,1.0,0.298245614035088,0,0.111111111111111,3.10526315789474,ReadingArea_rsl0-rcl11-esl29-rsm0-rcm100-esm29-rsr0-rcr11-esr310,exr/ReadingArea_rsl0-rcl11-esl29-rsm0-rcm100-esm29-rsr0-rcr11-esr310.exr,ReadingArea_rsl0-rcl11-esl29-rsm0-rcm100-esm29-rsr0-rcr11-esr310.npz,,,,,0,132,132,598,,right,red,1.14,483.09445691108704,483.5528328418732,,2,,3,5,lightness,readingArea,realistic,75,2023-03-18_13h28.17.438,tripletExp_regina_11082022,2022.2.4,120.31818612109548,
1,7,8,0,0.111111111111111,0.298245614035088,0,0.111111111111111,1.0,0,0.25,1.0,ReadingArea_rsl0-rcl11-esl29-rsm0-rcm11-esm100-rsr0-rcr25-esr100,exr/ReadingArea_rsl0-rcl11-esl29-rsm0-rcm11-esm100-rsr0-rcr25-esr100.exr,ReadingArea_rsl0-rcl11-esl29-rsm0-rcm11-esm100-rsr0-rcr25-esr100.npz,,,,,0,133,133,260,,right,red,1.56,485.2530570030213,,,2,,3,5,lightness,readingArea,realistic,75,2023-03-18_13h28.17.438,tripletExp_regina_11082022,2022.2.4,120.31818612109548,
13,12,5,0,0.111111111111111,3.10526315789474,0,0.027777777777778,3.10526315789474,0,1.0,0.298245614035088,ReadingArea_rsl0-rcl11-esl310-rsm0-rcm2-esm310-rsr0-rcr100-esr29,exr/ReadingArea_rsl0-rcl11-esl310-rsm0-rcm2-esm310-rsr0-rcr100-esr29.exr,ReadingArea_rsl0-rcl11-esl310-rsm0-rcm2-esm310-rsr0-rcr100-esr29.npz,,,,,0,134,134,294,,right,red,1.84,487.6509048938751,488.1087508201599,,2,,3,5,lightness,readingArea,realistic,75,2023-03-18_13h28.17.438,tripletExp_regina_11082022,2022.2.4,120.31818612109548,
10,0,3,0,0.694444444444444,1.0,0,0.027777777777778,0.298245614035088,0,0.444444444444444,0.298245614035088,ReadingArea_rsl0-rcl69-esl100-rsm0-rcm2-esm29-rsr0-rcr44-esr29,exr/ReadingArea_rsl0-rcl69-esl100-rsm0-rcm2-esm29-rsr0-rcr44-esr29.exr,ReadingArea_rsl0-rcl69-esl100-rsm0-rcm2-esm29-rsr0-rcr44-esr29.npz,,,,,0,135,135,87,,right,red,1.32,489.82218384742737,490.2440228462219,,2,,3,5,lightness,readingArea,realistic,75,2023-03-18_13h28.17.438,tripletExp_regina_11082022,2022.2.4,120.31818612109548,
4,3,9,0,0.694444444444444,0.298245614035088,0,0.444444444444444,0.298245614035088,0,0.444444444444444,1.0,ReadingArea_rsl0-rcl69-esl29-rsm0-rcm44-esm29-rsr0-rcr44-esr100,exr/ReadingArea_rsl0-rcl69-esl29-rsm0-rcm44-esm29-rsr0-rcr44-esr100.exr,ReadingArea_rsl0-rcl69-esl29-rsm0-rcm44-esm29-rsr0-rcr44-esr100.npz,,,,,0,136,136,451,,left,green,0.99,491.9467759132385,492.40818190574646,,2,,3,5,lightness,readingArea,realistic,75,2023-03-18_13h28.17.438,tripletExp_regina_11082022,2022.2.4,120.31818612109548,
1,14,6,0,0.111111111111111,0.298245614035088,0,0.25,3.10526315789474,0,0.027777777777778,1.0,ReadingArea_rsl0-rcl11-esl29-rsm0-rcm25-esm310-rsr0-rcr2-esr100,exr/ReadingArea_rsl0-rcl11-esl29-rsm0-rcm25-esm310-rsr0-rcr2-esr100.exr,ReadingArea_rsl0-rcl11-esl29-rsm0-rcm25-esm310-rsr0-rcr2-esr100.npz,,,,,0,137,137,475,,left,green,3.04,495.8780360221863,496.432256937027,,2,,3,5,lightness,readingArea,realistic,75,2023-03-18_13h28.17.438,tripletExp_regina_11082022,2022.2.4,120.31818612109548,
6,11,14,0,0.027777777777778,1.0,0,1.0,1.0,0,0.25,3.10526315789474,ReadingArea_rsl0-rcl2-esl100-rsm0-rcm100-esm100-rsr0-rcr25-esr310,exr/ReadingArea_rsl0-rcl2-esl100-rsm0-rcm100-esm100-rsr0-rcr25-esr310.exr,ReadingArea_rsl0-rcl2-esl100-rsm0-rcm100-esm100-rsr0-rcr25-esr310.npz,,,,,0,138,138,262,,right,red,1.31,498.1191289424896,498.5957100391388,,2,,3,5,lightness,readingArea,realistic,75,2023-03-18_13h28.17.438,tripletExp_regina_11082022,2022.2.4,120.31818612109548,
0,8,7,0,0.027777777777778,0.298245614035088,0,0.25,1.0,0,0.111111111111111,1.0,ReadingArea_rsl0-rcl2-esl29-rsm0-rcm25-esm100-rsr0-rcr11-esr100,exr/ReadingArea_rsl0-rcl2-esl29-rsm0-rcm25-esm100-rsr0-rcr11-esr100.exr,ReadingArea_rsl0-rcl2-esl29-rsm0-rcm25-esm100-rsr0-rcr11-esr100.npz,,,,,0,139,139,9,,right,red,0.96,500.284147977829,500.7307188510895,,2,,3,5,lightness,readingArea,realistic,75,2023-03-18_13h28.17.438,tripletExp_regina_11082022,2022.2.4,120.31818612109548,
2,13,0,0,0.25,0.298245614035088,0,0.111111111111111,3.10526315789474,0,0.027777777777778,0.298245614035088,ReadingArea_rsl0-rcl25-esl29-rsm0-rcm11-esm310-rsr0-rcr2-esr29,exr/ReadingArea_rsl0-rcl25-esl29-rsm0-rcm11-esm310-rsr0-rcr2-esr29.exr,ReadingArea_rsl0-rcl25-esl29-rsm0-rcm11-esm310-rsr0-rcr2-esr29.npz,,,,,0,140,140,454,,left,green,1.06,502.4367468357086,502.9672689437866,,2,,3,5,lightness,readingArea,realistic,75,2023-03-18_13h28.17.438,tripletExp_regina_11082022,2022.2.4,120.31818612109548,
4,14,12,0,0.694444444444444,0.298245614035088,0,0.25,3.10526315789474,0,0.027777777777778,3.10526315789474,ReadingArea_rsl0-rcl69-esl29-rsm0-rcm25-esm310-rsr0-rcr2-esr310,exr/ReadingArea_rsl0-rcl69-esl29-rsm0-rcm25-esm310-rsr0-rcr2-esr310.exr,ReadingArea_rsl0-rcl69-esl29-rsm0-rcm25-esm310-rsr0-rcr2-esr310.npz,,,,,0,141,141,392,,left,green,1.16,504.6804099082947,505.1590328216553,,2,,3,5,lightness,readingArea,realistic,75,2023-03-18_13h28.17.438,tripletExp_regina_11082022,2022.2.4,120.31818612109548,
12,3,10,0,0.027777777777778,3.10526315789474,0,0.444444444444444,0.298245614035088,0,0.694444444444444,1.0,ReadingArea_rsl0-rcl2-esl310-rsm0-rcm44-esm29-rsr0-rcr69-esr100,exr/ReadingArea_rsl0-rcl2-esl310-rsm0-rcm44-esm29-rsr0-rcr69-esr100.exr,ReadingArea_rsl0-rcl2-esl310-rsm0-rcm44-esm29-rsr0-rcr69-esr100.npz,,,,,0,142,142,437,,left,green,0.97,506.8696458339691,507.3090679645538,,2,,3,5,lightness,readingArea,realistic,75,2023-03-18_13h28.17.438,tripletExp_regina_11082022,2022.2.4,120.31818612109548,
8,1,6,0,0.25,1.0,0,0.111111111111111,0.298245614035088,0,0.027777777777778,1.0,ReadingArea_rsl0-rcl25-esl100-rsm0-rcm11-esm29-rsr0-rcr2-esr100,exr/ReadingArea_rsl0-rcl25-esl100-rsm0-rcm11-esm29-rsr0-rcr2-esr100.exr,ReadingArea_rsl0-rcl25-esl100-rsm0-rcm11-esm29-rsr0-rcr2-esr100.npz,,,,,0,143,143,62,,right,red,0.89,509.0091269016266,509.48121786117554,,2,,3,5,lightness,readingArea,realistic,75,2023-03-18_13h28.17.438,tripletExp_regina_11082022,2022.2.4,120.31818612109548,
5,11,14,0,1.0,0.298245614035088,0,1.0,1.0,0,0.25,3.10526315789474,ReadingArea_rsl0-rcl100-esl29-rsm0-rcm100-esm100-rsr0-rcr25-esr310,exr/ReadingArea_rsl0-rcl100-esl29-rsm0-rcm100-esm100-rsr0-rcr25-esr310.exr,ReadingArea_rsl0-rcl100-esl29-rsm0-rcm100-esm100-rsr0-rcr25-esr310.npz,,,,,0,144,144,258,,right,red,0.93,511.2005870342255,511.7354979515076,,2,,3,5,lightness,readingArea,realistic,75,2023-03-18_13h28.17.438,tripletExp_regina_11082022,2022.2.4,120.31818612109548,
5,3,0,0,1.0,0.298245614035088,0,0.444444444444444,0.298245614035088,0,0.027777777777778,0.298245614035088,ReadingArea_rsl0-rcl100-esl29-rsm0-rcm44-esm29-rsr0-rcr2-esr29,exr/ReadingArea_rsl0-rcl100-esl29-rsm0-rcm44-esm29-rsr0-rcr2-esr29.exr,ReadingArea_rsl0-rcl100-esl29-rsm0-rcm44-esm29-rsr0-rcr2-esr29.npz,,,,,0,145,145,303,,left,green,0.88,513.4432609081268,513.8953368663788,,2,,3,5,lightness,readingArea,realistic,75,2023-03-18_13h28.17.438,tripletExp_regina_11082022,2022.2.4,120.31818612109548,
7,10,5,0,0.111111111111111,1.0,0,0.694444444444444,1.0,0,1.0,0.298245614035088,ReadingArea_rsl0-rcl11-esl100-rsm0-rcm69-esm100-rsr0-rcr100-esr29,exr/ReadingArea_rsl0-rcl11-esl100-rsm0-rcm69-esm100-rsr0-rcr100-esr29.exr,ReadingArea_rsl0-rcl11-esl100-rsm0-rcm69-esm100-rsr0-rcr100-esr29.npz,,,,,0,146,146,395,,right,red,0.94,515.5934300422668,516.0482180118561,,2,,3,5,lightness,readingArea,realistic,75,2023-03-18_13h28.17.438,tripletExp_regina_11082022,2022.2.4,120.31818612109548,
3,11,14,0,0.444444444444444,0.298245614035088,0,1.0,1.0,0,0.25,3.10526315789474,ReadingArea_rsl0-rcl44-esl29-rsm0-rcm100-esm100-rsr0-rcr25-esr310,exr/ReadingArea_rsl0-rcl44-esl29-rsm0-rcm100-esm100-rsr0-rcr25-esr310.exr,ReadingArea_rsl0-rcl44-esl29-rsm0-rcm100-esm100-rsr0-rcr25-esr310.npz,,,,,0,147,147,570,,right,red,0.69,517.7605810165405,518.23069190979,,2,,3,5,lightness,readingArea,realistic,75,2023-03-18_13h28.17.438,tripletExp_regina_11082022,2022.2.4,120.31818612109548,
13,6,1,0,0.111111111111111,3.10526315789474,0,0.027777777777778,1.0,0,0.111111111111111,0.298245614035088,ReadingArea_rsl0-rcl11-esl310-rsm0-rcm2-esm100-rsr0-rcr11-esr29,exr/ReadingArea_rsl0-rcl11-esl310-rsm0-rcm2-esm100-rsr0-rcr11-esr29.exr,ReadingArea_rsl0-rcl11-esl310-rsm0-rcm2-esm100-rsr0-rcr11-esr29.npz,,,,,0,148,148,486,,right,red,1.03,519.9277858734131,520.423821926117,,2,,3,5,lightness,readingArea,realistic,75,2023-03-18_13h28.17.438,tripletExp_regina_11082022,2022.2.4,120.31818612109548,
5,9,0,0,1.0,0.298245614035088,0,0.444444444444444,1.0,0,0.027777777777778,0.298245614035088,ReadingArea_rsl0-rcl100-esl29-rsm0-rcm44-esm100-rsr0-rcr2-esr29,exr/ReadingArea_rsl0-rcl100-esl29-rsm0-rcm44-esm100-rsr0-rcr2-esr29.exr,ReadingArea_rsl0-rcl100-esl29-rsm0-rcm44-esm100-rsr0-rcr2-esr29.npz,,,,,0,149,149,575,,left,green,0.8,522.1102049350739,522.3156139850616,,2,,3,5,lightness,readingArea,realistic,75,2023-03-18_13h28.17.438,tripletExp_regina_11082022,2022.2.4,120.31818612109548,
9,4,6,0,0.444444444444444,1.0,0,0.694444444444444,0.298245614035088,0,0.027777777777778,1.0,ReadingArea_rsl0-rcl44-esl100-rsm0-rcm69-esm29-rsr0-rcr2-esr100,exr/ReadingArea_rsl0-rcl44-esl100-rsm0-rcm69-esm29-rsr0-rcr2-esr100.exr,ReadingArea_rsl0-rcl44-esl100-rsm0-rcm69-esm29-rsr0-rcr2-esr100.npz,,,,,0,150,150,453,,left,green,0.89,526.6487588882446,527.0867528915405,,3,,3,5,lightness,readingArea,realistic,75,2023-03-18_13h28.17.438,tripletExp_regina_11082022,2022.2.4,120.31818612109548,
2,4,10,0,0.25,0.298245614035088,0,0.694444444444444,0.298245614035088,0,0.694444444444444,1.0,ReadingArea_rsl0-rcl25-esl29-rsm0-rcm69-esm29-rsr0-rcr69-esr100,exr/ReadingArea_rsl0-rcl25-esl29-rsm0-rcm69-esm29-rsr0-rcr69-esr100.exr,ReadingArea_rsl0-rcl25-esl29-rsm0-rcm69-esm29-rsr0-rcr69-esr100.npz,,,,,0,151,151,174,,left,green,3.46,530.5824129581451,531.0578458309174,,3,,3,5,lightness,readingArea,realistic,75,2023-03-18_13h28.17.438,tripletExp_regina_11082022,2022.2.4,120.31818612109548,
0,4,9,0,0.027777777777778,0.298245614035088,0,0.694444444444444,0.298245614035088,0,0.444444444444444,1.0,ReadingArea_rsl0-rcl2-esl29-rsm0-rcm69-esm29-rsr0-rcr44-esr100,exr/ReadingArea_rsl0-rcl2-esl29-rsm0-rcm69-esm29-rsr0-rcr44-esr100.exr,ReadingArea_rsl0-rcl2-esl29-rsm0-rcm69-esm29-rsr0-rcr44-esr100.npz,,,,,0,152,152,21,,right,red,0.95,532.7631578445435,533.2368149757385,,3,,3,5,lightness,readingArea,realistic,75,2023-03-18_13h28.17.438,tripletExp_regina_11082022,2022.2.4,120.31818612109548,
5,4,12,0,1.0,0.298245614035088,0,0.694444444444444,0.298245614035088,0,0.027777777777778,3.10526315789474,ReadingArea_rsl0-rcl100-esl29-rsm0-rcm69-esm29-rsr0-rcr2-esr310,exr/ReadingArea_rsl0-rcl100-esl29-rsm0-rcm69-esm29-rsr0-rcr2-esr310.exr,ReadingArea_rsl0-rcl100-esl29-rsm0-rcm69-esm29-rsr0-rcr2-esr310.npz,,,,,0,153,153,82,,left,green,1.18,534.9465939998627,535.5192048549652,,3,,3,5,lightness,readingArea,realistic,75,2023-03-18_13h28.17.438,tripletExp_regina_11082022,2022.2.4,120.31818612109548,
10,11,0,0,0.694444444444444,1.0,0,1.0,1.0,0,0.027777777777778,0.298245614035088,ReadingArea_rsl0-rcl69-esl100-rsm0-rcm100-esm100-rsr0-rcr2-esr29,exr/ReadingArea_rsl0-rcl69-esl100-rsm0-rcm100-esm100-rsr0-rcr2-esr29.exr,ReadingArea_rsl0-rcl69-esl100-rsm0-rcm100-esm100-rsr0-rcr2-esr29.npz,,,,,0,154,154,58,,left,green,0.9,537.2071578502655,537.6642320156097,,3,,3,5,lightness,readingArea,realistic,75,2023-03-18_13h28.17.438,tripletExp_regina_11082022,2022.2.4,120.31818612109548,
13,10,7,0,0.111111111111111,3.10526315789474,0,0.694444444444444,1.0,0,0.111111111111111,1.0,ReadingArea_rsl0-rcl11-esl310-rsm0-rcm69-esm100-rsr0-rcr11-esr100,exr/ReadingArea_rsl0-rcl11-esl310-rsm0-rcm69-esm100-rsr0-rcr11-esr100.exr,ReadingArea_rsl0-rcl11-esl310-rsm0-rcm69-esm100-rsr0-rcr11-esr100.npz,,,,,0,155,155,385,,left,green,1.06,539.3596968650818,539.8173449039459,,3,,3,5,lightness,readingArea,realistic,75,2023-03-18_13h28.17.438,tripletExp_regina_11082022,2022.2.4,120.31818612109548,
6,9,2,0,0.027777777777778,1.0,0,0.444444444444444,1.0,0,0.25,0.298245614035088,ReadingArea_rsl0-rcl2-esl100-rsm0-rcm44-esm100-rsr0-rcr25-esr29,exr/ReadingArea_rsl0-rcl2-esl100-rsm0-rcm44-esm100-rsr0-rcr25-esr29.exr,ReadingArea_rsl0-rcl2-esl100-rsm0-rcm44-esm100-rsr0-rcr25-esr29.npz,,,,,0,156,156,182,,right,red,1.11,541.5148088932037,541.9716939926147,,3,,3,5,lightness,readingArea,realistic,75,2023-03-18_13h28.17.438,tripletExp_regina_11082022,2022.2.4,120.31818612109548,
7,9,3,0,0.111111111111111,1.0,0,0.444444444444444,1.0,0,0.444444444444444,0.298245614035088,ReadingArea_rsl0-rcl11-esl100-rsm0-rcm44-esm100-rsr0-rcr44-esr29,exr/ReadingArea_rsl0-rcl11-esl100-rsm0-rcm44-esm100-rsr0-rcr44-esr29.exr,ReadingArea_rsl0-rcl11-esl100-rsm0-rcm44-esm100-rsr0-rcr44-esr29.npz,,,,,0,157,157,311,,right,red,1.34,543.65873503685,544.1209409236908,,3,,3,5,lightness,readingArea,realistic,75,2023-03-18_13h28.17.438,tripletExp_regina_11082022,2022.2.4,120.31818612109548,
10,14,1,0,0.694444444444444,1.0,0,0.25,3.10526315789474,0,0.111111111111111,0.298245614035088,ReadingArea_rsl0-rcl69-esl100-rsm0-rcm25-esm310-rsr0-rcr11-esr29,exr/ReadingArea_rsl0-rcl69-esl100-rsm0-rcm25-esm310-rsr0-rcr11-esr29.exr,ReadingArea_rsl0-rcl69-esl100-rsm0-rcm25-esm310-rsr0-rcr11-esr29.npz,,,,,0,158,158,544,,left,green,0.82,545.829304933548,,,3,,3,5,lightness,readingArea,realistic,75,2023-03-18_13h28.17.438,tripletExp_regina_11082022,2022.2.4,120.31818612109548,
9,8,0,0,0.444444444444444,1.0,0,0.25,1.0,0,0.027777777777778,0.298245614035088,ReadingArea_rsl0-rcl44-esl100-rsm0-rcm25-esm100-rsr0-rcr2-esr29,exr/ReadingArea_rsl0-rcl44-esl100-rsm0-rcm25-esm100-rsr0-rcr2-esr29.exr,ReadingArea_rsl0-rcl44-esl100-rsm0-rcm25-esm100-rsr0-rcr2-esr29.npz,,,,,0,159,159,66,,left,green,0.83,547.9842848777771,548.4518978595734,,3,,3,5,lightness,readingArea,realistic,75,2023-03-18_13h28.17.438,tripletExp_regina_11082022,2022.2.4,120.31818612109548,
12,7,1,0,0.027777777777778,3.10526315789474,0,0.111111111111111,1.0,0,0.111111111111111,0.298245614035088,ReadingArea_rsl0-rcl2-esl310-rsm0-rcm11-esm100-rsr0-rcr11-esr29,exr/ReadingArea_rsl0-rcl2-esl310-rsm0-rcm11-esm100-rsr0-rcr11-esr29.exr,ReadingArea_rsl0-rcl2-esl310-rsm0-rcm11-esm100-rsr0-rcr11-esr29.npz,,,,,0,160,160,264,,left,green,0.86,550.1526038646698,550.5979008674622,,3,,3,5,lightness,readingArea,realistic,75,2023-03-18_13h28.17.438,tripletExp_regina_11082022,2022.2.4,120.31818612109548,
4,6,3,0,0.694444444444444,0.298245614035088,0,0.027777777777778,1.0,0,0.444444444444444,0.298245614035088,ReadingArea_rsl0-rcl69-esl29-rsm0-rcm2-esm100-rsr0-rcr44-esr29,exr/ReadingArea_rsl0-rcl69-esl29-rsm0-rcm2-esm100-rsr0-rcr44-esr29.exr,ReadingArea_rsl0-rcl69-esl29-rsm0-rcm2-esm100-rsr0-rcr44-esr29.npz,,,,,0,161,161,344,,right,red,1.54,552.3184349536896,552.7484419345856,,3,,3,5,lightness,readingArea,realistic,75,2023-03-18_13h28.17.438,tripletExp_regina_11082022,2022.2.4,120.31818612109548,
5,13,12,0,1.0,0.298245614035088,0,0.111111111111111,3.10526315789474,0,0.027777777777778,3.10526315789474,ReadingArea_rsl0-rcl100-esl29-rsm0-rcm11-esm310-rsr0-rcr2-esr310,exr/ReadingArea_rsl0-rcl100-esl29-rsm0-rcm11-esm310-rsr0-rcr2-esr310.exr,ReadingArea_rsl0-rcl100-esl29-rsm0-rcm11-esm310-rsr0-rcr2-esr310.npz,,,,,0,162,162,389,,left,green,1.18,554.4367890357971,554.9060318470001,,3,,3,5,lightness,readingArea,realistic,75,2023-03-18_13h28.17.438,tripletExp_regina_11082022,2022.2.4,120.31818612109548,
12,5,14,0,0.027777777777778,3.10526315789474,0,1.0,0.298245614035088,0,0.25,3.10526315789474,ReadingArea_rsl0-rcl2-esl310-rsm0-rcm100-esm29-rsr0-rcr25-esr310,exr/ReadingArea_rsl0-rcl2-esl310-rsm0-rcm100-esm29-rsr0-rcr25-esr310.exr,ReadingArea_rsl0-rcl2-esl310-rsm0-rcm100-esm29-rsr0-rcr25-esr310.npz,,,,,0,163,163,193,,left,green,4.77,560.1515228748322,560.5970208644867,,3,,3,5,lightness,readingArea,realistic,75,2023-03-18_13h28.17.438,tripletExp_regina_11082022,2022.2.4,120.31818612109548,
8,0,6,0,0.25,1.0,0,0.027777777777778,0.298245614035088,0,0.027777777777778,1.0,ReadingArea_rsl0-rcl25-esl100-rsm0-rcm2-esm29-rsr0-rcr2-esr100,exr/ReadingArea_rsl0-rcl25-esl100-rsm0-rcm2-esm29-rsr0-rcr2-esr100.exr,ReadingArea_rsl0-rcl25-esl100-rsm0-rcm2-esm29-rsr0-rcr2-esr100.npz,,,,,0,164,164,401,,right,red,1.05,562.2942428588867,562.8029458522797,,3,,3,5,lightness,readingArea,realistic,75,2023-03-18_13h28.17.438,tripletExp_regina_11082022,2022.2.4,120.31818612109548,
3,9,13,0,0.444444444444444,0.298245614035088,0,0.444444444444444,1.0,0,0.111111111111111,3.10526315789474,ReadingArea_rsl0-rcl44-esl29-rsm0-rcm44-esm100-rsr0-rcr11-esr310,exr/ReadingArea_rsl0-rcl44-esl29-rsm0-rcm44-esm100-rsr0-rcr11-esr310.exr,ReadingArea_rsl0-rcl44-esl29-rsm0-rcm44-esm100-rsr0-rcr11-esr310.npz,,,,,0,165,165,341,,right,red,1.08,564.498468875885,,,3,,3,5,lightness,readingArea,realistic,75,2023-03-18_13h28.17.438,tripletExp_regina_11082022,2022.2.4,120.31818612109548,
11,7,10,0,1.0,1.0,0,0.111111111111111,1.0,0,0.694444444444444,1.0,ReadingArea_rsl0-rcl100-esl100-rsm0-rcm11-esm100-rsr0-rcr69-esr100,exr/ReadingArea_rsl0-rcl100-esl100-rsm0-rcm11-esm100-rsr0-rcr69-esr100.exr,ReadingArea_rsl0-rcl100-esl100-rsm0-rcm11-esm100-rsr0-rcr69-esr100.npz,,,,,0,166,166,411,,right,red,3.11,568.4046669006348,568.8972759246826,,3,,3,5,lightness,readingArea,realistic,75,2023-03-18_13h28.17.438,tripletExp_regina_11082022,2022.2.4,120.31818612109548,
2,5,0,0,0.25,0.298245614035088,0,1.0,0.298245614035088,0,0.027777777777778,0.298245614035088,ReadingArea_rsl0-rcl25-esl29-rsm0-rcm100-esm29-rsr0-rcr2-esr29,exr/ReadingArea_rsl0-rcl25-esl29-rsm0-rcm100-esm29-rsr0-rcr2-esr29.exr,ReadingArea_rsl0-rcl25-esl29-rsm0-rcm100-esm29-rsr0-rcr2-esr29.npz,,,,,0,167,167,414,,left,green,1.04,570.5963430404663,571.0887069702148,,3,,3,5,lightness,readingArea,realistic,75,2023-03-18_13h28.17.438,tripletExp_regina_11082022,2022.2.4,120.31818612109548,
11,6,14,0,1.0,1.0,0,0.027777777777778,1.0,0,0.25,3.10526315789474,ReadingArea_rsl0-rcl100-esl100-rsm0-rcm2-esm100-rsr0-rcr25-esr310,exr/ReadingArea_rsl0-rcl100-esl100-rsm0-rcm2-esm100-rsr0-rcr25-esr310.exr,ReadingArea_rsl0-rcl100-esl100-rsm0-rcm2-esm100-rsr0-rcr25-esr310.npz,,,,,0,168,168,305,,right,red,3.22,574.5789248943329,575.031219959259,,3,,3,5,lightness,readingArea,realistic,75,2023-03-18_13h28.17.438,tripletExp_regina_11082022,2022.2.4,120.31818612109548,
12,6,14,0,0.027777777777778,3.10526315789474,0,0.027777777777778,1.0,0,0.25,3.10526315789474,ReadingArea_rsl0-rcl2-esl310-rsm0-rcm2-esm100-rsr0-rcr25-esr310,exr/ReadingArea_rsl0-rcl2-esl310-rsm0-rcm2-esm100-rsr0-rcr25-esr310.exr,ReadingArea_rsl0-rcl2-esl310-rsm0-rcm2-esm100-rsr0-rcr25-esr310.npz,,,,,0,169,169,218,,left,green,0.94,576.7529439926147,577.2487008571625,,3,,3,5,lightness,readingArea,realistic,75,2023-03-18_13h28.17.438,tripletExp_regina_11082022,2022.2.4,120.31818612109548,
12,13,7,0,0.027777777777778,3.10526315789474,0,0.111111111111111,3.10526315789474,0,0.111111111111111,1.0,ReadingArea_rsl0-rcl2-esl310-rsm0-rcm11-esm310-rsr0-rcr11-esr100,exr/ReadingArea_rsl0-rcl2-esl310-rsm0-rcm11-esm310-rsr0-rcr11-esr100.exr,ReadingArea_rsl0-rcl2-esl310-rsm0-rcm11-esm310-rsr0-rcr11-esr100.npz,,,,,0,170,170,408,,right,red,1.39,578.944324016571,579.4264938831329,,3,,3,5,lightness,readingArea,realistic,75,2023-03-18_13h28.17.438,tripletExp_regina_11082022,2022.2.4,120.31818612109548,
13,2,4,0,0.111111111111111,3.10526315789474,0,0.25,0.298245614035088,0,0.694444444444444,0.298245614035088,ReadingArea_rsl0-rcl11-esl310-rsm0-rcm25-esm29-rsr0-rcr69-esr29,exr/ReadingArea_rsl0-rcl11-esl310-rsm0-rcm25-esm29-rsr0-rcr69-esr29.exr,ReadingArea_rsl0-rcl11-esl310-rsm0-rcm25-esm29-rsr0-rcr69-esr29.npz,,,,,0,171,171,307,,right,red,2.94,582.9059948921204,583.3469610214233,,3,,3,5,lightness,readingArea,realistic,75,2023-03-18_13h28.17.438,tripletExp_regina_11082022,2022.2.4,120.31818612109548,
2,10,6,0,0.25,0.298245614035088,0,0.694444444444444,1.0,0,0.027777777777778,1.0,ReadingArea_rsl0-rcl25-esl29-rsm0-rcm69-esm100-rsr0-rcr2-esr100,exr/ReadingArea_rsl0-rcl25-esl29-rsm0-rcm69-esm100-rsr0-rcr2-esr100.exr,ReadingArea_rsl0-rcl25-esl29-rsm0-rcm69-esm100-rsr0-rcr2-esr100.npz,,,,,0,172,172,4,,left,green,1.13,585.0438380241394,,,3,,3,5,lightness,readingArea,realistic,75,2023-03-18_13h28.17.438,tripletExp_regina_11082022,2022.2.4,120.31818612109548,
6,4,0,0,0.027777777777778,1.0,0,0.694444444444444,0.298245614035088,0,0.027777777777778,0.298245614035088,ReadingArea_rsl0-rcl2-esl100-rsm0-rcm69-esm29-rsr0-rcr2-esr29,exr/ReadingArea_rsl0-rcl2-esl100-rsm0-rcm69-esm29-rsr0-rcr2-esr29.exr,ReadingArea_rsl0-rcl2-esl100-rsm0-rcm69-esm29-rsr0-rcr2-esr29.npz,,,,,0,173,173,360,,left,green,1.82,587.20605301857,587.6764948368073,,3,,3,5,lightness,readingArea,realistic,75,2023-03-18_13h28.17.438,tripletExp_regina_11082022,2022.2.4,120.31818612109548,
2,3,9,0,0.25,0.298245614035088,0,0.444444444444444,0.298245614035088,0,0.444444444444444,1.0,ReadingArea_rsl0-rcl25-esl29-rsm0-rcm44-esm29-rsr0-rcr44-esr100,exr/ReadingArea_rsl0-rcl25-esl29-rsm0-rcm44-esm29-rsr0-rcr44-esr100.exr,ReadingArea_rsl0-rcl25-esl29-rsm0-rcm44-esm29-rsr0-rcr44-esr100.npz,,,,,0,174,174,190,,left,green,1.05,589.3623428344727,589.835590839386,,3,,3,5,lightness,readingArea,realistic,75,2023-03-18_13h28.17.438,tripletExp_regina_11082022,2022.2.4,120.31818612109548,
7,11,13,0,0.111111111111111,1.0,0,1.0,1.0,0,0.111111111111111,3.10526315789474,ReadingArea_rsl0-rcl11-esl100-rsm0-rcm100-esm100-rsr0-rcr11-esr310,exr/ReadingArea_rsl0-rcl11-esl100-rsm0-rcm100-esm100-rsr0-rcr11-esr310.exr,ReadingArea_rsl0-rcl11-esl100-rsm0-rcm100-esm100-rsr0-rcr11-esr310.npz,,,,,0,175,175,76,,right,red,1.18,591.5481870174408,591.9746420383453,,3,,3,5,lightness,readingArea,realistic,75,2023-03-18_13h28.17.438,tripletExp_regina_11082022,2022.2.4,120.31818612109548,
9,6,8,0,0.444444444444444,1.0,0,0.027777777777778,1.0,0,0.25,1.0,ReadingArea_rsl0-rcl44-esl100-rsm0-rcm2-esm100-rsr0-rcr25-esr100,exr/ReadingArea_rsl0-rcl44-esl100-rsm0-rcm2-esm100-rsr0-rcr25-esr100.exr,ReadingArea_rsl0-rcl44-esl100-rsm0-rcm2-esm100-rsr0-rcr25-esr100.npz,,,,,0,176,176,312,,right,red,1.46,593.6816039085388,594.1441700458527,,3,,3,5,lightness,readingArea,realistic,75,2023-03-18_13h28.17.438,tripletExp_regina_11082022,2022.2.4,120.31818612109548,
1,2,12,0,0.111111111111111,0.298245614035088,0,0.25,0.298245614035088,0,0.027777777777778,3.10526315789474,ReadingArea_rsl0-rcl11-esl29-rsm0-rcm25-esm29-rsr0-rcr2-esr310,exr/ReadingArea_rsl0-rcl11-esl29-rsm0-rcm25-esm29-rsr0-rcr2-esr310.exr,ReadingArea_rsl0-rcl11-esl29-rsm0-rcm25-esm29-rsr0-rcr2-esr310.npz,,,,,0,177,177,229,,right,red,0.99,595.8582148551941,596.3488478660583,,3,,3,5,lightness,readingArea,realistic,75,2023-03-18_13h28.17.438,tripletExp_regina_11082022,2022.2.4,120.31818612109548,
2,11,14,0,0.25,0.298245614035088,0,1.0,1.0,0,0.25,3.10526315789474,ReadingArea_rsl0-rcl25-esl29-rsm0-rcm100-esm100-rsr0-rcr25-esr310,exr/ReadingArea_rsl0-rcl25-esl29-rsm0-rcm100-esm100-rsr0-rcr25-esr310.exr,ReadingArea_rsl0-rcl25-esl29-rsm0-rcm100-esm100-rsr0-rcr25-esr310.npz,,,,,0,178,178,534,,right,red,0.82,598.0489690303802,598.5187678337097,,3,,3,5,lightness,readingArea,realistic,75,2023-03-18_13h28.17.438,tripletExp_regina_11082022,2022.2.4,120.31818612109548,
4,11,14,0,0.694444444444444,0.298245614035088,0,1.0,1.0,0,0.25,3.10526315789474,ReadingArea_rsl0-rcl69-esl29-rsm0-rcm100-esm100-rsr0-rcr25-esr310,exr/ReadingArea_rsl0-rcl69-esl29-rsm0-rcm100-esm100-rsr0-rcr25-esr310.exr,ReadingArea_rsl0-rcl69-esl29-rsm0-rcm100-esm100-rsr0-rcr25-esr310.npz,,,,,0,179,179,165,,right,red,0.72,600.2288329601288,600.8650379180908,,3,,3,5,lightness,readingArea,realistic,75,2023-03-18_13h28.17.438,tripletExp_regina_11082022,2022.2.4,120.31818612109548,
6,1,10,0,0.027777777777778,1.0,0,0.111111111111111,0.298245614035088,0,0.694444444444444,1.0,ReadingArea_rsl0-rcl2-esl100-rsm0-rcm11-esm29-rsr0-rcr69-esr100,exr/ReadingArea_rsl0-rcl2-esl100-rsm0-rcm11-esm29-rsr0-rcr69-esr100.exr,ReadingArea_rsl0-rcl2-esl100-rsm0-rcm11-esm29-rsr0-rcr69-esr100.npz,,,,,0,180,180,561,,left,green,1.26,602.544196844101,602.9986970424652,,3,,3,5,lightness,readingArea,realistic,75,2023-03-18_13h28.17.438,tripletExp_regina_11082022,2022.2.4,120.31818612109548,
13,3,14,0,0.111111111111111,3.10526315789474,0,0.444444444444444,0.298245614035088,0,0.25,3.10526315789474,ReadingArea_rsl0-rcl11-esl310-rsm0-rcm44-esm29-rsr0-rcr25-esr310,exr/ReadingArea_rsl0-rcl11-esl310-rsm0-rcm44-esm29-rsr0-rcr25-esr310.exr,ReadingArea_rsl0-rcl11-esl310-rsm0-rcm44-esm29-rsr0-rcr25-esr310.npz,,,,,0,181,181,38,,left,green,0.96,604.6992900371552,605.1643249988556,,3,,3,5,lightness,readingArea,realistic,75,2023-03-18_13h28.17.438,tripletExp_regina_11082022,2022.2.4,120.31818612109548,
13,2,9,0,0.111111111111111,3.10526315789474,0,0.25,0.298245614035088,0,0.444444444444444,1.0,ReadingArea_rsl0-rcl11-esl310-rsm0-rcm25-esm29-rsr0-rcr44-esr100,exr/ReadingArea_rsl0-rcl11-esl310-rsm0-rcm25-esm29-rsr0-rcr44-esr100.exr,ReadingArea_rsl0-rcl11-esl310-rsm0-rcm25-esm29-rsr0-rcr44-esr100.npz,,,,,0,182,182,457,,left,green,1.7,606.8507699966431,607.3164670467377,,3,,3,5,lightness,readingArea,realistic,75,2023-03-18_13h28.17.438,tripletExp_regina_11082022,2022.2.4,120.31818612109548,
4,12,2,0,0.694444444444444,0.298245614035088,0,0.027777777777778,3.10526315789474,0,0.25,0.298245614035088,ReadingArea_rsl0-rcl69-esl29-rsm0-rcm2-esm310-rsr0-rcr25-esr29,exr/ReadingArea_rsl0-rcl69-esl29-rsm0-rcm2-esm310-rsr0-rcr25-esr29.exr,ReadingArea_rsl0-rcl69-esl29-rsm0-rcm2-esm310-rsr0-rcr25-esr29.npz,,,,,0,183,183,543,,right,red,0.97,609.0213580131531,609.4669818878174,,3,,3,5,lightness,readingArea,realistic,75,2023-03-18_13h28.17.438,tripletExp_regina_11082022,2022.2.4,120.31818612109548,
2,7,11,0,0.25,0.298245614035088,0,0.111111111111111,1.0,0,1.0,1.0,ReadingArea_rsl0-rcl25-esl29-rsm0-rcm11-esm100-rsr0-rcr100-esr100,exr/ReadingArea_rsl0-rcl25-esl29-rsm0-rcm11-esm100-rsr0-rcr100-esr100.exr,ReadingArea_rsl0-rcl25-esl29-rsm0-rcm11-esm100-rsr0-rcr100-esr100.npz,,,,,0,184,184,194,,left,green,0.71,611.1588189601898,611.6859159469604,,3,,3,5,lightness,readingArea,realistic,75,2023-03-18_13h28.17.438,tripletExp_regina_11082022,2022.2.4,120.31818612109548,
4,13,1,0,0.694444444444444,0.298245614035088,0,0.111111111111111,3.10526315789474,0,0.111111111111111,0.298245614035088,ReadingArea_rsl0-rcl69-esl29-rsm0-rcm11-esm310-rsr0-rcr11-esr29,exr/ReadingArea_rsl0-rcl69-esl29-rsm0-rcm11-esm310-rsr0-rcr11-esr29.exr,ReadingArea_rsl0-rcl69-esl29-rsm0-rcm11-esm310-rsr0-rcr11-esr29.npz,,,,,0,185,185,192,,left,green,0.83,613.377023935318,613.8180339336395,,3,,3,5,lightness,readingArea,realistic,75,2023-03-18_13h28.17.438,tripletExp_regina_11082022,2022.2.4,120.31818612109548,
8,9,13,0,0.25,1.0,0,0.444444444444444,1.0,0,0.111111111111111,3.10526315789474,ReadingArea_rsl0-rcl25-esl100-rsm0-rcm44-esm100-rsr0-rcr11-esr310,exr/ReadingArea_rsl0-rcl25-esl100-rsm0-rcm44-esm100-rsr0-rcr11-esr310.exr,ReadingArea_rsl0-rcl25-esl100-rsm0-rcm44-esm100-rsr0-rcr11-esr310.npz,,,,,0,186,186,519,,right,red,1.37,615.5282168388367,615.9697499275208,,3,,3,5,lightness,readingArea,realistic,75,2023-03-18_13h28.17.438,tripletExp_regina_11082022,2022.2.4,120.31818612109548,
14,5,9,0,0.25,3.10526315789474,0,1.0,0.298245614035088,0,0.444444444444444,1.0,ReadingArea_rsl0-rcl25-esl310-rsm0-rcm100-esm29-rsr0-rcr44-esr100,exr/ReadingArea_rsl0-rcl25-esl310-rsm0-rcm100-esm29-rsr0-rcr44-esr100.exr,ReadingArea_rsl0-rcl25-esl310-rsm0-rcm100-esm29-rsr0-rcr44-esr100.npz,,,,,0,187,187,482,,right,red,1.1,617.6797020435333,618.1228029727936,,3,,3,5,lightness,readingArea,realistic,75,2023-03-18_13h28.17.438,tripletExp_regina_11082022,2022.2.4,120.31818612109548,
2,9,12,0,0.25,0.298245614035088,0,0.444444444444444,1.0,0,0.027777777777778,3.10526315789474,ReadingArea_rsl0-rcl25-esl29-rsm0-rcm44-esm100-rsr0-rcr2-esr310,exr/ReadingArea_rsl0-rcl25-esl29-rsm0-rcm44-esm100-rsr0-rcr2-esr310.exr,ReadingArea_rsl0-rcl25-esl29-rsm0-rcm44-esm100-rsr0-rcr2-esr310.npz,,,,,0,188,188,354,,left,green,3.1,621.5928499698639,622.1029000282288,,3,,3,5,lightness,readingArea,realistic,75,2023-03-18_13h28.17.438,tripletExp_regina_11082022,2022.2.4,120.31818612109548,
4,3,11,0,0.694444444444444,0.298245614035088,0,0.444444444444444,0.298245614035088,0,1.0,1.0,ReadingArea_rsl0-rcl69-esl29-rsm0-rcm44-esm29-rsr0-rcr100-esr100,exr/ReadingArea_rsl0-rcl69-esl29-rsm0-rcm44-esm29-rsr0-rcr100-esr100.exr,ReadingArea_rsl0-rcl69-esl29-rsm0-rcm44-esm29-rsr0-rcr100-esr100.npz,,,,,0,189,189,439,,left,green,1.09,623.816771030426,624.2601239681244,,3,,3,5,lightness,readingArea,realistic,75,2023-03-18_13h28.17.438,tripletExp_regina_11082022,2022.2.4,120.31818612109548,
7,13,12,0,0.111111111111111,1.0,0,0.111111111111111,3.10526315789474,0,0.027777777777778,3.10526315789474,ReadingArea_rsl0-rcl11-esl100-rsm0-rcm11-esm310-rsr0-rcr2-esr310,exr/ReadingArea_rsl0-rcl11-esl100-rsm0-rcm11-esm310-rsr0-rcr2-esr310.exr,ReadingArea_rsl0-rcl11-esl100-rsm0-rcm11-esm310-rsr0-rcr2-esr310.npz,,,,,0,190,190,438,,left,green,3.02,627.7273759841919,628.4231579303741,,3,,3,5,lightness,readingArea,realistic,75,2023-03-18_13h28.17.438,tripletExp_regina_11082022,2022.2.4,120.31818612109548,
1,4,7,0,0.111111111111111,0.298245614035088,0,0.694444444444444,0.298245614035088,0,0.111111111111111,1.0,ReadingArea_rsl0-rcl11-esl29-rsm0-rcm69-esm29-rsr0-rcr11-esr100,exr/ReadingArea_rsl0-rcl11-esl29-rsm0-rcm69-esm29-rsr0-rcr11-esr100.exr,ReadingArea_rsl0-rcl11-esl29-rsm0-rcm69-esm29-rsr0-rcr11-esr100.npz,,,,,0,191,191,522,,right,red,1.35,630.1224508285522,630.6549968719482,,3,,3,5,lightness,readingArea,realistic,75,2023-03-18_13h28.17.438,tripletExp_regina_11082022,2022.2.4,120.31818612109548,
11,8,10,0,1.0,1.0,0,0.25,1.0,0,0.694444444444444,1.0,ReadingArea_rsl0-rcl100-esl100-rsm0-rcm25-esm100-rsr0-rcr69-esr100,exr/ReadingArea_rsl0-rcl100-esl100-rsm0-rcm25-esm100-rsr0-rcr69-esr100.exr,ReadingArea_rsl0-rcl100-esl100-rsm0-rcm25-esm100-rsr0-rcr69-esr100.npz,,,,,0,192,192,67,,right,red,1.89,634.0990269184113,634.6082010269165,,3,,3,5,lightness,readingArea,realistic,75,2023-03-18_13h28.17.438,tripletExp_regina_11082022,2022.2.4,120.31818612109548,
1,13,14,0,0.111111111111111,0.298245614035088,0,0.111111111111111,3.10526315789474,0,0.25,3.10526315789474,ReadingArea_rsl0-rcl11-esl29-rsm0-rcm11-esm310-rsr0-rcr25-esr310,exr/ReadingArea_rsl0-rcl11-esl29-rsm0-rcm11-esm310-rsr0-rcr25-esr310.exr,ReadingArea_rsl0-rcl11-esl29-rsm0-rcm11-esm310-rsr0-rcr25-esr310.npz,,,,,0,193,193,183,,right,red,4.82,639.875314950943,640.4408829212189,,3,,3,5,lightness,readingArea,realistic,75,2023-03-18_13h28.17.438,tripletExp_regina_11082022,2022.2.4,120.31818612109548,
1,9,11,0,0.111111111111111,0.298245614035088,0,0.444444444444444,1.0,0,1.0,1.0,ReadingArea_rsl0-rcl11-esl29-rsm0-rcm44-esm100-rsr0-rcr100-esr100,exr/ReadingArea_rsl0-rcl11-esl29-rsm0-rcm44-esm100-rsr0-rcr100-esr100.exr,ReadingArea_rsl0-rcl11-esl29-rsm0-rcm44-esm100-rsr0-rcr100-esr100.npz,,,,,0,194,194,215,,right,red,0.94,642.1391448974609,642.5868968963623,,3,,3,5,lightness,readingArea,realistic,75,2023-03-18_13h28.17.438,tripletExp_regina_11082022,2022.2.4,120.31818612109548,
14,13,2,0,0.25,3.10526315789474,0,0.111111111111111,3.10526315789474,0,0.25,0.298245614035088,ReadingArea_rsl0-rcl25-esl310-rsm0-rcm11-esm310-rsr0-rcr25-esr29,exr/ReadingArea_rsl0-rcl25-esl310-rsm0-rcm11-esm310-rsr0-rcr25-esr29.exr,ReadingArea_rsl0-rcl25-esl310-rsm0-rcm11-esm310-rsr0-rcr25-esr29.npz,,,,,0,195,195,377,,left,green,3.25,646.0631940364838,646.5679178237915,,3,,3,5,lightness,readingArea,realistic,75,2023-03-18_13h28.17.438,tripletExp_regina_11082022,2022.2.4,120.31818612109548,
6,11,7,0,0.027777777777778,1.0,0,1.0,1.0,0,0.111111111111111,1.0,ReadingArea_rsl0-rcl2-esl100-rsm0-rcm100-esm100-rsr0-rcr11-esr100,exr/ReadingArea_rsl0-rcl2-esl100-rsm0-rcm100-esm100-rsr0-rcr11-esr100.exr,ReadingArea_rsl0-rcl2-esl100-rsm0-rcm100-esm100-rsr0-rcr11-esr100.npz,,,,,0,196,196,571,,right,red,1.14,648.275426864624,648.7413418292999,,3,,3,5,lightness,readingArea,realistic,75,2023-03-18_13h28.17.438,tripletExp_regina_11082022,2022.2.4,120.31818612109548,
13,10,9,0,0.111111111111111,3.10526315789474,0,0.694444444444444,1.0,0,0.444444444444444,1.0,ReadingArea_rsl0-rcl11-esl310-rsm0-rcm69-esm100-rsr0-rcr44-esr100,exr/ReadingArea_rsl0-rcl11-esl310-rsm0-rcm69-esm100-rsr0-rcr44-esr100.exr,ReadingArea_rsl0-rcl11-esl310-rsm0-rcm69-esm100-rsr0-rcr44-esr100.npz,,,,,0,197,197,330,,right,red,1.37,650.4536828994751,,,3,,3,5,lightness,readingArea,realistic,75,2023-03-18_13h28.17.438,tripletExp_regina_11082022,2022.2.4,120.31818612109548,
8,6,5,0,0.25,1.0,0,0.027777777777778,1.0,0,1.0,0.298245614035088,ReadingArea_rsl0-rcl25-esl100-rsm0-rcm2-esm100-rsr0-rcr100-esr29,exr/ReadingArea_rsl0-rcl25-esl100-rsm0-rcm2-esm100-rsr0-rcr100-esr29.exr,ReadingArea_rsl0-rcl25-esl100-rsm0-rcm2-esm100-rsr0-rcr100-esr29.npz,,,,,0,198,198,241,,left,green,2.95,654.3579008579254,654.8257050514221,,3,,3,5,lightness,readingArea,realistic,75,2023-03-18_13h28.17.438,tripletExp_regina_11082022,2022.2.4,120.31818612109548,
14,1,13,0,0.25,3.10526315789474,0,0.111111111111111,0.298245614035088,0,0.111111111111111,3.10526315789474,ReadingArea_rsl0-rcl25-esl310-rsm0-rcm11-esm29-rsr0-rcr11-esr310,exr/ReadingArea_rsl0-rcl25-esl310-rsm0-rcm11-esm29-rsr0-rcr11-esr310.exr,ReadingArea_rsl0-rcl25-esl310-rsm0-rcm11-esm29-rsr0-rcr11-esr310.npz,,,,,0,199,199,265,,right,red,1.0,656.5247778892517,657.1281008720398,,3,,3,5,lightness,readingArea,realistic,75,2023-03-18_13h28.17.438,tripletExp_regina_11082022,2022.2.4,120.31818612109548,
6,1,2,0,0.027777777777778,1.0,0,0.111111111111111,0.298245614035088,0,0.25,0.298245614035088,ReadingArea_rsl0-rcl2-esl100-rsm0-rcm11-esm29-rsr0-rcr25-esr29,exr/ReadingArea_rsl0-rcl2-esl100-rsm0-rcm11-esm29-rsr0-rcr25-esr29.exr,ReadingArea_rsl0-rcl2-esl100-rsm0-rcm11-esm29-rsr0-rcr25-esr29.npz,,,,,0,200,200,68,,left,green,1.64,658.8440048694611,659.293231010437,,3,,3,5,lightness,readingArea,realistic,75,2023-03-18_13h28.17.438,tripletExp_regina_11082022,2022.2.4,120.31818612109548,
14,0,9,0,0.25,3.10526315789474,0,0.027777777777778,0.298245614035088,0,0.444444444444444,1.0,ReadingArea_rsl0-rcl25-esl310-rsm0-rcm2-esm29-rsr0-rcr44-esr100,exr/ReadingArea_rsl0-rcl25-esl310-rsm0-rcm2-esm29-rsr0-rcr44-esr100.exr,ReadingArea_rsl0-rcl25-esl310-rsm0-rcm2-esm29-rsr0-rcr44-esr100.npz,,,,,0,201,201,90,,right,red,1.25,660.987028837204,661.4342269897461,,3,,3,5,lightness,readingArea,realistic,75,2023-03-18_13h28.17.438,tripletExp_regina_11082022,2022.2.4,120.31818612109548,
9,12,0,0,0.444444444444444,1.0,0,0.027777777777778,3.10526315789474,0,0.027777777777778,0.298245614035088,ReadingArea_rsl0-rcl44-esl100-rsm0-rcm2-esm310-rsr0-rcr2-esr29,exr/ReadingArea_rsl0-rcl44-esl100-rsm0-rcm2-esm310-rsr0-rcr2-esr29.exr,ReadingArea_rsl0-rcl44-esl100-rsm0-rcm2-esm310-rsr0-rcr2-esr29.npz,,,,,0,202,202,175,,left,green,4.8,666.6943509578705,667.1470708847046,,3,,3,5,lightness,readingArea,realistic,75,2023-03-18_13h28.17.438,tripletExp_regina_11082022,2022.2.4,120.31818612109548,
5,8,3,0,1.0,0.298245614035088,0,0.25,1.0,0,0.444444444444444,0.298245614035088,ReadingArea_rsl0-rcl100-esl29-rsm0-rcm25-esm100-rsr0-rcr44-esr29,exr/ReadingArea_rsl0-rcl100-esl29-rsm0-rcm25-esm100-rsr0-rcr44-esr29.exr,ReadingArea_rsl0-rcl100-esl29-rsm0-rcm25-esm100-rsr0-rcr44-esr29.npz,,,,,0,203,203,556,,left,green,1.19,668.8563108444214,,,3,,3,5,lightness,readingArea,realistic,75,2023-03-18_13h28.17.438,tripletExp_regina_11082022,2022.2.4,120.31818612109548,
