index_left,index_middle,index_right,reflectance_surround_left,reflectance_center_left,emission_spot_left,reflectance_surround_middle,reflectance_center_middle,emission_spot_middle,reflectance_surround_right,reflectance_center_right,emission_spot_right,ImageName,ImageExr,ImageNpy,trials_2.thisRepN,trials_2.thisTrialN,trials_2.thisN,trials_2.thisIndex,trials.thisRepN,trials.thisTrialN,trials.thisN,trials.thisIndex,sound_1.started,BB_Trial.resp,BB_Trial.color,BB_Trial.rt,text.started,text.stopped,sound_1.stopped,block,sound_4.started,participant,session,L/B,scene,condition,nTrialsPerBlock,date,expName,psychopyVersion,frameRate,Unnamed: 42
13,11,2,2,0.111111111111111,3.10526315789474,2,1.0,1.0,2,0.25,0.298245614035088,ReadingArea_rsl2-rcl11-esl310-rsm2-rcm100-esm100-rsr2-rcr25-esr29,exr/ReadingArea_rsl2-rcl11-esl310-rsm2-rcm100-esm100-rsr2-rcr25-esr29.exr,ReadingArea_rsl2-rcl11-esl310-rsm2-rcm100-esm100-rsr2-rcr25-esr29.npz,,,,,0,0,0,55,632.9335295915604,left,green,1.18,640.9818568229675,641.4005608558655,598.7933619022369,1,,4,4,brightness,readingArea,realistic,75,2023-03-22_14h09.59.024,tripletExp_regina_11082022,2022.2.4,120.30058625793056,
12,9,14,2,0.027777777777778,3.10526315789474,2,0.444444444444444,1.0,2,0.25,3.10526315789474,ReadingArea_rsl2-rcl2-esl310-rsm2-rcm44-esm100-rsr2-rcr25-esr310,exr/ReadingArea_rsl2-rcl2-esl310-rsm2-rcm44-esm100-rsr2-rcr25-esr310.exr,ReadingArea_rsl2-rcl2-esl310-rsm2-rcm44-esm100-rsr2-rcr25-esr310.npz,,,,,0,1,1,123,,right,red,1.52,643.1270627975464,643.5233829021454,,1,,4,4,brightness,readingArea,realistic,75,2023-03-22_14h09.59.024,tripletExp_regina_11082022,2022.2.4,120.30058625793056,
13,6,4,2,0.111111111111111,3.10526315789474,2,0.027777777777778,1.0,2,0.694444444444444,0.298245614035088,ReadingArea_rsl2-rcl11-esl310-rsm2-rcm2-esm100-rsr2-rcr69-esr29,exr/ReadingArea_rsl2-rcl11-esl310-rsm2-rcm2-esm100-rsr2-rcr69-esr29.exr,ReadingArea_rsl2-rcl11-esl310-rsm2-rcm2-esm100-rsr2-rcr69-esr29.npz,,,,,0,2,2,328,,right,red,2.47,647.0075469017029,647.3615658283234,,1,,4,4,brightness,readingArea,realistic,75,2023-03-22_14h09.59.024,tripletExp_regina_11082022,2022.2.4,120.30058625793056,
9,11,6,2,0.444444444444444,1.0,2,1.0,1.0,2,0.027777777777778,1.0,ReadingArea_rsl2-rcl44-esl100-rsm2-rcm100-esm100-rsr2-rcr2-esr100,exr/ReadingArea_rsl2-rcl44-esl100-rsm2-rcm100-esm100-rsr2-rcr2-esr100.exr,ReadingArea_rsl2-rcl44-esl100-rsm2-rcm100-esm100-rsr2-rcr2-esr100.npz,,,,,0,3,3,404,,left,green,1.9,650.8324949741364,651.1896460056305,,1,,4,4,brightness,readingArea,realistic,75,2023-03-22_14h09.59.024,tripletExp_regina_11082022,2022.2.4,120.30058625793056,
5,4,1,2,1.0,0.298245614035088,2,0.694444444444444,0.298245614035088,2,0.111111111111111,0.298245614035088,ReadingArea_rsl2-rcl100-esl29-rsm2-rcm69-esm29-rsr2-rcr11-esr29,exr/ReadingArea_rsl2-rcl100-esl29-rsm2-rcm69-esm29-rsr2-rcr11-esr29.exr,ReadingArea_rsl2-rcl100-esl29-rsm2-rcm69-esm29-rsr2-rcr11-esr29.npz,,,,,0,4,4,560,,left,green,0.97,652.9022197723389,653.2463939189911,,1,,4,4,brightness,readingArea,realistic,75,2023-03-22_14h09.59.024,tripletExp_regina_11082022,2022.2.4,120.30058625793056,
8,12,4,2,0.25,1.0,2,0.027777777777778,3.10526315789474,2,0.694444444444444,0.298245614035088,ReadingArea_rsl2-rcl25-esl100-rsm2-rcm2-esm310-rsr2-rcr69-esr29,exr/ReadingArea_rsl2-rcl25-esl100-rsm2-rcm2-esm310-rsr2-rcr69-esr29.exr,ReadingArea_rsl2-rcl25-esl100-rsm2-rcm2-esm310-rsr2-rcr69-esr29.npz,,,,,0,5,5,30,,left,green,2.76,656.7111628055573,657.1061317920685,,1,,4,4,brightness,readingArea,realistic,75,2023-03-22_14h09.59.024,tripletExp_regina_11082022,2022.2.4,120.30058625793056,
10,11,9,2,0.694444444444444,1.0,2,1.0,1.0,2,0.444444444444444,1.0,ReadingArea_rsl2-rcl69-esl100-rsm2-rcm100-esm100-rsr2-rcr44-esr100,exr/ReadingArea_rsl2-rcl69-esl100-rsm2-rcm100-esm100-rsr2-rcr44-esr100.exr,ReadingArea_rsl2-rcl69-esl100-rsm2-rcm100-esm100-rsr2-rcr44-esr100.npz,,,,,0,6,6,492,,left,green,1.99,660.5656399726868,660.9759478569031,,1,,4,4,brightness,readingArea,realistic,75,2023-03-22_14h09.59.024,tripletExp_regina_11082022,2022.2.4,120.30058625793056,
8,0,6,2,0.25,1.0,2,0.027777777777778,0.298245614035088,2,0.027777777777778,1.0,ReadingArea_rsl2-rcl25-esl100-rsm2-rcm2-esm29-rsr2-rcr2-esr100,exr/ReadingArea_rsl2-rcl25-esl100-rsm2-rcm2-esm29-rsr2-rcr2-esr100.exr,ReadingArea_rsl2-rcl25-esl100-rsm2-rcm2-esm29-rsr2-rcr2-esr100.npz,,,,,0,7,7,401,,right,red,1.2,662.6939449310303,663.1338198184967,,1,,4,4,brightness,readingArea,realistic,75,2023-03-22_14h09.59.024,tripletExp_regina_11082022,2022.2.4,120.30058625793056,
7,13,4,2,0.111111111111111,1.0,2,0.111111111111111,3.10526315789474,2,0.694444444444444,0.298245614035088,ReadingArea_rsl2-rcl11-esl100-rsm2-rcm11-esm310-rsr2-rcr69-esr29,exr/ReadingArea_rsl2-rcl11-esl100-rsm2-rcm11-esm310-rsr2-rcr69-esr29.exr,ReadingArea_rsl2-rcl11-esl100-rsm2-rcm11-esm310-rsr2-rcr69-esr29.npz,,,,,0,8,8,456,,right,red,2.1,666.6509268283844,667.0624318122864,,1,,4,4,brightness,readingArea,realistic,75,2023-03-22_14h09.59.024,tripletExp_regina_11082022,2022.2.4,120.30058625793056,
0,8,3,2,0.027777777777778,0.298245614035088,2,0.25,1.0,2,0.444444444444444,0.298245614035088,ReadingArea_rsl2-rcl2-esl29-rsm2-rcm25-esm100-rsr2-rcr44-esr29,exr/ReadingArea_rsl2-rcl2-esl29-rsm2-rcm25-esm100-rsr2-rcr44-esr29.exr,ReadingArea_rsl2-rcl2-esl29-rsm2-rcm25-esm100-rsr2-rcr44-esr29.npz,,,,,0,9,9,301,,right,red,1.42,668.7563219070435,,,1,,4,4,brightness,readingArea,realistic,75,2023-03-22_14h09.59.024,tripletExp_regina_11082022,2022.2.4,120.30058625793056,
4,12,2,2,0.694444444444444,0.298245614035088,2,0.027777777777778,3.10526315789474,2,0.25,0.298245614035088,ReadingArea_rsl2-rcl69-esl29-rsm2-rcm2-esm310-rsr2-rcr25-esr29,exr/ReadingArea_rsl2-rcl69-esl29-rsm2-rcm2-esm310-rsr2-rcr25-esr29.exr,ReadingArea_rsl2-rcl69-esl29-rsm2-rcm2-esm310-rsr2-rcr25-esr29.npz,,,,,0,10,10,543,,right,red,2.0,672.6088709831238,672.9982388019562,,1,,4,4,brightness,readingArea,realistic,75,2023-03-22_14h09.59.024,tripletExp_regina_11082022,2022.2.4,120.30058625793056,
14,8,3,2,0.25,3.10526315789474,2,0.25,1.0,2,0.444444444444444,0.298245614035088,ReadingArea_rsl2-rcl25-esl310-rsm2-rcm25-esm100-rsr2-rcr44-esr29,exr/ReadingArea_rsl2-rcl25-esl310-rsm2-rcm25-esm100-rsr2-rcr44-esr29.exr,ReadingArea_rsl2-rcl25-esl310-rsm2-rcm25-esm100-rsr2-rcr44-esr29.npz,,,,,0,11,11,100,,right,red,2.06,676.47687292099,676.9009869098663,,1,,4,4,brightness,readingArea,realistic,75,2023-03-22_14h09.59.024,tripletExp_regina_11082022,2022.2.4,120.30058625793056,
0,9,6,2,0.027777777777778,0.298245614035088,2,0.444444444444444,1.0,2,0.027777777777778,1.0,ReadingArea_rsl2-rcl2-esl29-rsm2-rcm44-esm100-rsr2-rcr2-esr100,exr/ReadingArea_rsl2-rcl2-esl29-rsm2-rcm44-esm100-rsr2-rcr2-esr100.exr,ReadingArea_rsl2-rcl2-esl29-rsm2-rcm44-esm100-rsr2-rcr2-esr100.npz,,,,,0,12,12,365,,right,red,1.57,678.582142829895,678.9399600028992,,1,,4,4,brightness,readingArea,realistic,75,2023-03-22_14h09.59.024,tripletExp_regina_11082022,2022.2.4,120.30058625793056,
0,11,9,2,0.027777777777778,0.298245614035088,2,1.0,1.0,2,0.444444444444444,1.0,ReadingArea_rsl2-rcl2-esl29-rsm2-rcm100-esm100-rsr2-rcr44-esr100,exr/ReadingArea_rsl2-rcl2-esl29-rsm2-rcm100-esm100-rsr2-rcr44-esr100.exr,ReadingArea_rsl2-rcl2-esl29-rsm2-rcm100-esm100-rsr2-rcr44-esr100.npz,,,,,0,13,13,32,,right,red,1.55,680.647145986557,681.0994598865509,,1,,4,4,brightness,readingArea,realistic,75,2023-03-22_14h09.59.024,tripletExp_regina_11082022,2022.2.4,120.30058625793056,
9,3,14,2,0.444444444444444,1.0,2,0.444444444444444,0.298245614035088,2,0.25,3.10526315789474,ReadingArea_rsl2-rcl44-esl100-rsm2-rcm44-esm29-rsr2-rcr25-esr310,exr/ReadingArea_rsl2-rcl44-esl100-rsm2-rcm44-esm29-rsr2-rcr25-esr310.exr,ReadingArea_rsl2-rcl44-esl100-rsm2-rcm44-esm29-rsr2-rcr25-esr310.npz,,,,,0,14,14,17,,left,green,1.21,682.8149929046631,683.1594388484955,,1,,4,4,brightness,readingArea,realistic,75,2023-03-22_14h09.59.024,tripletExp_regina_11082022,2022.2.4,120.30058625793056,
7,10,13,2,0.111111111111111,1.0,2,0.694444444444444,1.0,2,0.111111111111111,3.10526315789474,ReadingArea_rsl2-rcl11-esl100-rsm2-rcm69-esm100-rsr2-rcr11-esr310,exr/ReadingArea_rsl2-rcl11-esl100-rsm2-rcm69-esm100-rsr2-rcr11-esr310.exr,ReadingArea_rsl2-rcl11-esl100-rsm2-rcm69-esm100-rsr2-rcr11-esr310.npz,,,,,0,15,15,446,,right,red,2.15,686.6142578125,686.9634299278259,,1,,4,4,brightness,readingArea,realistic,75,2023-03-22_14h09.59.024,tripletExp_regina_11082022,2022.2.4,120.30058625793056,
8,1,14,2,0.25,1.0,2,0.111111111111111,0.298245614035088,2,0.25,3.10526315789474,ReadingArea_rsl2-rcl25-esl100-rsm2-rcm11-esm29-rsr2-rcr25-esr310,exr/ReadingArea_rsl2-rcl25-esl100-rsm2-rcm11-esm29-rsr2-rcr25-esr310.exr,ReadingArea_rsl2-rcl25-esl100-rsm2-rcm11-esm29-rsr2-rcr25-esr310.npz,,,,,0,16,16,500,,left,green,2.28,690.4395048618317,690.7967038154602,,1,,4,4,brightness,readingArea,realistic,75,2023-03-22_14h09.59.024,tripletExp_regina_11082022,2022.2.4,120.30058625793056,
5,7,14,2,1.0,0.298245614035088,2,0.111111111111111,1.0,2,0.25,3.10526315789474,ReadingArea_rsl2-rcl100-esl29-rsm2-rcm11-esm100-rsr2-rcr25-esr310,exr/ReadingArea_rsl2-rcl100-esl29-rsm2-rcm11-esm100-rsr2-rcr25-esr310.exr,ReadingArea_rsl2-rcl100-esl29-rsm2-rcm11-esm100-rsr2-rcr25-esr310.npz,,,,,0,17,17,210,,left,green,1.21,692.5156109333038,692.8980629444122,,1,,4,4,brightness,readingArea,realistic,75,2023-03-22_14h09.59.024,tripletExp_regina_11082022,2022.2.4,120.30058625793056,
13,11,10,2,0.111111111111111,3.10526315789474,2,1.0,1.0,2,0.694444444444444,1.0,ReadingArea_rsl2-rcl11-esl310-rsm2-rcm100-esm100-rsr2-rcr69-esr100,exr/ReadingArea_rsl2-rcl11-esl310-rsm2-rcm100-esm100-rsr2-rcr69-esr100.exr,ReadingArea_rsl2-rcl11-esl310-rsm2-rcm100-esm100-rsr2-rcr69-esr100.npz,,,,,0,18,18,577,,right,red,2.33,696.3766617774963,696.7443888187408,,1,,4,4,brightness,readingArea,realistic,75,2023-03-22_14h09.59.024,tripletExp_regina_11082022,2022.2.4,120.30058625793056,
3,12,4,2,0.444444444444444,0.298245614035088,2,0.027777777777778,3.10526315789474,2,0.694444444444444,0.298245614035088,ReadingArea_rsl2-rcl44-esl29-rsm2-rcm2-esm310-rsr2-rcr69-esr29,exr/ReadingArea_rsl2-rcl44-esl29-rsm2-rcm2-esm310-rsr2-rcr69-esr29.exr,ReadingArea_rsl2-rcl44-esl29-rsm2-rcm2-esm310-rsr2-rcr69-esr29.npz,,,,,0,19,19,426,,left,green,3.77,702.0113968849182,702.4173159599304,,1,,4,4,brightness,readingArea,realistic,75,2023-03-22_14h09.59.024,tripletExp_regina_11082022,2022.2.4,120.30058625793056,
1,5,8,2,0.111111111111111,0.298245614035088,2,1.0,0.298245614035088,2,0.25,1.0,ReadingArea_rsl2-rcl11-esl29-rsm2-rcm100-esm29-rsr2-rcr25-esr100,exr/ReadingArea_rsl2-rcl11-esl29-rsm2-rcm100-esm29-rsr2-rcr25-esr100.exr,ReadingArea_rsl2-rcl11-esl29-rsm2-rcm100-esm29-rsr2-rcr25-esr100.npz,,,,,0,20,20,238,,right,red,2.14,705.8978419303894,706.2611989974976,,1,,4,4,brightness,readingArea,realistic,75,2023-03-22_14h09.59.024,tripletExp_regina_11082022,2022.2.4,120.30058625793056,
7,10,5,2,0.111111111111111,1.0,2,0.694444444444444,1.0,2,1.0,0.298245614035088,ReadingArea_rsl2-rcl11-esl100-rsm2-rcm69-esm100-rsr2-rcr100-esr29,exr/ReadingArea_rsl2-rcl11-esl100-rsm2-rcm69-esm100-rsr2-rcr100-esr29.exr,ReadingArea_rsl2-rcl11-esl100-rsm2-rcm69-esm100-rsr2-rcr100-esr29.npz,,,,,0,21,21,395,,right,red,2.2,709.7429249286652,710.1700699329376,,1,,4,4,brightness,readingArea,realistic,75,2023-03-22_14h09.59.024,tripletExp_regina_11082022,2022.2.4,120.30058625793056,
3,4,5,2,0.444444444444444,0.298245614035088,2,0.694444444444444,0.298245614035088,2,1.0,0.298245614035088,ReadingArea_rsl2-rcl44-esl29-rsm2-rcm69-esm29-rsr2-rcr100-esr29,exr/ReadingArea_rsl2-rcl44-esl29-rsm2-rcm69-esm29-rsr2-rcr100-esr29.exr,ReadingArea_rsl2-rcl44-esl29-rsm2-rcm69-esm29-rsr2-rcr100-esr29.npz,,,,,0,22,22,233,,right,red,3.69,715.3919479846954,715.753494977951,,1,,4,4,brightness,readingArea,realistic,75,2023-03-22_14h09.59.024,tripletExp_regina_11082022,2022.2.4,120.30058625793056,
12,7,2,2,0.027777777777778,3.10526315789474,2,0.111111111111111,1.0,2,0.25,0.298245614035088,ReadingArea_rsl2-rcl2-esl310-rsm2-rcm11-esm100-rsr2-rcr25-esr29,exr/ReadingArea_rsl2-rcl2-esl310-rsm2-rcm11-esm100-rsr2-rcr25-esr29.exr,ReadingArea_rsl2-rcl2-esl310-rsm2-rcm11-esm100-rsr2-rcr25-esr29.npz,,,,,0,23,23,248,,left,green,2.3,719.233384847641,719.5886278152466,,1,,4,4,brightness,readingArea,realistic,75,2023-03-22_14h09.59.024,tripletExp_regina_11082022,2022.2.4,120.30058625793056,
3,8,7,2,0.444444444444444,0.298245614035088,2,0.25,1.0,2,0.111111111111111,1.0,ReadingArea_rsl2-rcl44-esl29-rsm2-rcm25-esm100-rsr2-rcr11-esr100,exr/ReadingArea_rsl2-rcl44-esl29-rsm2-rcm25-esm100-rsr2-rcr11-esr100.exr,ReadingArea_rsl2-rcl44-esl29-rsm2-rcm25-esm100-rsr2-rcr11-esr100.npz,,,,,0,24,24,484,,left,green,4.18,724.8793148994446,725.251935005188,,1,,4,4,brightness,readingArea,realistic,75,2023-03-22_14h09.59.024,tripletExp_regina_11082022,2022.2.4,120.30058625793056,
1,8,5,2,0.111111111111111,0.298245614035088,2,0.25,1.0,2,1.0,0.298245614035088,ReadingArea_rsl2-rcl11-esl29-rsm2-rcm25-esm100-rsr2-rcr100-esr29,exr/ReadingArea_rsl2-rcl11-esl29-rsm2-rcm25-esm100-rsr2-rcr100-esr29.exr,ReadingArea_rsl2-rcl11-esl29-rsm2-rcm25-esm100-rsr2-rcr100-esr29.npz,,,,,0,25,25,445,,right,red,2.04,728.739159822464,729.0956499576569,,1,,4,4,brightness,readingArea,realistic,75,2023-03-22_14h09.59.024,tripletExp_regina_11082022,2022.2.4,120.30058625793056,
8,9,6,2,0.25,1.0,2,0.444444444444444,1.0,2,0.027777777777778,1.0,ReadingArea_rsl2-rcl25-esl100-rsm2-rcm44-esm100-rsr2-rcr2-esr100,exr/ReadingArea_rsl2-rcl25-esl100-rsm2-rcm44-esm100-rsr2-rcr2-esr100.exr,ReadingArea_rsl2-rcl25-esl100-rsm2-rcm44-esm100-rsr2-rcr2-esr100.npz,,,,,0,26,26,3,,left,green,0.97,730.7909698486328,,,1,,4,4,brightness,readingArea,realistic,75,2023-03-22_14h09.59.024,tripletExp_regina_11082022,2022.2.4,120.30058625793056,
2,13,3,2,0.25,0.298245614035088,2,0.111111111111111,3.10526315789474,2,0.444444444444444,0.298245614035088,ReadingArea_rsl2-rcl25-esl29-rsm2-rcm11-esm310-rsr2-rcr44-esr29,exr/ReadingArea_rsl2-rcl25-esl29-rsm2-rcm11-esm310-rsr2-rcr44-esr29.exr,ReadingArea_rsl2-rcl25-esl29-rsm2-rcm11-esm310-rsr2-rcr44-esr29.npz,,,,,0,27,27,473,,right,red,1.97,734.6132519245148,734.9858138561249,,1,,4,4,brightness,readingArea,realistic,75,2023-03-22_14h09.59.024,tripletExp_regina_11082022,2022.2.4,120.30058625793056,
4,3,1,2,0.694444444444444,0.298245614035088,2,0.444444444444444,0.298245614035088,2,0.111111111111111,0.298245614035088,ReadingArea_rsl2-rcl69-esl29-rsm2-rcm44-esm29-rsr2-rcr11-esr29,exr/ReadingArea_rsl2-rcl69-esl29-rsm2-rcm44-esm29-rsr2-rcr11-esr29.exr,ReadingArea_rsl2-rcl69-esl29-rsm2-rcm44-esm29-rsr2-rcr11-esr29.npz,,,,,0,28,28,60,,left,green,3.71,740.2253890037537,,,1,,4,4,brightness,readingArea,realistic,75,2023-03-22_14h09.59.024,tripletExp_regina_11082022,2022.2.4,120.30058625793056,
13,14,7,2,0.111111111111111,3.10526315789474,2,0.25,3.10526315789474,2,0.111111111111111,1.0,ReadingArea_rsl2-rcl11-esl310-rsm2-rcm25-esm310-rsr2-rcr11-esr100,exr/ReadingArea_rsl2-rcl11-esl310-rsm2-rcm25-esm310-rsr2-rcr11-esr100.exr,ReadingArea_rsl2-rcl11-esl310-rsm2-rcm25-esm310-rsr2-rcr11-esr100.npz,,,,,0,29,29,324,,left,green,2.61,744.0592269897461,,,1,,4,4,brightness,readingArea,realistic,75,2023-03-22_14h09.59.024,tripletExp_regina_11082022,2022.2.4,120.30058625793056,
0,10,12,2,0.027777777777778,0.298245614035088,2,0.694444444444444,1.0,2,0.027777777777778,3.10526315789474,ReadingArea_rsl2-rcl2-esl29-rsm2-rcm69-esm100-rsr2-rcr2-esr310,exr/ReadingArea_rsl2-rcl2-esl29-rsm2-rcm69-esm100-rsr2-rcr2-esr310.exr,ReadingArea_rsl2-rcl2-esl29-rsm2-rcm69-esm100-rsr2-rcr2-esr310.npz,,,,,0,30,30,531,,right,red,1.97,747.9386608600616,748.3303070068359,,1,,4,4,brightness,readingArea,realistic,75,2023-03-22_14h09.59.024,tripletExp_regina_11082022,2022.2.4,120.30058625793056,
1,0,4,2,0.111111111111111,0.298245614035088,2,0.027777777777778,0.298245614035088,2,0.694444444444444,0.298245614035088,ReadingArea_rsl2-rcl11-esl29-rsm2-rcm2-esm29-rsr2-rcr69-esr29,exr/ReadingArea_rsl2-rcl11-esl29-rsm2-rcm2-esm29-rsr2-rcr69-esr29.exr,ReadingArea_rsl2-rcl11-esl29-rsm2-rcm2-esm29-rsr2-rcr69-esr29.npz,,,,,0,31,31,494,,left,green,2.38,751.7936189174652,752.1618959903717,,1,,4,4,brightness,readingArea,realistic,75,2023-03-22_14h09.59.024,tripletExp_regina_11082022,2022.2.4,120.30058625793056,
3,6,4,2,0.444444444444444,0.298245614035088,2,0.027777777777778,1.0,2,0.694444444444444,0.298245614035088,ReadingArea_rsl2-rcl44-esl29-rsm2-rcm2-esm100-rsr2-rcr69-esr29,exr/ReadingArea_rsl2-rcl44-esl29-rsm2-rcm2-esm100-rsr2-rcr69-esr29.exr,ReadingArea_rsl2-rcl44-esl29-rsm2-rcm2-esm100-rsr2-rcr69-esr29.npz,,,,,0,32,32,154,,left,green,2.44,755.6726689338684,756.1304349899292,,1,,4,4,brightness,readingArea,realistic,75,2023-03-22_14h09.59.024,tripletExp_regina_11082022,2022.2.4,120.30058625793056,
7,8,14,2,0.111111111111111,1.0,2,0.25,1.0,2,0.25,3.10526315789474,ReadingArea_rsl2-rcl11-esl100-rsm2-rcm25-esm100-rsr2-rcr25-esr310,exr/ReadingArea_rsl2-rcl11-esl100-rsm2-rcm25-esm100-rsr2-rcr25-esr310.exr,ReadingArea_rsl2-rcl11-esl100-rsm2-rcm25-esm100-rsr2-rcr25-esr310.npz,,,,,0,33,33,300,,left,green,3.75,761.3970170021057,761.7780108451843,,1,,4,4,brightness,readingArea,realistic,75,2023-03-22_14h09.59.024,tripletExp_regina_11082022,2022.2.4,120.30058625793056,
4,14,1,2,0.694444444444444,0.298245614035088,2,0.25,3.10526315789474,2,0.111111111111111,0.298245614035088,ReadingArea_rsl2-rcl69-esl29-rsm2-rcm25-esm310-rsr2-rcr11-esr29,exr/ReadingArea_rsl2-rcl69-esl29-rsm2-rcm25-esm310-rsr2-rcr11-esr29.exr,ReadingArea_rsl2-rcl69-esl29-rsm2-rcm25-esm310-rsr2-rcr11-esr29.npz,,,,,0,34,34,477,,left,green,2.03,765.2239398956299,765.5919899940491,,1,,4,4,brightness,readingArea,realistic,75,2023-03-22_14h09.59.024,tripletExp_regina_11082022,2022.2.4,120.30058625793056,
2,11,5,2,0.25,0.298245614035088,2,1.0,1.0,2,1.0,0.298245614035088,ReadingArea_rsl2-rcl25-esl29-rsm2-rcm100-esm100-rsr2-rcr100-esr29,exr/ReadingArea_rsl2-rcl25-esl29-rsm2-rcm100-esm100-rsr2-rcr100-esr29.exr,ReadingArea_rsl2-rcl25-esl29-rsm2-rcm100-esm100-rsr2-rcr100-esr29.npz,,,,,0,35,35,491,,right,red,2.01,769.0760178565979,769.4383659362793,,1,,4,4,brightness,readingArea,realistic,75,2023-03-22_14h09.59.024,tripletExp_regina_11082022,2022.2.4,120.30058625793056,
1,14,8,2,0.111111111111111,0.298245614035088,2,0.25,3.10526315789474,2,0.25,1.0,ReadingArea_rsl2-rcl11-esl29-rsm2-rcm25-esm310-rsr2-rcr25-esr100,exr/ReadingArea_rsl2-rcl11-esl29-rsm2-rcm25-esm310-rsr2-rcr25-esr100.exr,ReadingArea_rsl2-rcl11-esl29-rsm2-rcm25-esm310-rsr2-rcr25-esr100.npz,,,,,0,36,36,108,,right,red,2.08,772.9239869117737,773.2980167865753,,1,,4,4,brightness,readingArea,realistic,75,2023-03-22_14h09.59.024,tripletExp_regina_11082022,2022.2.4,120.30058625793056,
10,14,1,2,0.694444444444444,1.0,2,0.25,3.10526315789474,2,0.111111111111111,0.298245614035088,ReadingArea_rsl2-rcl69-esl100-rsm2-rcm25-esm310-rsr2-rcr11-esr29,exr/ReadingArea_rsl2-rcl69-esl100-rsm2-rcm25-esm310-rsr2-rcr11-esr29.exr,ReadingArea_rsl2-rcl69-esl100-rsm2-rcm25-esm310-rsr2-rcr11-esr29.npz,,,,,0,37,37,544,,left,green,2.02,776.7759518623352,777.147558927536,,1,,4,4,brightness,readingArea,realistic,75,2023-03-22_14h09.59.024,tripletExp_regina_11082022,2022.2.4,120.30058625793056,
3,13,6,2,0.444444444444444,0.298245614035088,2,0.111111111111111,3.10526315789474,2,0.027777777777778,1.0,ReadingArea_rsl2-rcl44-esl29-rsm2-rcm11-esm310-rsr2-rcr2-esr100,exr/ReadingArea_rsl2-rcl44-esl29-rsm2-rcm11-esm310-rsr2-rcr2-esr100.exr,ReadingArea_rsl2-rcl44-esl29-rsm2-rcm11-esm310-rsr2-rcr2-esr100.npz,,,,,0,38,38,199,,left,green,2.11,780.6356678009033,781.0056757926941,,1,,4,4,brightness,readingArea,realistic,75,2023-03-22_14h09.59.024,tripletExp_regina_11082022,2022.2.4,120.30058625793056,
10,6,3,2,0.694444444444444,1.0,2,0.027777777777778,1.0,2,0.444444444444444,0.298245614035088,ReadingArea_rsl2-rcl69-esl100-rsm2-rcm2-esm100-rsr2-rcr44-esr29,exr/ReadingArea_rsl2-rcl69-esl100-rsm2-rcm2-esm100-rsr2-rcr44-esr29.exr,ReadingArea_rsl2-rcl69-esl100-rsm2-rcm2-esm100-rsr2-rcr44-esr29.npz,,,,,0,39,39,0,,right,red,2.03,784.4850039482117,784.8753159046173,,1,,4,4,brightness,readingArea,realistic,75,2023-03-22_14h09.59.024,tripletExp_regina_11082022,2022.2.4,120.30058625793056,
9,13,6,2,0.444444444444444,1.0,2,0.111111111111111,3.10526315789474,2,0.027777777777778,1.0,ReadingArea_rsl2-rcl44-esl100-rsm2-rcm11-esm310-rsr2-rcr2-esr100,exr/ReadingArea_rsl2-rcl44-esl100-rsm2-rcm11-esm310-rsr2-rcr2-esr100.exr,ReadingArea_rsl2-rcl44-esl100-rsm2-rcm11-esm310-rsr2-rcr2-esr100.npz,,,,,0,40,40,13,,left,green,1.94,788.3599319458008,788.7852959632874,,1,,4,4,brightness,readingArea,realistic,75,2023-03-22_14h09.59.024,tripletExp_regina_11082022,2022.2.4,120.30058625793056,
14,13,0,2,0.25,3.10526315789474,2,0.111111111111111,3.10526315789474,2,0.027777777777778,0.298245614035088,ReadingArea_rsl2-rcl25-esl310-rsm2-rcm11-esm310-rsr2-rcr2-esr29,exr/ReadingArea_rsl2-rcl25-esl310-rsm2-rcm11-esm310-rsr2-rcr2-esr29.exr,ReadingArea_rsl2-rcl25-esl310-rsm2-rcm11-esm310-rsr2-rcr2-esr29.npz,,,,,0,41,41,417,,left,green,1.91,792.2671279907227,,,1,,4,4,brightness,readingArea,realistic,75,2023-03-22_14h09.59.024,tripletExp_regina_11082022,2022.2.4,120.30058625793056,
5,13,6,2,1.0,0.298245614035088,2,0.111111111111111,3.10526315789474,2,0.027777777777778,1.0,ReadingArea_rsl2-rcl100-esl29-rsm2-rcm11-esm310-rsr2-rcr2-esr100,exr/ReadingArea_rsl2-rcl100-esl29-rsm2-rcm11-esm310-rsr2-rcr2-esr100.exr,ReadingArea_rsl2-rcl100-esl29-rsm2-rcm11-esm310-rsr2-rcr2-esr100.npz,,,,,0,42,42,263,,left,green,2.02,796.1037068367004,796.4872899055481,,1,,4,4,brightness,readingArea,realistic,75,2023-03-22_14h09.59.024,tripletExp_regina_11082022,2022.2.4,120.30058625793056,
7,2,6,2,0.111111111111111,1.0,2,0.25,0.298245614035088,2,0.027777777777778,1.0,ReadingArea_rsl2-rcl11-esl100-rsm2-rcm25-esm29-rsr2-rcr2-esr100,exr/ReadingArea_rsl2-rcl11-esl100-rsm2-rcm25-esm29-rsr2-rcr2-esr100.exr,ReadingArea_rsl2-rcl11-esl100-rsm2-rcm25-esm29-rsr2-rcr2-esr100.npz,,,,,0,43,43,506,,left,green,1.93,799.9310138225555,800.2956488132477,,1,,4,4,brightness,readingArea,realistic,75,2023-03-22_14h09.59.024,tripletExp_regina_11082022,2022.2.4,120.30058625793056,
6,12,8,2,0.027777777777778,1.0,2,0.027777777777778,3.10526315789474,2,0.25,1.0,ReadingArea_rsl2-rcl2-esl100-rsm2-rcm2-esm310-rsr2-rcr25-esr100,exr/ReadingArea_rsl2-rcl2-esl100-rsm2-rcm2-esm310-rsr2-rcr25-esr100.exr,ReadingArea_rsl2-rcl2-esl100-rsm2-rcm2-esm310-rsr2-rcr25-esr100.npz,,,,,0,44,44,186,,left,green,3.83,805.5509159564972,805.9103698730469,,1,,4,4,brightness,readingArea,realistic,75,2023-03-22_14h09.59.024,tripletExp_regina_11082022,2022.2.4,120.30058625793056,
9,0,14,2,0.444444444444444,1.0,2,0.027777777777778,0.298245614035088,2,0.25,3.10526315789474,ReadingArea_rsl2-rcl44-esl100-rsm2-rcm2-esm29-rsr2-rcr25-esr310,exr/ReadingArea_rsl2-rcl44-esl100-rsm2-rcm2-esm29-rsr2-rcr25-esr310.exr,ReadingArea_rsl2-rcl44-esl100-rsm2-rcm2-esm29-rsr2-rcr25-esr310.npz,,,,,0,45,45,550,,left,green,1.97,809.3931519985199,809.7487828731537,,1,,4,4,brightness,readingArea,realistic,75,2023-03-22_14h09.59.024,tripletExp_regina_11082022,2022.2.4,120.30058625793056,
2,5,3,2,0.25,0.298245614035088,2,1.0,0.298245614035088,2,0.444444444444444,0.298245614035088,ReadingArea_rsl2-rcl25-esl29-rsm2-rcm100-esm29-rsr2-rcr44-esr29,exr/ReadingArea_rsl2-rcl25-esl29-rsm2-rcm100-esm29-rsr2-rcr44-esr29.exr,ReadingArea_rsl2-rcl25-esl29-rsm2-rcm100-esm29-rsr2-rcr44-esr29.npz,,,,,0,46,46,135,,right,red,2.35,813.2048637866974,813.5710589885712,,1,,4,4,brightness,readingArea,realistic,75,2023-03-22_14h09.59.024,tripletExp_regina_11082022,2022.2.4,120.30058625793056,
14,2,7,2,0.25,3.10526315789474,2,0.25,0.298245614035088,2,0.111111111111111,1.0,ReadingArea_rsl2-rcl25-esl310-rsm2-rcm25-esm29-rsr2-rcr11-esr100,exr/ReadingArea_rsl2-rcl25-esl310-rsm2-rcm25-esm29-rsr2-rcr11-esr100.exr,ReadingArea_rsl2-rcl25-esl310-rsm2-rcm25-esm29-rsr2-rcr11-esr100.npz,,,,,0,47,47,569,,right,red,2.06,817.0511689186096,817.4098889827728,,1,,4,4,brightness,readingArea,realistic,75,2023-03-22_14h09.59.024,tripletExp_regina_11082022,2022.2.4,120.30058625793056,
4,1,3,2,0.694444444444444,0.298245614035088,2,0.111111111111111,0.298245614035088,2,0.444444444444444,0.298245614035088,ReadingArea_rsl2-rcl69-esl29-rsm2-rcm11-esm29-rsr2-rcr44-esr29,exr/ReadingArea_rsl2-rcl69-esl29-rsm2-rcm11-esm29-rsr2-rcr44-esr29.exr,ReadingArea_rsl2-rcl69-esl29-rsm2-rcm11-esm29-rsr2-rcr44-esr29.npz,,,,,0,48,48,70,,right,red,1.93,820.8800230026245,,,1,,4,4,brightness,readingArea,realistic,75,2023-03-22_14h09.59.024,tripletExp_regina_11082022,2022.2.4,120.30058625793056,
11,9,4,2,1.0,1.0,2,0.444444444444444,1.0,2,0.694444444444444,0.298245614035088,ReadingArea_rsl2-rcl100-esl100-rsm2-rcm44-esm100-rsr2-rcr69-esr29,exr/ReadingArea_rsl2-rcl100-esl100-rsm2-rcm44-esm100-rsr2-rcr69-esr29.exr,ReadingArea_rsl2-rcl100-esl100-rsm2-rcm44-esm100-rsr2-rcr69-esr29.npz,,,,,0,49,49,26,,right,red,2.13,824.7348577976227,825.1061859130859,,1,,4,4,brightness,readingArea,realistic,75,2023-03-22_14h09.59.024,tripletExp_regina_11082022,2022.2.4,120.30058625793056,
7,4,2,2,0.111111111111111,1.0,2,0.694444444444444,0.298245614035088,2,0.25,0.298245614035088,ReadingArea_rsl2-rcl11-esl100-rsm2-rcm69-esm29-rsr2-rcr25-esr29,exr/ReadingArea_rsl2-rcl11-esl100-rsm2-rcm69-esm29-rsr2-rcr25-esr29.exr,ReadingArea_rsl2-rcl11-esl100-rsm2-rcm69-esm29-rsr2-rcr25-esr29.npz,,,,,0,50,50,146,,left,green,2.58,828.5571188926697,828.9349319934845,,1,,4,4,brightness,readingArea,realistic,75,2023-03-22_14h09.59.024,tripletExp_regina_11082022,2022.2.4,120.30058625793056,
4,7,5,2,0.694444444444444,0.298245614035088,2,0.111111111111111,1.0,2,1.0,0.298245614035088,ReadingArea_rsl2-rcl69-esl29-rsm2-rcm11-esm100-rsr2-rcr100-esr29,exr/ReadingArea_rsl2-rcl69-esl29-rsm2-rcm11-esm100-rsr2-rcr100-esr29.exr,ReadingArea_rsl2-rcl69-esl29-rsm2-rcm11-esm100-rsr2-rcr100-esr29.npz,,,,,0,51,51,195,,left,green,2.49,832.430655002594,832.7778120040894,,1,,4,4,brightness,readingArea,realistic,75,2023-03-22_14h09.59.024,tripletExp_regina_11082022,2022.2.4,120.30058625793056,
8,10,9,2,0.25,1.0,2,0.694444444444444,1.0,2,0.444444444444444,1.0,ReadingArea_rsl2-rcl25-esl100-rsm2-rcm69-esm100-rsr2-rcr44-esr100,exr/ReadingArea_rsl2-rcl25-esl100-rsm2-rcm69-esm100-rsr2-rcr44-esr100.exr,ReadingArea_rsl2-rcl25-esl100-rsm2-rcm69-esm100-rsr2-rcr44-esr100.npz,,,,,0,52,52,342,,left,green,2.05,836.2248718738556,836.5805909633636,,1,,4,4,brightness,readingArea,realistic,75,2023-03-22_14h09.59.024,tripletExp_regina_11082022,2022.2.4,120.30058625793056,
8,1,9,2,0.25,1.0,2,0.111111111111111,0.298245614035088,2,0.444444444444444,1.0,ReadingArea_rsl2-rcl25-esl100-rsm2-rcm11-esm29-rsr2-rcr44-esr100,exr/ReadingArea_rsl2-rcl25-esl100-rsm2-rcm11-esm29-rsr2-rcr44-esr100.exr,ReadingArea_rsl2-rcl25-esl100-rsm2-rcm11-esm29-rsr2-rcr44-esr100.npz,,,,,0,53,53,432,,left,green,1.93,840.0538640022278,840.5157330036163,,1,,4,4,brightness,readingArea,realistic,75,2023-03-22_14h09.59.024,tripletExp_regina_11082022,2022.2.4,120.30058625793056,
13,6,8,2,0.111111111111111,3.10526315789474,2,0.027777777777778,1.0,2,0.25,1.0,ReadingArea_rsl2-rcl11-esl310-rsm2-rcm2-esm100-rsr2-rcr25-esr100,exr/ReadingArea_rsl2-rcl11-esl310-rsm2-rcm2-esm100-rsr2-rcr25-esr100.exr,ReadingArea_rsl2-rcl11-esl310-rsm2-rcm2-esm100-rsr2-rcr25-esr100.npz,,,,,0,54,54,340,,left,green,2.13,843.9661509990692,844.32080078125,,1,,4,4,brightness,readingArea,realistic,75,2023-03-22_14h09.59.024,tripletExp_regina_11082022,2022.2.4,120.30058625793056,
10,1,6,2,0.694444444444444,1.0,2,0.111111111111111,0.298245614035088,2,0.027777777777778,1.0,ReadingArea_rsl2-rcl69-esl100-rsm2-rcm11-esm29-rsr2-rcr2-esr100,exr/ReadingArea_rsl2-rcl69-esl100-rsm2-rcm11-esm29-rsr2-rcr2-esr100.exr,ReadingArea_rsl2-rcl69-esl100-rsm2-rcm11-esm29-rsr2-rcr2-esr100.npz,,,,,0,55,55,160,,right,red,1.35,846.0230669975281,846.4086718559265,,1,,4,4,brightness,readingArea,realistic,75,2023-03-22_14h09.59.024,tripletExp_regina_11082022,2022.2.4,120.30058625793056,
2,9,10,2,0.25,0.298245614035088,2,0.444444444444444,1.0,2,0.694444444444444,1.0,ReadingArea_rsl2-rcl25-esl29-rsm2-rcm44-esm100-rsr2-rcr69-esr100,exr/ReadingArea_rsl2-rcl25-esl29-rsm2-rcm44-esm100-rsr2-rcr69-esr100.exr,ReadingArea_rsl2-rcl25-esl29-rsm2-rcm44-esm100-rsr2-rcr69-esr100.npz,,,,,0,56,56,117,,right,red,2.02,849.8793339729309,850.2311627864838,,1,,4,4,brightness,readingArea,realistic,75,2023-03-22_14h09.59.024,tripletExp_regina_11082022,2022.2.4,120.30058625793056,
8,1,6,2,0.25,1.0,2,0.111111111111111,0.298245614035088,2,0.027777777777778,1.0,ReadingArea_rsl2-rcl25-esl100-rsm2-rcm11-esm29-rsr2-rcr2-esr100,exr/ReadingArea_rsl2-rcl25-esl100-rsm2-rcm11-esm29-rsr2-rcr2-esr100.exr,ReadingArea_rsl2-rcl25-esl100-rsm2-rcm11-esm29-rsr2-rcr2-esr100.npz,,,,,0,57,57,62,,right,red,0.93,851.9309167861938,852.3158528804779,,1,,4,4,brightness,readingArea,realistic,75,2023-03-22_14h09.59.024,tripletExp_regina_11082022,2022.2.4,120.30058625793056,
5,10,2,2,1.0,0.298245614035088,2,0.694444444444444,1.0,2,0.25,0.298245614035088,ReadingArea_rsl2-rcl100-esl29-rsm2-rcm69-esm100-rsr2-rcr25-esr29,exr/ReadingArea_rsl2-rcl100-esl29-rsm2-rcm69-esm100-rsr2-rcr25-esr29.exr,ReadingArea_rsl2-rcl100-esl29-rsm2-rcm69-esm100-rsr2-rcr25-esr29.npz,,,,,0,58,58,489,,left,green,1.87,855.7869319915771,856.2027678489685,,1,,4,4,brightness,readingArea,realistic,75,2023-03-22_14h09.59.024,tripletExp_regina_11082022,2022.2.4,120.30058625793056,
7,14,10,2,0.111111111111111,1.0,2,0.25,3.10526315789474,2,0.694444444444444,1.0,ReadingArea_rsl2-rcl11-esl100-rsm2-rcm25-esm310-rsr2-rcr69-esr100,exr/ReadingArea_rsl2-rcl11-esl100-rsm2-rcm25-esm310-rsr2-rcr69-esr100.exr,ReadingArea_rsl2-rcl11-esl100-rsm2-rcm25-esm310-rsr2-rcr69-esr100.npz,,,,,0,59,59,472,,right,red,1.0,857.9077248573303,858.2702307701111,,1,,4,4,brightness,readingArea,realistic,75,2023-03-22_14h09.59.024,tripletExp_regina_11082022,2022.2.4,120.30058625793056,
10,1,13,2,0.694444444444444,1.0,2,0.111111111111111,0.298245614035088,2,0.111111111111111,3.10526315789474,ReadingArea_rsl2-rcl69-esl100-rsm2-rcm11-esm29-rsr2-rcr11-esr310,exr/ReadingArea_rsl2-rcl69-esl100-rsm2-rcm11-esm29-rsr2-rcr11-esr310.exr,ReadingArea_rsl2-rcl69-esl100-rsm2-rcm11-esm29-rsr2-rcr11-esr310.npz,,,,,0,60,60,45,,right,red,2.09,861.7716147899628,862.1394789218903,,1,,4,4,brightness,readingArea,realistic,75,2023-03-22_14h09.59.024,tripletExp_regina_11082022,2022.2.4,120.30058625793056,
11,5,2,2,1.0,1.0,2,1.0,0.298245614035088,2,0.25,0.298245614035088,ReadingArea_rsl2-rcl100-esl100-rsm2-rcm100-esm29-rsr2-rcr25-esr29,exr/ReadingArea_rsl2-rcl100-esl100-rsm2-rcm100-esm29-rsr2-rcr25-esr29.exr,ReadingArea_rsl2-rcl100-esl100-rsm2-rcm100-esm29-rsr2-rcr25-esr29.npz,,,,,0,61,61,596,,right,red,2.18,865.6354739665985,866.0120098590851,,1,,4,4,brightness,readingArea,realistic,75,2023-03-22_14h09.59.024,tripletExp_regina_11082022,2022.2.4,120.30058625793056,
12,9,2,2,0.027777777777778,3.10526315789474,2,0.444444444444444,1.0,2,0.25,0.298245614035088,ReadingArea_rsl2-rcl2-esl310-rsm2-rcm44-esm100-rsr2-rcr25-esr29,exr/ReadingArea_rsl2-rcl2-esl310-rsm2-rcm44-esm100-rsr2-rcr25-esr29.exr,ReadingArea_rsl2-rcl2-esl310-rsm2-rcm44-esm100-rsr2-rcr25-esr29.npz,,,,,0,62,62,226,,,red,2.18,871.2198848724365,871.6591708660126,,1,870.9466056585312,4,4,brightness,readingArea,realistic,75,2023-03-22_14h09.59.024,tripletExp_regina_11082022,2022.2.4,120.30058625793056,
11,7,8,2,1.0,1.0,2,0.111111111111111,1.0,2,0.25,1.0,ReadingArea_rsl2-rcl100-esl100-rsm2-rcm11-esm100-rsr2-rcr25-esr100,exr/ReadingArea_rsl2-rcl100-esl100-rsm2-rcm11-esm100-rsr2-rcr25-esr100.exr,ReadingArea_rsl2-rcl100-esl100-rsm2-rcm11-esm100-rsr2-rcr25-esr100.npz,,,,,0,63,63,37,,right,red,2.04,875.1257548332214,875.4884948730469,,1,,4,4,brightness,readingArea,realistic,75,2023-03-22_14h09.59.024,tripletExp_regina_11082022,2022.2.4,120.30058625793056,
3,2,11,2,0.444444444444444,0.298245614035088,2,0.25,0.298245614035088,2,1.0,1.0,ReadingArea_rsl2-rcl44-esl29-rsm2-rcm25-esm29-rsr2-rcr100-esr100,exr/ReadingArea_rsl2-rcl44-esl29-rsm2-rcm25-esm29-rsr2-rcr100-esr100.exr,ReadingArea_rsl2-rcl44-esl29-rsm2-rcm25-esm29-rsr2-rcr100-esr100.npz,,,,,0,64,64,257,,left,green,0.87,877.1970458030701,,,1,,4,4,brightness,readingArea,realistic,75,2023-03-22_14h09.59.024,tripletExp_regina_11082022,2022.2.4,120.30058625793056,
3,9,10,2,0.444444444444444,0.298245614035088,2,0.444444444444444,1.0,2,0.694444444444444,1.0,ReadingArea_rsl2-rcl44-esl29-rsm2-rcm44-esm100-rsr2-rcr69-esr100,exr/ReadingArea_rsl2-rcl44-esl29-rsm2-rcm44-esm100-rsr2-rcr69-esr100.exr,ReadingArea_rsl2-rcl44-esl29-rsm2-rcm44-esm100-rsr2-rcr69-esr100.npz,,,,,0,65,65,581,,right,red,1.94,881.0627830028534,881.4368138313293,,1,,4,4,brightness,readingArea,realistic,75,2023-03-22_14h09.59.024,tripletExp_regina_11082022,2022.2.4,120.30058625793056,
2,5,14,2,0.25,0.298245614035088,2,1.0,0.298245614035088,2,0.25,3.10526315789474,ReadingArea_rsl2-rcl25-esl29-rsm2-rcm100-esm29-rsr2-rcr25-esr310,exr/ReadingArea_rsl2-rcl25-esl29-rsm2-rcm100-esm29-rsr2-rcr25-esr310.exr,ReadingArea_rsl2-rcl25-esl29-rsm2-rcm100-esm29-rsr2-rcr25-esr310.npz,,,,,0,66,66,390,,left,green,4.46,886.6799278259277,887.0699679851532,,1,,4,4,brightness,readingArea,realistic,75,2023-03-22_14h09.59.024,tripletExp_regina_11082022,2022.2.4,120.30058625793056,
10,0,3,2,0.694444444444444,1.0,2,0.027777777777778,0.298245614035088,2,0.444444444444444,0.298245614035088,ReadingArea_rsl2-rcl69-esl100-rsm2-rcm2-esm29-rsr2-rcr44-esr29,exr/ReadingArea_rsl2-rcl69-esl100-rsm2-rcm2-esm29-rsr2-rcr44-esr29.exr,ReadingArea_rsl2-rcl69-esl100-rsm2-rcm2-esm29-rsr2-rcr44-esr29.npz,,,,,0,67,67,87,,right,red,3.88,892.3257989883423,892.6964719295502,,1,,4,4,brightness,readingArea,realistic,75,2023-03-22_14h09.59.024,tripletExp_regina_11082022,2022.2.4,120.30058625793056,
6,0,14,2,0.027777777777778,1.0,2,0.027777777777778,0.298245614035088,2,0.25,3.10526315789474,ReadingArea_rsl2-rcl2-esl100-rsm2-rcm2-esm29-rsr2-rcr25-esr310,exr/ReadingArea_rsl2-rcl2-esl100-rsm2-rcm2-esm29-rsr2-rcr25-esr310.exr,ReadingArea_rsl2-rcl2-esl100-rsm2-rcm2-esm29-rsr2-rcr25-esr310.npz,,,,,0,68,68,169,,left,green,1.03,894.4202208518982,894.8870348930359,,1,,4,4,brightness,readingArea,realistic,75,2023-03-22_14h09.59.024,tripletExp_regina_11082022,2022.2.4,120.30058625793056,
0,5,1,2,0.027777777777778,0.298245614035088,2,1.0,0.298245614035088,2,0.111111111111111,0.298245614035088,ReadingArea_rsl2-rcl2-esl29-rsm2-rcm100-esm29-rsr2-rcr11-esr29,exr/ReadingArea_rsl2-rcl2-esl29-rsm2-rcm100-esm29-rsr2-rcr11-esr29.exr,ReadingArea_rsl2-rcl2-esl29-rsm2-rcm100-esm29-rsr2-rcr11-esr29.npz,,,,,0,69,69,367,,right,red,1.95,898.3747007846832,898.748260974884,,1,,4,4,brightness,readingArea,realistic,75,2023-03-22_14h09.59.024,tripletExp_regina_11082022,2022.2.4,120.30058625793056,
14,3,4,2,0.25,3.10526315789474,2,0.444444444444444,0.298245614035088,2,0.694444444444444,0.298245614035088,ReadingArea_rsl2-rcl25-esl310-rsm2-rcm44-esm29-rsr2-rcr69-esr29,exr/ReadingArea_rsl2-rcl25-esl310-rsm2-rcm44-esm29-rsr2-rcr69-esr29.exr,ReadingArea_rsl2-rcl25-esl310-rsm2-rcm44-esm29-rsr2-rcr69-esr29.npz,,,,,0,70,70,127,,right,red,1.21,900.4357998371124,900.8318328857422,,1,,4,4,brightness,readingArea,realistic,75,2023-03-22_14h09.59.024,tripletExp_regina_11082022,2022.2.4,120.30058625793056,
11,1,12,2,1.0,1.0,2,0.111111111111111,0.298245614035088,2,0.027777777777778,3.10526315789474,ReadingArea_rsl2-rcl100-esl100-rsm2-rcm11-esm29-rsr2-rcr2-esr310,exr/ReadingArea_rsl2-rcl100-esl100-rsm2-rcm11-esm29-rsr2-rcr2-esr310.exr,ReadingArea_rsl2-rcl100-esl100-rsm2-rcm11-esm29-rsr2-rcr2-esr310.npz,,,,,0,71,71,339,,right,red,0.86,902.5534918308258,902.9362378120422,,1,,4,4,brightness,readingArea,realistic,75,2023-03-22_14h09.59.024,tripletExp_regina_11082022,2022.2.4,120.30058625793056,
2,4,13,2,0.25,0.298245614035088,2,0.694444444444444,0.298245614035088,2,0.111111111111111,3.10526315789474,ReadingArea_rsl2-rcl25-esl29-rsm2-rcm69-esm29-rsr2-rcr11-esr310,exr/ReadingArea_rsl2-rcl25-esl29-rsm2-rcm69-esm29-rsr2-rcr11-esr310.exr,ReadingArea_rsl2-rcl25-esl29-rsm2-rcm69-esm29-rsr2-rcr11-esr310.npz,,,,,0,72,72,325,,right,red,1.88,906.4048588275908,906.7789838314056,,1,,4,4,brightness,readingArea,realistic,75,2023-03-22_14h09.59.024,tripletExp_regina_11082022,2022.2.4,120.30058625793056,
2,9,12,2,0.25,0.298245614035088,2,0.444444444444444,1.0,2,0.027777777777778,3.10526315789474,ReadingArea_rsl2-rcl25-esl29-rsm2-rcm44-esm100-rsr2-rcr2-esr310,exr/ReadingArea_rsl2-rcl25-esl29-rsm2-rcm44-esm100-rsr2-rcr2-esr310.exr,ReadingArea_rsl2-rcl25-esl29-rsm2-rcm44-esm100-rsr2-rcr2-esr310.npz,,,,,0,73,73,354,,right,red,2.47,910.2465648651124,910.638326883316,,1,,4,4,brightness,readingArea,realistic,75,2023-03-22_14h09.59.024,tripletExp_regina_11082022,2022.2.4,120.30058625793056,
9,0,11,2,0.444444444444444,1.0,2,0.027777777777778,0.298245614035088,2,1.0,1.0,ReadingArea_rsl2-rcl44-esl100-rsm2-rcm2-esm29-rsr2-rcr100-esr100,exr/ReadingArea_rsl2-rcl44-esl100-rsm2-rcm2-esm29-rsr2-rcr100-esr100.exr,ReadingArea_rsl2-rcl44-esl100-rsm2-rcm2-esm29-rsr2-rcr100-esr100.npz,,,,,0,74,74,319,,left,green,1.32,912.3429877758026,912.5430188179016,,1,,4,4,brightness,readingArea,realistic,75,2023-03-22_14h09.59.024,tripletExp_regina_11082022,2022.2.4,120.30058625793056,
14,8,1,2,0.25,3.10526315789474,2,0.25,1.0,2,0.111111111111111,0.298245614035088,ReadingArea_rsl2-rcl25-esl310-rsm2-rcm25-esm100-rsr2-rcr11-esr29,exr/ReadingArea_rsl2-rcl25-esl310-rsm2-rcm25-esm100-rsr2-rcr11-esr29.exr,ReadingArea_rsl2-rcl25-esl310-rsm2-rcm25-esm100-rsr2-rcr11-esr29.npz,,,,,0,75,75,141,,right,red,3.15,949.3041830062866,949.6967568397522,,2,,4,4,brightness,readingArea,realistic,75,2023-03-22_14h09.59.024,tripletExp_regina_11082022,2022.2.4,120.30058625793056,
14,3,2,2,0.25,3.10526315789474,2,0.444444444444444,0.298245614035088,2,0.25,0.298245614035088,ReadingArea_rsl2-rcl25-esl310-rsm2-rcm44-esm29-rsr2-rcr25-esr29,exr/ReadingArea_rsl2-rcl25-esl310-rsm2-rcm44-esm29-rsr2-rcr25-esr29.exr,ReadingArea_rsl2-rcl25-esl310-rsm2-rcm44-esm29-rsr2-rcr25-esr29.npz,,,,,0,76,76,52,,right,red,2.07,953.1850979328156,953.5411338806152,,2,,4,4,brightness,readingArea,realistic,75,2023-03-22_14h09.59.024,tripletExp_regina_11082022,2022.2.4,120.30058625793056,
12,5,2,2,0.027777777777778,3.10526315789474,2,1.0,0.298245614035088,2,0.25,0.298245614035088,ReadingArea_rsl2-rcl2-esl310-rsm2-rcm100-esm29-rsr2-rcr25-esr29,exr/ReadingArea_rsl2-rcl2-esl310-rsm2-rcm100-esm29-rsr2-rcr25-esr29.exr,ReadingArea_rsl2-rcl2-esl310-rsm2-rcm100-esm29-rsr2-rcr25-esr29.npz,,,,,0,77,77,415,,left,green,2.35,957.0173048973083,957.3673479557036,,2,,4,4,brightness,readingArea,realistic,75,2023-03-22_14h09.59.024,tripletExp_regina_11082022,2022.2.4,120.30058625793056,
8,3,12,2,0.25,1.0,2,0.444444444444444,0.298245614035088,2,0.027777777777778,3.10526315789474,ReadingArea_rsl2-rcl25-esl100-rsm2-rcm44-esm29-rsr2-rcr2-esr310,exr/ReadingArea_rsl2-rcl25-esl100-rsm2-rcm44-esm29-rsr2-rcr2-esr310.exr,ReadingArea_rsl2-rcl25-esl100-rsm2-rcm44-esm29-rsr2-rcr2-esr310.npz,,,,,0,78,78,22,,right,red,2.01,960.843258857727,,,2,,4,4,brightness,readingArea,realistic,75,2023-03-22_14h09.59.024,tripletExp_regina_11082022,2022.2.4,120.30058625793056,
13,6,12,2,0.111111111111111,3.10526315789474,2,0.027777777777778,1.0,2,0.027777777777778,3.10526315789474,ReadingArea_rsl2-rcl11-esl310-rsm2-rcm2-esm100-rsr2-rcr2-esr310,exr/ReadingArea_rsl2-rcl11-esl310-rsm2-rcm2-esm100-rsr2-rcr2-esr310.exr,ReadingArea_rsl2-rcl11-esl310-rsm2-rcm2-esm100-rsr2-rcr2-esr310.npz,,,,,0,79,79,147,,right,red,2.35,964.6882147789,965.0699498653412,,2,,4,4,brightness,readingArea,realistic,75,2023-03-22_14h09.59.024,tripletExp_regina_11082022,2022.2.4,120.30058625793056,
7,12,0,2,0.111111111111111,1.0,2,0.027777777777778,3.10526315789474,2,0.027777777777778,0.298245614035088,ReadingArea_rsl2-rcl11-esl100-rsm2-rcm2-esm310-rsr2-rcr2-esr29,exr/ReadingArea_rsl2-rcl11-esl100-rsm2-rcm2-esm310-rsr2-rcr2-esr29.exr,ReadingArea_rsl2-rcl11-esl100-rsm2-rcm2-esm310-rsr2-rcr2-esr29.npz,,,,,0,80,80,425,,left,green,1.2,966.7630620002748,967.1159689426422,,2,,4,4,brightness,readingArea,realistic,75,2023-03-22_14h09.59.024,tripletExp_regina_11082022,2022.2.4,120.30058625793056,
6,10,9,2,0.027777777777778,1.0,2,0.694444444444444,1.0,2,0.444444444444444,1.0,ReadingArea_rsl2-rcl2-esl100-rsm2-rcm69-esm100-rsr2-rcr44-esr100,exr/ReadingArea_rsl2-rcl2-esl100-rsm2-rcm69-esm100-rsr2-rcr44-esr100.exr,ReadingArea_rsl2-rcl2-esl100-rsm2-rcm69-esm100-rsr2-rcr44-esr100.npz,,,,,0,81,81,148,,right,red,2.01,970.602401971817,970.964879989624,,2,,4,4,brightness,readingArea,realistic,75,2023-03-22_14h09.59.024,tripletExp_regina_11082022,2022.2.4,120.30058625793056,
9,12,11,2,0.444444444444444,1.0,2,0.027777777777778,3.10526315789474,2,1.0,1.0,ReadingArea_rsl2-rcl44-esl100-rsm2-rcm2-esm310-rsr2-rcr100-esr100,exr/ReadingArea_rsl2-rcl44-esl100-rsm2-rcm2-esm310-rsr2-rcr100-esr100.exr,ReadingArea_rsl2-rcl44-esl100-rsm2-rcm2-esm310-rsr2-rcr100-esr100.npz,,,,,0,82,82,144,,left,green,2.02,974.439208984375,974.8387539386748,,2,,4,4,brightness,readingArea,realistic,75,2023-03-22_14h09.59.024,tripletExp_regina_11082022,2022.2.4,120.30058625793056,
7,8,6,2,0.111111111111111,1.0,2,0.25,1.0,2,0.027777777777778,1.0,ReadingArea_rsl2-rcl11-esl100-rsm2-rcm25-esm100-rsr2-rcr2-esr100,exr/ReadingArea_rsl2-rcl11-esl100-rsm2-rcm25-esm100-rsr2-rcr2-esr100.exr,ReadingArea_rsl2-rcl11-esl100-rsm2-rcm25-esm100-rsr2-rcr2-esr100.npz,,,,,0,83,83,387,,left,green,1.99,978.2919769287108,978.6550250053406,,2,,4,4,brightness,readingArea,realistic,75,2023-03-22_14h09.59.024,tripletExp_regina_11082022,2022.2.4,120.30058625793056,
11,8,7,2,1.0,1.0,2,0.25,1.0,2,0.111111111111111,1.0,ReadingArea_rsl2-rcl100-esl100-rsm2-rcm25-esm100-rsr2-rcr11-esr100,exr/ReadingArea_rsl2-rcl100-esl100-rsm2-rcm25-esm100-rsr2-rcr11-esr100.exr,ReadingArea_rsl2-rcl100-esl100-rsm2-rcm25-esm100-rsr2-rcr11-esr100.npz,,,,,0,84,84,105,,right,red,1.95,982.1070079803468,982.489872932434,,2,,4,4,brightness,readingArea,realistic,75,2023-03-22_14h09.59.024,tripletExp_regina_11082022,2022.2.4,120.30058625793056,
0,2,1,2,0.027777777777778,0.298245614035088,2,0.25,0.298245614035088,2,0.111111111111111,0.298245614035088,ReadingArea_rsl2-rcl2-esl29-rsm2-rcm25-esm29-rsr2-rcr11-esr29,exr/ReadingArea_rsl2-rcl2-esl29-rsm2-rcm25-esm29-rsr2-rcr11-esr29.exr,ReadingArea_rsl2-rcl2-esl29-rsm2-rcm25-esm29-rsr2-rcr11-esr29.npz,,,,,0,85,85,527,,right,red,1.94,985.9824409484864,986.348202943802,,2,,4,4,brightness,readingArea,realistic,75,2023-03-22_14h09.59.024,tripletExp_regina_11082022,2022.2.4,120.30058625793056,
10,3,0,2,0.694444444444444,1.0,2,0.444444444444444,0.298245614035088,2,0.027777777777778,0.298245614035088,ReadingArea_rsl2-rcl69-esl100-rsm2-rcm44-esm29-rsr2-rcr2-esr29,exr/ReadingArea_rsl2-rcl69-esl100-rsm2-rcm44-esm29-rsr2-rcr2-esr29.exr,ReadingArea_rsl2-rcl69-esl100-rsm2-rcm44-esm29-rsr2-rcr2-esr29.npz,,,,,0,86,86,203,,left,green,2.02,989.8145787715912,,,2,,4,4,brightness,readingArea,realistic,75,2023-03-22_14h09.59.024,tripletExp_regina_11082022,2022.2.4,120.30058625793056,
13,10,3,2,0.111111111111111,3.10526315789474,2,0.694444444444444,1.0,2,0.444444444444444,0.298245614035088,ReadingArea_rsl2-rcl11-esl310-rsm2-rcm69-esm100-rsr2-rcr44-esr29,exr/ReadingArea_rsl2-rcl11-esl310-rsm2-rcm69-esm100-rsr2-rcr44-esr29.exr,ReadingArea_rsl2-rcl11-esl310-rsm2-rcm69-esm100-rsr2-rcr44-esr29.npz,,,,,0,87,87,224,,left,green,2.76,993.6616997718812,994.0253219604492,,2,,4,4,brightness,readingArea,realistic,75,2023-03-22_14h09.59.024,tripletExp_regina_11082022,2022.2.4,120.30058625793056,
3,14,4,2,0.444444444444444,0.298245614035088,2,0.25,3.10526315789474,2,0.694444444444444,0.298245614035088,ReadingArea_rsl2-rcl44-esl29-rsm2-rcm25-esm310-rsr2-rcr69-esr29,exr/ReadingArea_rsl2-rcl44-esl29-rsm2-rcm25-esm310-rsr2-rcr69-esr29.exr,ReadingArea_rsl2-rcl44-esl29-rsm2-rcm25-esm310-rsr2-rcr69-esr29.npz,,,,,0,88,88,537,,right,red,2.68,997.5042178630828,997.8829908370972,,2,,4,4,brightness,readingArea,realistic,75,2023-03-22_14h09.59.024,tripletExp_regina_11082022,2022.2.4,120.30058625793056,
1,11,14,2,0.111111111111111,0.298245614035088,2,1.0,1.0,2,0.25,3.10526315789474,ReadingArea_rsl2-rcl11-esl29-rsm2-rcm100-esm100-rsr2-rcr25-esr310,exr/ReadingArea_rsl2-rcl11-esl29-rsm2-rcm100-esm100-rsr2-rcr25-esr310.exr,ReadingArea_rsl2-rcl11-esl29-rsm2-rcm100-esm100-rsr2-rcr25-esr310.npz,,,,,0,89,89,399,,right,red,1.18,999.5743069648744,,,2,,4,4,brightness,readingArea,realistic,75,2023-03-22_14h09.59.024,tripletExp_regina_11082022,2022.2.4,120.30058625793056,
6,11,14,2,0.027777777777778,1.0,2,1.0,1.0,2,0.25,3.10526315789474,ReadingArea_rsl2-rcl2-esl100-rsm2-rcm100-esm100-rsr2-rcr25-esr310,exr/ReadingArea_rsl2-rcl2-esl100-rsm2-rcm100-esm100-rsr2-rcr25-esr310.exr,ReadingArea_rsl2-rcl2-esl100-rsm2-rcm100-esm100-rsr2-rcr25-esr310.npz,,,,,0,90,90,262,,right,red,1.23,1001.6486887931824,1002.0225129127502,,2,,4,4,brightness,readingArea,realistic,75,2023-03-22_14h09.59.024,tripletExp_regina_11082022,2022.2.4,120.30058625793056,
10,4,8,2,0.694444444444444,1.0,2,0.694444444444444,0.298245614035088,2,0.25,1.0,ReadingArea_rsl2-rcl69-esl100-rsm2-rcm69-esm29-rsr2-rcr25-esr100,exr/ReadingArea_rsl2-rcl69-esl100-rsm2-rcm69-esm29-rsr2-rcr25-esr100.exr,ReadingArea_rsl2-rcl69-esl100-rsm2-rcm69-esm29-rsr2-rcr25-esr100.npz,,,,,0,91,91,562,,right,red,2.42,1005.485311985016,1005.8572289943696,,2,,4,4,brightness,readingArea,realistic,75,2023-03-22_14h09.59.024,tripletExp_regina_11082022,2022.2.4,120.30058625793056,
11,8,2,2,1.0,1.0,2,0.25,1.0,2,0.25,0.298245614035088,ReadingArea_rsl2-rcl100-esl100-rsm2-rcm25-esm100-rsr2-rcr25-esr29,exr/ReadingArea_rsl2-rcl100-esl100-rsm2-rcm25-esm100-rsr2-rcr25-esr29.exr,ReadingArea_rsl2-rcl100-esl100-rsm2-rcm25-esm100-rsr2-rcr25-esr29.npz,,,,,0,92,92,406,,right,red,3.15,1009.352187871933,1009.7341928482056,,2,,4,4,brightness,readingArea,realistic,75,2023-03-22_14h09.59.024,tripletExp_regina_11082022,2022.2.4,120.30058625793056,
3,12,6,2,0.444444444444444,0.298245614035088,2,0.027777777777778,3.10526315789474,2,0.027777777777778,1.0,ReadingArea_rsl2-rcl44-esl29-rsm2-rcm2-esm310-rsr2-rcr2-esr100,exr/ReadingArea_rsl2-rcl44-esl29-rsm2-rcm2-esm310-rsr2-rcr2-esr100.exr,ReadingArea_rsl2-rcl44-esl29-rsm2-rcm2-esm310-rsr2-rcr2-esr100.npz,,,,,0,93,93,353,,left,green,1.57,1011.435887813568,1011.8027348518372,,2,,4,4,brightness,readingArea,realistic,75,2023-03-22_14h09.59.024,tripletExp_regina_11082022,2022.2.4,120.30058625793056,
3,14,10,2,0.444444444444444,0.298245614035088,2,0.25,3.10526315789474,2,0.694444444444444,1.0,ReadingArea_rsl2-rcl44-esl29-rsm2-rcm25-esm310-rsr2-rcr69-esr100,exr/ReadingArea_rsl2-rcl44-esl29-rsm2-rcm25-esm310-rsr2-rcr69-esr100.exr,ReadingArea_rsl2-rcl44-esl29-rsm2-rcm25-esm310-rsr2-rcr69-esr100.npz,,,,,0,94,94,279,,right,red,1.01,1013.5144209861757,1013.8836228847504,,2,,4,4,brightness,readingArea,realistic,75,2023-03-22_14h09.59.024,tripletExp_regina_11082022,2022.2.4,120.30058625793056,
0,5,12,2,0.027777777777778,0.298245614035088,2,1.0,0.298245614035088,2,0.027777777777778,3.10526315789474,ReadingArea_rsl2-rcl2-esl29-rsm2-rcm100-esm29-rsr2-rcr2-esr310,exr/ReadingArea_rsl2-rcl2-esl29-rsm2-rcm100-esm29-rsr2-rcr2-esr310.exr,ReadingArea_rsl2-rcl2-esl29-rsm2-rcm100-esm29-rsr2-rcr2-esr310.npz,,,,,0,95,95,366,,right,red,2.4,1017.3327598571776,1017.720265865326,,2,,4,4,brightness,readingArea,realistic,75,2023-03-22_14h09.59.024,tripletExp_regina_11082022,2022.2.4,120.30058625793056,
3,6,5,2,0.444444444444444,0.298245614035088,2,0.027777777777778,1.0,2,1.0,0.298245614035088,ReadingArea_rsl2-rcl44-esl29-rsm2-rcm2-esm100-rsr2-rcr100-esr29,exr/ReadingArea_rsl2-rcl44-esl29-rsm2-rcm2-esm100-rsr2-rcr100-esr29.exr,ReadingArea_rsl2-rcl44-esl29-rsm2-rcm2-esm100-rsr2-rcr100-esr29.npz,,,,,0,96,96,274,,left,green,1.92,1021.204551935196,1021.5670478343964,,2,,4,4,brightness,readingArea,realistic,75,2023-03-22_14h09.59.024,tripletExp_regina_11082022,2022.2.4,120.30058625793056,
7,9,8,2,0.111111111111111,1.0,2,0.444444444444444,1.0,2,0.25,1.0,ReadingArea_rsl2-rcl11-esl100-rsm2-rcm44-esm100-rsr2-rcr25-esr100,exr/ReadingArea_rsl2-rcl11-esl100-rsm2-rcm44-esm100-rsr2-rcr25-esr100.exr,ReadingArea_rsl2-rcl11-esl100-rsm2-rcm44-esm100-rsr2-rcr25-esr100.npz,,,,,0,97,97,515,,right,red,1.97,1025.015338897705,1025.3840019702911,,2,,4,4,brightness,readingArea,realistic,75,2023-03-22_14h09.59.024,tripletExp_regina_11082022,2022.2.4,120.30058625793056,
10,11,12,2,0.694444444444444,1.0,2,1.0,1.0,2,0.027777777777778,3.10526315789474,ReadingArea_rsl2-rcl69-esl100-rsm2-rcm100-esm100-rsr2-rcr2-esr310,exr/ReadingArea_rsl2-rcl69-esl100-rsm2-rcm100-esm100-rsr2-rcr2-esr310.exr,ReadingArea_rsl2-rcl69-esl100-rsm2-rcm100-esm100-rsr2-rcr2-esr310.npz,,,,,0,98,98,533,,left,green,0.93,1027.0752568244934,1027.4542617797852,,2,,4,4,brightness,readingArea,realistic,75,2023-03-22_14h09.59.024,tripletExp_regina_11082022,2022.2.4,120.30058625793056,
8,9,13,2,0.25,1.0,2,0.444444444444444,1.0,2,0.111111111111111,3.10526315789474,ReadingArea_rsl2-rcl25-esl100-rsm2-rcm44-esm100-rsr2-rcr11-esr310,exr/ReadingArea_rsl2-rcl25-esl100-rsm2-rcm44-esm100-rsr2-rcr11-esr310.exr,ReadingArea_rsl2-rcl25-esl100-rsm2-rcm44-esm100-rsr2-rcr11-esr310.npz,,,,,0,99,99,519,,right,red,0.78,1029.1556220054626,1029.5416038036346,,2,,4,4,brightness,readingArea,realistic,75,2023-03-22_14h09.59.024,tripletExp_regina_11082022,2022.2.4,120.30058625793056,
10,4,13,2,0.694444444444444,1.0,2,0.694444444444444,0.298245614035088,2,0.111111111111111,3.10526315789474,ReadingArea_rsl2-rcl69-esl100-rsm2-rcm69-esm29-rsr2-rcr11-esr310,exr/ReadingArea_rsl2-rcl69-esl100-rsm2-rcm69-esm29-rsr2-rcr11-esr310.exr,ReadingArea_rsl2-rcl69-esl100-rsm2-rcm69-esm29-rsr2-rcr11-esr310.npz,,,,,0,100,100,24,,right,red,2.06,1033.0184578895569,1033.3950989246368,,2,,4,4,brightness,readingArea,realistic,75,2023-03-22_14h09.59.024,tripletExp_regina_11082022,2022.2.4,120.30058625793056,
9,0,6,2,0.444444444444444,1.0,2,0.027777777777778,0.298245614035088,2,0.027777777777778,1.0,ReadingArea_rsl2-rcl44-esl100-rsm2-rcm2-esm29-rsr2-rcr2-esr100,exr/ReadingArea_rsl2-rcl44-esl100-rsm2-rcm2-esm29-rsr2-rcr2-esr100.exr,ReadingArea_rsl2-rcl44-esl100-rsm2-rcm2-esm29-rsr2-rcr2-esr100.npz,,,,,0,101,101,362,,right,red,0.71,1035.1093978881836,1035.565094947815,,2,,4,4,brightness,readingArea,realistic,75,2023-03-22_14h09.59.024,tripletExp_regina_11082022,2022.2.4,120.30058625793056,
2,14,7,2,0.25,0.298245614035088,2,0.25,3.10526315789474,2,0.111111111111111,1.0,ReadingArea_rsl2-rcl25-esl29-rsm2-rcm25-esm310-rsr2-rcr11-esr100,exr/ReadingArea_rsl2-rcl25-esl29-rsm2-rcm25-esm310-rsr2-rcr11-esr100.exr,ReadingArea_rsl2-rcl25-esl29-rsm2-rcm25-esm310-rsr2-rcr11-esr100.npz,,,,,0,102,102,310,,right,red,1.93,1039.0707788467407,1039.4455239772797,,2,,4,4,brightness,readingArea,realistic,75,2023-03-22_14h09.59.024,tripletExp_regina_11082022,2022.2.4,120.30058625793056,
13,2,9,2,0.111111111111111,3.10526315789474,2,0.25,0.298245614035088,2,0.444444444444444,1.0,ReadingArea_rsl2-rcl11-esl310-rsm2-rcm25-esm29-rsr2-rcr44-esr100,exr/ReadingArea_rsl2-rcl11-esl310-rsm2-rcm25-esm29-rsr2-rcr44-esr100.exr,ReadingArea_rsl2-rcl11-esl310-rsm2-rcm25-esm29-rsr2-rcr44-esr100.npz,,,,,0,103,103,457,,left,green,2.3,1042.9216017723083,1043.2972328662872,,2,,4,4,brightness,readingArea,realistic,75,2023-03-22_14h09.59.024,tripletExp_regina_11082022,2022.2.4,120.30058625793056,
11,7,12,2,1.0,1.0,2,0.111111111111111,1.0,2,0.027777777777778,3.10526315789474,ReadingArea_rsl2-rcl100-esl100-rsm2-rcm11-esm100-rsr2-rcr2-esr310,exr/ReadingArea_rsl2-rcl100-esl100-rsm2-rcm11-esm100-rsr2-rcr2-esr310.exr,ReadingArea_rsl2-rcl100-esl100-rsm2-rcm11-esm100-rsr2-rcr2-esr310.npz,,,,,0,104,104,352,,right,red,1.96,1046.7707498073578,1047.1557857990265,,2,,4,4,brightness,readingArea,realistic,75,2023-03-22_14h09.59.024,tripletExp_regina_11082022,2022.2.4,120.30058625793056,
12,3,10,2,0.027777777777778,3.10526315789474,2,0.444444444444444,0.298245614035088,2,0.694444444444444,1.0,ReadingArea_rsl2-rcl2-esl310-rsm2-rcm44-esm29-rsr2-rcr69-esr100,exr/ReadingArea_rsl2-rcl2-esl310-rsm2-rcm44-esm29-rsr2-rcr69-esr100.exr,ReadingArea_rsl2-rcl2-esl310-rsm2-rcm44-esm29-rsr2-rcr69-esr100.npz,,,,,0,105,105,437,,left,green,1.68,1048.860720872879,1049.244892835617,,2,,4,4,brightness,readingArea,realistic,75,2023-03-22_14h09.59.024,tripletExp_regina_11082022,2022.2.4,120.30058625793056,
6,11,8,2,0.027777777777778,1.0,2,1.0,1.0,2,0.25,1.0,ReadingArea_rsl2-rcl2-esl100-rsm2-rcm100-esm100-rsr2-rcr25-esr100,exr/ReadingArea_rsl2-rcl2-esl100-rsm2-rcm100-esm100-rsr2-rcr25-esr100.exr,ReadingArea_rsl2-rcl2-esl100-rsm2-rcm100-esm100-rsr2-rcr25-esr100.npz,,,,,0,106,106,176,,right,red,1.29,1050.942065000534,1051.3078858852386,,2,,4,4,brightness,readingArea,realistic,75,2023-03-22_14h09.59.024,tripletExp_regina_11082022,2022.2.4,120.30058625793056,
5,14,3,2,1.0,0.298245614035088,2,0.25,3.10526315789474,2,0.444444444444444,0.298245614035088,ReadingArea_rsl2-rcl100-esl29-rsm2-rcm25-esm310-rsr2-rcr44-esr29,exr/ReadingArea_rsl2-rcl100-esl29-rsm2-rcm25-esm310-rsr2-rcr44-esr29.exr,ReadingArea_rsl2-rcl100-esl29-rsm2-rcm25-esm310-rsr2-rcr44-esr29.npz,,,,,0,107,107,93,,left,green,1.96,1054.7582149505615,,,2,,4,4,brightness,readingArea,realistic,75,2023-03-22_14h09.59.024,tripletExp_regina_11082022,2022.2.4,120.30058625793056,
1,8,12,2,0.111111111111111,0.298245614035088,2,0.25,1.0,2,0.027777777777778,3.10526315789474,ReadingArea_rsl2-rcl11-esl29-rsm2-rcm25-esm100-rsr2-rcr2-esr310,exr/ReadingArea_rsl2-rcl11-esl29-rsm2-rcm25-esm100-rsr2-rcr2-esr310.exr,ReadingArea_rsl2-rcl11-esl29-rsm2-rcm25-esm100-rsr2-rcr2-esr310.npz,,,,,0,108,108,156,,right,red,2.03,1058.6255388259888,,,2,,4,4,brightness,readingArea,realistic,75,2023-03-22_14h09.59.024,tripletExp_regina_11082022,2022.2.4,120.30058625793056,
14,2,8,2,0.25,3.10526315789474,2,0.25,0.298245614035088,2,0.25,1.0,ReadingArea_rsl2-rcl25-esl310-rsm2-rcm25-esm29-rsr2-rcr25-esr100,exr/ReadingArea_rsl2-rcl25-esl310-rsm2-rcm25-esm29-rsr2-rcr25-esr100.exr,ReadingArea_rsl2-rcl25-esl310-rsm2-rcm25-esm29-rsr2-rcr25-esr100.npz,,,,,0,109,109,212,,right,red,1.92,1062.4890689849854,1062.856909990311,,2,,4,4,brightness,readingArea,realistic,75,2023-03-22_14h09.59.024,tripletExp_regina_11082022,2022.2.4,120.30058625793056,
13,10,7,2,0.111111111111111,3.10526315789474,2,0.694444444444444,1.0,2,0.111111111111111,1.0,ReadingArea_rsl2-rcl11-esl310-rsm2-rcm69-esm100-rsr2-rcr11-esr100,exr/ReadingArea_rsl2-rcl11-esl310-rsm2-rcm69-esm100-rsr2-rcr11-esr100.exr,ReadingArea_rsl2-rcl11-esl310-rsm2-rcm69-esm100-rsr2-rcr11-esr100.npz,,,,,0,110,110,385,,left,green,1.93,1066.3181338310242,1066.7002778053284,,2,,4,4,brightness,readingArea,realistic,75,2023-03-22_14h09.59.024,tripletExp_regina_11082022,2022.2.4,120.30058625793056,
12,6,7,2,0.027777777777778,3.10526315789474,2,0.027777777777778,1.0,2,0.111111111111111,1.0,ReadingArea_rsl2-rcl2-esl310-rsm2-rcm2-esm100-rsr2-rcr11-esr100,exr/ReadingArea_rsl2-rcl2-esl310-rsm2-rcm2-esm100-rsr2-rcr11-esr100.exr,ReadingArea_rsl2-rcl2-esl310-rsm2-rcm2-esm100-rsr2-rcr11-esr100.npz,,,,,0,111,111,308,,left,green,2.45,1070.1687948703766,,,2,,4,4,brightness,readingArea,realistic,75,2023-03-22_14h09.59.024,tripletExp_regina_11082022,2022.2.4,120.30058625793056,
3,9,0,2,0.444444444444444,0.298245614035088,2,0.444444444444444,1.0,2,0.027777777777778,0.298245614035088,ReadingArea_rsl2-rcl44-esl29-rsm2-rcm44-esm100-rsr2-rcr2-esr29,exr/ReadingArea_rsl2-rcl44-esl29-rsm2-rcm44-esm100-rsr2-rcr2-esr29.exr,ReadingArea_rsl2-rcl44-esl29-rsm2-rcm44-esm100-rsr2-rcr2-esr29.npz,,,,,0,112,112,551,,left,green,1.43,1072.3005259037018,1072.6723408699036,,2,,4,4,brightness,readingArea,realistic,75,2023-03-22_14h09.59.024,tripletExp_regina_11082022,2022.2.4,120.30058625793056,
1,10,0,2,0.111111111111111,0.298245614035088,2,0.694444444444444,1.0,2,0.027777777777778,0.298245614035088,ReadingArea_rsl2-rcl11-esl29-rsm2-rcm69-esm100-rsr2-rcr2-esr29,exr/ReadingArea_rsl2-rcl11-esl29-rsm2-rcm69-esm100-rsr2-rcr2-esr29.exr,ReadingArea_rsl2-rcl11-esl29-rsm2-rcm69-esm100-rsr2-rcr2-esr29.npz,,,,,0,113,113,196,,left,green,1.75,1074.377594947815,1074.7675788402555,,2,,4,4,brightness,readingArea,realistic,75,2023-03-22_14h09.59.024,tripletExp_regina_11082022,2022.2.4,120.30058625793056,
9,4,11,2,0.444444444444444,1.0,2,0.694444444444444,0.298245614035088,2,1.0,1.0,ReadingArea_rsl2-rcl44-esl100-rsm2-rcm69-esm29-rsr2-rcr100-esr100,exr/ReadingArea_rsl2-rcl44-esl100-rsm2-rcm69-esm29-rsr2-rcr100-esr100.exr,ReadingArea_rsl2-rcl44-esl100-rsm2-rcm69-esm29-rsr2-rcr100-esr100.npz,,,,,0,114,114,133,,left,green,2.42,1078.2527379989624,1078.631843805313,,2,,4,4,brightness,readingArea,realistic,75,2023-03-22_14h09.59.024,tripletExp_regina_11082022,2022.2.4,120.30058625793056,
8,7,12,2,0.25,1.0,2,0.111111111111111,1.0,2,0.027777777777778,3.10526315789474,ReadingArea_rsl2-rcl25-esl100-rsm2-rcm11-esm100-rsr2-rcr2-esr310,exr/ReadingArea_rsl2-rcl25-esl100-rsm2-rcm11-esm100-rsr2-rcr2-esr310.exr,ReadingArea_rsl2-rcl25-esl100-rsm2-rcm11-esm100-rsr2-rcr2-esr310.npz,,,,,0,115,115,471,,right,red,3.78,1083.8900399208069,1084.376070976257,,2,,4,4,brightness,readingArea,realistic,75,2023-03-22_14h09.59.024,tripletExp_regina_11082022,2022.2.4,120.30058625793056,
9,13,5,2,0.444444444444444,1.0,2,0.111111111111111,3.10526315789474,2,1.0,0.298245614035088,ReadingArea_rsl2-rcl44-esl100-rsm2-rcm11-esm310-rsr2-rcr100-esr29,exr/ReadingArea_rsl2-rcl44-esl100-rsm2-rcm11-esm310-rsr2-rcr100-esr29.exr,ReadingArea_rsl2-rcl44-esl100-rsm2-rcm11-esm310-rsr2-rcr100-esr29.npz,,,,,0,116,116,349,,right,red,2.32,1087.8184418678284,1088.184639930725,,2,,4,4,brightness,readingArea,realistic,75,2023-03-22_14h09.59.024,tripletExp_regina_11082022,2022.2.4,120.30058625793056,
9,12,0,2,0.444444444444444,1.0,2,0.027777777777778,3.10526315789474,2,0.027777777777778,0.298245614035088,ReadingArea_rsl2-rcl44-esl100-rsm2-rcm2-esm310-rsr2-rcr2-esr29,exr/ReadingArea_rsl2-rcl44-esl100-rsm2-rcm2-esm310-rsr2-rcr2-esr29.exr,ReadingArea_rsl2-rcl44-esl100-rsm2-rcm2-esm310-rsr2-rcr2-esr29.npz,,,,,0,117,117,175,,,red,2.32,1093.4051179885864,1093.7847259044647,,2,1093.110438799858,4,4,brightness,readingArea,realistic,75,2023-03-22_14h09.59.024,tripletExp_regina_11082022,2022.2.4,120.30058625793056,
11,7,9,2,1.0,1.0,2,0.111111111111111,1.0,2,0.444444444444444,1.0,ReadingArea_rsl2-rcl100-esl100-rsm2-rcm11-esm100-rsr2-rcr44-esr100,exr/ReadingArea_rsl2-rcl100-esl100-rsm2-rcm11-esm100-rsr2-rcr44-esr100.exr,ReadingArea_rsl2-rcl100-esl100-rsm2-rcm11-esm100-rsr2-rcr44-esr100.npz,,,,,0,118,118,521,,right,red,1.36,1095.5050818920135,1095.8864109516144,,2,,4,4,brightness,readingArea,realistic,75,2023-03-22_14h09.59.024,tripletExp_regina_11082022,2022.2.4,120.30058625793056,
10,7,13,2,0.694444444444444,1.0,2,0.111111111111111,1.0,2,0.111111111111111,3.10526315789474,ReadingArea_rsl2-rcl69-esl100-rsm2-rcm11-esm100-rsr2-rcr11-esr310,exr/ReadingArea_rsl2-rcl69-esl100-rsm2-rcm11-esm100-rsr2-rcr11-esr310.exr,ReadingArea_rsl2-rcl69-esl100-rsm2-rcm11-esm100-rsr2-rcr11-esr310.npz,,,,,0,119,119,379,,right,red,1.58,1097.5812828540802,1097.9465007781982,,2,,4,4,brightness,readingArea,realistic,75,2023-03-22_14h09.59.024,tripletExp_regina_11082022,2022.2.4,120.30058625793056,
4,13,1,2,0.694444444444444,0.298245614035088,2,0.111111111111111,3.10526315789474,2,0.111111111111111,0.298245614035088,ReadingArea_rsl2-rcl69-esl29-rsm2-rcm11-esm310-rsr2-rcr11-esr29,exr/ReadingArea_rsl2-rcl69-esl29-rsm2-rcm11-esm310-rsr2-rcr11-esr29.exr,ReadingArea_rsl2-rcl69-esl29-rsm2-rcm11-esm310-rsr2-rcr11-esr29.npz,,,,,0,120,120,192,,left,green,1.16,1099.645260810852,1100.0246438980105,,2,,4,4,brightness,readingArea,realistic,75,2023-03-22_14h09.59.024,tripletExp_regina_11082022,2022.2.4,120.30058625793056,
0,8,7,2,0.027777777777778,0.298245614035088,2,0.25,1.0,2,0.111111111111111,1.0,ReadingArea_rsl2-rcl2-esl29-rsm2-rcm25-esm100-rsr2-rcr11-esr100,exr/ReadingArea_rsl2-rcl2-esl29-rsm2-rcm25-esm100-rsr2-rcr11-esr100.exr,ReadingArea_rsl2-rcl2-esl29-rsm2-rcm25-esm100-rsr2-rcr11-esr100.npz,,,,,0,121,121,9,,right,red,0.99,1101.7187778949738,1102.1305179595947,,2,,4,4,brightness,readingArea,realistic,75,2023-03-22_14h09.59.024,tripletExp_regina_11082022,2022.2.4,120.30058625793056,
5,2,14,2,1.0,0.298245614035088,2,0.25,0.298245614035088,2,0.25,3.10526315789474,ReadingArea_rsl2-rcl100-esl29-rsm2-rcm25-esm29-rsr2-rcr25-esr310,exr/ReadingArea_rsl2-rcl100-esl29-rsm2-rcm25-esm29-rsr2-rcr25-esr310.exr,ReadingArea_rsl2-rcl100-esl29-rsm2-rcm25-esm29-rsr2-rcr25-esr310.npz,,,,,0,122,122,462,,left,green,1.12,1103.8340590000153,1104.2138679027555,,2,,4,4,brightness,readingArea,realistic,75,2023-03-22_14h09.59.024,tripletExp_regina_11082022,2022.2.4,120.30058625793056,
4,2,5,2,0.694444444444444,0.298245614035088,2,0.25,0.298245614035088,2,1.0,0.298245614035088,ReadingArea_rsl2-rcl69-esl29-rsm2-rcm25-esm29-rsr2-rcr100-esr29,exr/ReadingArea_rsl2-rcl69-esl29-rsm2-rcm25-esm29-rsr2-rcr100-esr29.exr,ReadingArea_rsl2-rcl69-esl29-rsm2-rcm25-esm29-rsr2-rcr100-esr29.npz,,,,,0,123,123,101,,left,green,2.73,1107.7048888206482,1108.0691709518433,,2,,4,4,brightness,readingArea,realistic,75,2023-03-22_14h09.59.024,tripletExp_regina_11082022,2022.2.4,120.30058625793056,
10,13,1,2,0.694444444444444,1.0,2,0.111111111111111,3.10526315789474,2,0.111111111111111,0.298245614035088,ReadingArea_rsl2-rcl69-esl100-rsm2-rcm11-esm310-rsr2-rcr11-esr29,exr/ReadingArea_rsl2-rcl69-esl100-rsm2-rcm11-esm310-rsr2-rcr11-esr29.exr,ReadingArea_rsl2-rcl69-esl100-rsm2-rcm11-esm310-rsr2-rcr11-esr29.npz,,,,,0,124,124,149,,right,red,1.86,1111.5578889846802,1111.93666100502,,2,,4,4,brightness,readingArea,realistic,75,2023-03-22_14h09.59.024,tripletExp_regina_11082022,2022.2.4,120.30058625793056,
13,11,8,2,0.111111111111111,3.10526315789474,2,1.0,1.0,2,0.25,1.0,ReadingArea_rsl2-rcl11-esl310-rsm2-rcm100-esm100-rsr2-rcr25-esr100,exr/ReadingArea_rsl2-rcl11-esl310-rsm2-rcm100-esm100-rsr2-rcr25-esr100.exr,ReadingArea_rsl2-rcl11-esl310-rsm2-rcm100-esm100-rsr2-rcr25-esr100.npz,,,,,0,125,125,410,,right,red,2.21,1115.4159619808197,1115.797973871231,,2,,4,4,brightness,readingArea,realistic,75,2023-03-22_14h09.59.024,tripletExp_regina_11082022,2022.2.4,120.30058625793056,
2,3,4,2,0.25,0.298245614035088,2,0.444444444444444,0.298245614035088,2,0.694444444444444,0.298245614035088,ReadingArea_rsl2-rcl25-esl29-rsm2-rcm44-esm29-rsr2-rcr69-esr29,exr/ReadingArea_rsl2-rcl25-esl29-rsm2-rcm44-esm29-rsr2-rcr69-esr29.exr,ReadingArea_rsl2-rcl25-esl29-rsm2-rcm44-esm29-rsr2-rcr69-esr29.npz,,,,,0,126,126,61,,right,red,2.62,1119.256060838699,1119.630641937256,,2,,4,4,brightness,readingArea,realistic,75,2023-03-22_14h09.59.024,tripletExp_regina_11082022,2022.2.4,120.30058625793056,
12,8,10,2,0.027777777777778,3.10526315789474,2,0.25,1.0,2,0.694444444444444,1.0,ReadingArea_rsl2-rcl2-esl310-rsm2-rcm25-esm100-rsr2-rcr69-esr100,exr/ReadingArea_rsl2-rcl2-esl310-rsm2-rcm25-esm100-rsr2-rcr69-esr100.exr,ReadingArea_rsl2-rcl2-esl310-rsm2-rcm25-esm100-rsr2-rcr69-esr100.npz,,,,,0,127,127,216,,right,red,2.55,1123.1065587997437,1123.4917619228363,,2,,4,4,brightness,readingArea,realistic,75,2023-03-22_14h09.59.024,tripletExp_regina_11082022,2022.2.4,120.30058625793056,
3,0,8,2,0.444444444444444,0.298245614035088,2,0.027777777777778,0.298245614035088,2,0.25,1.0,ReadingArea_rsl2-rcl44-esl29-rsm2-rcm2-esm29-rsr2-rcr25-esr100,exr/ReadingArea_rsl2-rcl44-esl29-rsm2-rcm2-esm29-rsr2-rcr25-esr100.exr,ReadingArea_rsl2-rcl44-esl29-rsm2-rcm2-esm29-rsr2-rcr25-esr100.npz,,,,,0,128,128,510,,left,green,3.04,1126.9688038825989,1127.347107887268,,2,,4,4,brightness,readingArea,realistic,75,2023-03-22_14h09.59.024,tripletExp_regina_11082022,2022.2.4,120.30058625793056,
1,9,8,2,0.111111111111111,0.298245614035088,2,0.444444444444444,1.0,2,0.25,1.0,ReadingArea_rsl2-rcl11-esl29-rsm2-rcm44-esm100-rsr2-rcr25-esr100,exr/ReadingArea_rsl2-rcl11-esl29-rsm2-rcm44-esm100-rsr2-rcr25-esr100.exr,ReadingArea_rsl2-rcl11-esl29-rsm2-rcm44-esm100-rsr2-rcr25-esr100.npz,,,,,0,129,129,268,,right,red,2.5,1130.8113889694214,1131.1814458370209,,2,,4,4,brightness,readingArea,realistic,75,2023-03-22_14h09.59.024,tripletExp_regina_11082022,2022.2.4,120.30058625793056,
1,14,5,2,0.111111111111111,0.298245614035088,2,0.25,3.10526315789474,2,1.0,0.298245614035088,ReadingArea_rsl2-rcl11-esl29-rsm2-rcm25-esm310-rsr2-rcr100-esr29,exr/ReadingArea_rsl2-rcl11-esl29-rsm2-rcm25-esm310-rsr2-rcr100-esr29.exr,ReadingArea_rsl2-rcl11-esl29-rsm2-rcm25-esm310-rsr2-rcr100-esr29.npz,,,,,0,130,130,509,,right,red,2.14,1134.6581699848175,1135.046894788742,,2,,4,4,brightness,readingArea,realistic,75,2023-03-22_14h09.59.024,tripletExp_regina_11082022,2022.2.4,120.30058625793056,
2,8,4,2,0.25,0.298245614035088,2,0.25,1.0,2,0.694444444444444,0.298245614035088,ReadingArea_rsl2-rcl25-esl29-rsm2-rcm25-esm100-rsr2-rcr69-esr29,exr/ReadingArea_rsl2-rcl25-esl29-rsm2-rcm25-esm100-rsr2-rcr69-esr29.exr,ReadingArea_rsl2-rcl25-esl29-rsm2-rcm25-esm100-rsr2-rcr69-esr29.npz,,,,,0,131,131,507,,right,red,2.01,1138.525046825409,1138.9067459106443,,2,,4,4,brightness,readingArea,realistic,75,2023-03-22_14h09.59.024,tripletExp_regina_11082022,2022.2.4,120.30058625793056,
2,4,10,2,0.25,0.298245614035088,2,0.694444444444444,0.298245614035088,2,0.694444444444444,1.0,ReadingArea_rsl2-rcl25-esl29-rsm2-rcm69-esm29-rsr2-rcr69-esr100,exr/ReadingArea_rsl2-rcl25-esl29-rsm2-rcm69-esm29-rsr2-rcr69-esr100.exr,ReadingArea_rsl2-rcl25-esl29-rsm2-rcm69-esm29-rsr2-rcr69-esr100.npz,,,,,0,132,132,174,,right,red,2.66,1142.3750898838043,1142.7475748062134,,2,,4,4,brightness,readingArea,realistic,75,2023-03-22_14h09.59.024,tripletExp_regina_11082022,2022.2.4,120.30058625793056,
8,4,1,2,0.25,1.0,2,0.694444444444444,0.298245614035088,2,0.111111111111111,0.298245614035088,ReadingArea_rsl2-rcl25-esl100-rsm2-rcm69-esm29-rsr2-rcr11-esr29,exr/ReadingArea_rsl2-rcl25-esl100-rsm2-rcm69-esm29-rsr2-rcr11-esr29.exr,ReadingArea_rsl2-rcl25-esl100-rsm2-rcm69-esm29-rsr2-rcr11-esr29.npz,,,,,0,133,133,286,,left,green,0.98,1144.4585177898407,1144.855724811554,,2,,4,4,brightness,readingArea,realistic,75,2023-03-22_14h09.59.024,tripletExp_regina_11082022,2022.2.4,120.30058625793056,
1,7,8,2,0.111111111111111,0.298245614035088,2,0.111111111111111,1.0,2,0.25,1.0,ReadingArea_rsl2-rcl11-esl29-rsm2-rcm11-esm100-rsr2-rcr25-esr100,exr/ReadingArea_rsl2-rcl11-esl29-rsm2-rcm11-esm100-rsr2-rcr25-esr100.exr,ReadingArea_rsl2-rcl11-esl29-rsm2-rcm11-esm100-rsr2-rcr25-esr100.npz,,,,,0,134,134,260,,left,green,4.24,1150.0949108600616,1150.465875864029,,2,,4,4,brightness,readingArea,realistic,75,2023-03-22_14h09.59.024,tripletExp_regina_11082022,2022.2.4,120.30058625793056,
0,7,13,2,0.027777777777778,0.298245614035088,2,0.111111111111111,1.0,2,0.111111111111111,3.10526315789474,ReadingArea_rsl2-rcl2-esl29-rsm2-rcm11-esm100-rsr2-rcr11-esr310,exr/ReadingArea_rsl2-rcl2-esl29-rsm2-rcm11-esm100-rsr2-rcr11-esr310.exr,ReadingArea_rsl2-rcl2-esl29-rsm2-rcm11-esm100-rsr2-rcr11-esr310.npz,,,,,0,135,135,159,,right,red,2.72,1153.9556369781494,1154.321810007095,,2,,4,4,brightness,readingArea,realistic,75,2023-03-22_14h09.59.024,tripletExp_regina_11082022,2022.2.4,120.30058625793056,
4,0,3,2,0.694444444444444,0.298245614035088,2,0.027777777777778,0.298245614035088,2,0.444444444444444,0.298245614035088,ReadingArea_rsl2-rcl69-esl29-rsm2-rcm2-esm29-rsr2-rcr44-esr29,exr/ReadingArea_rsl2-rcl69-esl29-rsm2-rcm2-esm29-rsr2-rcr44-esr29.exr,ReadingArea_rsl2-rcl69-esl29-rsm2-rcm2-esm29-rsr2-rcr44-esr29.npz,,,,,0,136,136,88,,right,red,2.71,1157.798530817032,1158.1666769981384,,2,,4,4,brightness,readingArea,realistic,75,2023-03-22_14h09.59.024,tripletExp_regina_11082022,2022.2.4,120.30058625793056,
1,12,0,2,0.111111111111111,0.298245614035088,2,0.027777777777778,3.10526315789474,2,0.027777777777778,0.298245614035088,ReadingArea_rsl2-rcl11-esl29-rsm2-rcm2-esm310-rsr2-rcr2-esr29,exr/ReadingArea_rsl2-rcl11-esl29-rsm2-rcm2-esm310-rsr2-rcr2-esr29.exr,ReadingArea_rsl2-rcl11-esl29-rsm2-rcm2-esm310-rsr2-rcr2-esr29.npz,,,,,0,137,137,113,,left,green,1.56,1159.8642718791962,1160.3440449237823,,2,,4,4,brightness,readingArea,realistic,75,2023-03-22_14h09.59.024,tripletExp_regina_11082022,2022.2.4,120.30058625793056,
5,4,12,2,1.0,0.298245614035088,2,0.694444444444444,0.298245614035088,2,0.027777777777778,3.10526315789474,ReadingArea_rsl2-rcl100-esl29-rsm2-rcm69-esm29-rsr2-rcr2-esr310,exr/ReadingArea_rsl2-rcl100-esl29-rsm2-rcm69-esm29-rsr2-rcr2-esr310.exr,ReadingArea_rsl2-rcl100-esl29-rsm2-rcm69-esm29-rsr2-rcr2-esr310.npz,,,,,0,138,138,82,,left,green,1.93,1163.8119678497314,1164.2206490039823,,2,,4,4,brightness,readingArea,realistic,75,2023-03-22_14h09.59.024,tripletExp_regina_11082022,2022.2.4,120.30058625793056,
3,1,0,2,0.444444444444444,0.298245614035088,2,0.111111111111111,0.298245614035088,2,0.027777777777778,0.298245614035088,ReadingArea_rsl2-rcl44-esl29-rsm2-rcm11-esm29-rsr2-rcr2-esr29,exr/ReadingArea_rsl2-rcl44-esl29-rsm2-rcm11-esm29-rsr2-rcr2-esr29.exr,ReadingArea_rsl2-rcl44-esl29-rsm2-rcm11-esm29-rsr2-rcr2-esr29.npz,,,,,0,139,139,343,,right,red,4.09,1169.427563905716,1169.8056797981262,,2,,4,4,brightness,readingArea,realistic,75,2023-03-22_14h09.59.024,tripletExp_regina_11082022,2022.2.4,120.30058625793056,
10,0,14,2,0.694444444444444,1.0,2,0.027777777777778,0.298245614035088,2,0.25,3.10526315789474,ReadingArea_rsl2-rcl69-esl100-rsm2-rcm2-esm29-rsr2-rcr25-esr310,exr/ReadingArea_rsl2-rcl69-esl100-rsm2-rcm2-esm29-rsr2-rcr25-esr310.exr,ReadingArea_rsl2-rcl69-esl100-rsm2-rcm2-esm29-rsr2-rcr25-esr310.npz,,,,,0,140,140,95,,left,green,4.89,1175.0789568424225,1175.5482349395752,,2,,4,4,brightness,readingArea,realistic,75,2023-03-22_14h09.59.024,tripletExp_regina_11082022,2022.2.4,120.30058625793056,
13,4,0,2,0.111111111111111,3.10526315789474,2,0.694444444444444,0.298245614035088,2,0.027777777777778,0.298245614035088,ReadingArea_rsl2-rcl11-esl310-rsm2-rcm69-esm29-rsr2-rcr2-esr29,exr/ReadingArea_rsl2-rcl11-esl310-rsm2-rcm69-esm29-rsr2-rcr2-esr29.exr,ReadingArea_rsl2-rcl11-esl310-rsm2-rcm69-esm29-rsr2-rcr2-esr29.npz,,,,,0,141,141,269,,left,green,2.34,1179.0162539482117,1179.4430198669434,,2,,4,4,brightness,readingArea,realistic,75,2023-03-22_14h09.59.024,tripletExp_regina_11082022,2022.2.4,120.30058625793056,
4,10,6,2,0.694444444444444,0.298245614035088,2,0.694444444444444,1.0,2,0.027777777777778,1.0,ReadingArea_rsl2-rcl69-esl29-rsm2-rcm69-esm100-rsr2-rcr2-esr100,exr/ReadingArea_rsl2-rcl69-esl29-rsm2-rcm69-esm100-rsr2-rcr2-esr100.exr,ReadingArea_rsl2-rcl69-esl29-rsm2-rcm69-esm100-rsr2-rcr2-esr100.npz,,,,,0,142,142,468,,left,green,1.93,1182.9217069149015,1183.3136928081512,,2,,4,4,brightness,readingArea,realistic,75,2023-03-22_14h09.59.024,tripletExp_regina_11082022,2022.2.4,120.30058625793056,
6,5,13,2,0.027777777777778,1.0,2,1.0,0.298245614035088,2,0.111111111111111,3.10526315789474,ReadingArea_rsl2-rcl2-esl100-rsm2-rcm100-esm29-rsr2-rcr11-esr310,exr/ReadingArea_rsl2-rcl2-esl100-rsm2-rcm100-esm29-rsr2-rcr11-esr310.exr,ReadingArea_rsl2-rcl2-esl100-rsm2-rcm100-esm29-rsr2-rcr11-esr310.npz,,,,,0,143,143,450,,right,red,0.9,1185.0280339717865,1185.3976838588717,,2,,4,4,brightness,readingArea,realistic,75,2023-03-22_14h09.59.024,tripletExp_regina_11082022,2022.2.4,120.30058625793056,
4,3,10,2,0.694444444444444,0.298245614035088,2,0.444444444444444,0.298245614035088,2,0.694444444444444,1.0,ReadingArea_rsl2-rcl69-esl29-rsm2-rcm44-esm29-rsr2-rcr69-esr100,exr/ReadingArea_rsl2-rcl69-esl29-rsm2-rcm44-esm29-rsr2-rcr69-esr100.exr,ReadingArea_rsl2-rcl69-esl29-rsm2-rcm44-esm29-rsr2-rcr69-esr100.npz,,,,,0,144,144,371,,left,green,0.9,1187.0984029769895,1187.484581947327,,2,,4,4,brightness,readingArea,realistic,75,2023-03-22_14h09.59.024,tripletExp_regina_11082022,2022.2.4,120.30058625793056,
13,0,12,2,0.111111111111111,3.10526315789474,2,0.027777777777778,0.298245614035088,2,0.027777777777778,3.10526315789474,ReadingArea_rsl2-rcl11-esl310-rsm2-rcm2-esm29-rsr2-rcr2-esr310,exr/ReadingArea_rsl2-rcl11-esl310-rsm2-rcm2-esm29-rsr2-rcr2-esr310.exr,ReadingArea_rsl2-rcl11-esl310-rsm2-rcm2-esm29-rsr2-rcr2-esr310.npz,,,,,0,145,145,56,,right,red,1.97,1190.9625968933103,1191.3472518920898,,2,,4,4,brightness,readingArea,realistic,75,2023-03-22_14h09.59.024,tripletExp_regina_11082022,2022.2.4,120.30058625793056,
2,11,14,2,0.25,0.298245614035088,2,1.0,1.0,2,0.25,3.10526315789474,ReadingArea_rsl2-rcl25-esl29-rsm2-rcm100-esm100-rsr2-rcr25-esr310,exr/ReadingArea_rsl2-rcl25-esl29-rsm2-rcm100-esm100-rsr2-rcr25-esr310.exr,ReadingArea_rsl2-rcl25-esl29-rsm2-rcm100-esm100-rsr2-rcr25-esr310.npz,,,,,0,146,146,534,,right,red,1.91,1194.7987089157104,1195.1595587730408,,2,,4,4,brightness,readingArea,realistic,75,2023-03-22_14h09.59.024,tripletExp_regina_11082022,2022.2.4,120.30058625793056,
6,9,5,2,0.027777777777778,1.0,2,0.444444444444444,1.0,2,1.0,0.298245614035088,ReadingArea_rsl2-rcl2-esl100-rsm2-rcm44-esm100-rsr2-rcr100-esr29,exr/ReadingArea_rsl2-rcl2-esl100-rsm2-rcm44-esm100-rsr2-rcr100-esr29.exr,ReadingArea_rsl2-rcl2-esl100-rsm2-rcm44-esm100-rsr2-rcr100-esr29.npz,,,,,0,147,147,29,,right,red,1.92,1198.6338028907776,1199.0045158863068,,2,,4,4,brightness,readingArea,realistic,75,2023-03-22_14h09.59.024,tripletExp_regina_11082022,2022.2.4,120.30058625793056,
10,1,0,2,0.694444444444444,1.0,2,0.111111111111111,0.298245614035088,2,0.027777777777778,0.298245614035088,ReadingArea_rsl2-rcl69-esl100-rsm2-rcm11-esm29-rsr2-rcr2-esr29,exr/ReadingArea_rsl2-rcl69-esl100-rsm2-rcm11-esm29-rsr2-rcr2-esr29.exr,ReadingArea_rsl2-rcl69-esl100-rsm2-rcm11-esm29-rsr2-rcr2-esr29.npz,,,,,0,148,148,276,,right,red,2.0,1202.4743688106537,1202.858866930008,,2,,4,4,brightness,readingArea,realistic,75,2023-03-22_14h09.59.024,tripletExp_regina_11082022,2022.2.4,120.30058625793056,
2,0,13,2,0.25,0.298245614035088,2,0.027777777777778,0.298245614035088,2,0.111111111111111,3.10526315789474,ReadingArea_rsl2-rcl25-esl29-rsm2-rcm2-esm29-rsr2-rcr11-esr310,exr/ReadingArea_rsl2-rcl25-esl29-rsm2-rcm2-esm29-rsr2-rcr11-esr310.exr,ReadingArea_rsl2-rcl25-esl29-rsm2-rcm2-esm29-rsr2-rcr11-esr310.npz,,,,,0,149,149,50,,left,green,2.03,1206.3511638641355,1206.55588889122,,2,,4,4,brightness,readingArea,realistic,75,2023-03-22_14h09.59.024,tripletExp_regina_11082022,2022.2.4,120.30058625793056,
0,1,7,2,0.027777777777778,0.298245614035088,2,0.111111111111111,0.298245614035088,2,0.111111111111111,1.0,ReadingArea_rsl2-rcl2-esl29-rsm2-rcm11-esm29-rsr2-rcr11-esr100,exr/ReadingArea_rsl2-rcl2-esl29-rsm2-rcm11-esm29-rsr2-rcr11-esr100.exr,ReadingArea_rsl2-rcl2-esl29-rsm2-rcm11-esm29-rsr2-rcr11-esr100.npz,,,,,0,150,150,243,,left,green,3.15,1256.7379529476166,1257.11363196373,,3,,4,4,brightness,readingArea,realistic,75,2023-03-22_14h09.59.024,tripletExp_regina_11082022,2022.2.4,120.30058625793056,
11,8,0,2,1.0,1.0,2,0.25,1.0,2,0.027777777777778,0.298245614035088,ReadingArea_rsl2-rcl100-esl100-rsm2-rcm25-esm100-rsr2-rcr2-esr29,exr/ReadingArea_rsl2-rcl100-esl100-rsm2-rcm25-esm100-rsr2-rcr2-esr29.exr,ReadingArea_rsl2-rcl100-esl100-rsm2-rcm25-esm100-rsr2-rcr2-esr29.npz,,,,,0,151,151,81,,left,green,1.86,1260.6133878231049,1261.0027418136597,,3,,4,4,brightness,readingArea,realistic,75,2023-03-22_14h09.59.024,tripletExp_regina_11082022,2022.2.4,120.30058625793056,
4,10,9,2,0.694444444444444,0.298245614035088,2,0.694444444444444,1.0,2,0.444444444444444,1.0,ReadingArea_rsl2-rcl69-esl29-rsm2-rcm69-esm100-rsr2-rcr44-esr100,exr/ReadingArea_rsl2-rcl69-esl29-rsm2-rcm69-esm100-rsr2-rcr44-esr100.exr,ReadingArea_rsl2-rcl69-esl29-rsm2-rcm69-esm100-rsr2-rcr44-esr100.npz,,,,,0,152,152,516,,right,red,1.83,1264.484113931656,1264.884878873825,,3,,4,4,brightness,readingArea,realistic,75,2023-03-22_14h09.59.024,tripletExp_regina_11082022,2022.2.4,120.30058625793056,
9,7,10,2,0.444444444444444,1.0,2,0.111111111111111,1.0,2,0.694444444444444,1.0,ReadingArea_rsl2-rcl44-esl100-rsm2-rcm11-esm100-rsr2-rcr69-esr100,exr/ReadingArea_rsl2-rcl44-esl100-rsm2-rcm11-esm100-rsr2-rcr69-esr100.exr,ReadingArea_rsl2-rcl44-esl100-rsm2-rcm11-esm100-rsr2-rcr69-esr100.npz,,,,,0,153,153,508,,left,green,1.73,1266.5923109054563,1266.97789478302,,3,,4,4,brightness,readingArea,realistic,75,2023-03-22_14h09.59.024,tripletExp_regina_11082022,2022.2.4,120.30058625793056,
3,6,10,2,0.444444444444444,0.298245614035088,2,0.027777777777778,1.0,2,0.694444444444444,1.0,ReadingArea_rsl2-rcl44-esl29-rsm2-rcm2-esm100-rsr2-rcr69-esr100,exr/ReadingArea_rsl2-rcl44-esl29-rsm2-rcm2-esm100-rsr2-rcr69-esr100.exr,ReadingArea_rsl2-rcl44-esl29-rsm2-rcm2-esm100-rsr2-rcr69-esr100.npz,,,,,0,154,154,138,,left,green,1.48,1268.6738698482511,1269.0552189350128,,3,,4,4,brightness,readingArea,realistic,75,2023-03-22_14h09.59.024,tripletExp_regina_11082022,2022.2.4,120.30058625793056,
12,6,2,2,0.027777777777778,3.10526315789474,2,0.027777777777778,1.0,2,0.25,0.298245614035088,ReadingArea_rsl2-rcl2-esl310-rsm2-rcm2-esm100-rsr2-rcr25-esr29,exr/ReadingArea_rsl2-rcl2-esl310-rsm2-rcm2-esm100-rsr2-rcr25-esr29.exr,ReadingArea_rsl2-rcl2-esl310-rsm2-rcm2-esm100-rsr2-rcr25-esr29.npz,,,,,0,155,155,106,,right,red,3.53,1272.515841007233,1272.888305902481,,3,,4,4,brightness,readingArea,realistic,75,2023-03-22_14h09.59.024,tripletExp_regina_11082022,2022.2.4,120.30058625793056,
4,13,2,2,0.694444444444444,0.298245614035088,2,0.111111111111111,3.10526315789474,2,0.25,0.298245614035088,ReadingArea_rsl2-rcl69-esl29-rsm2-rcm11-esm310-rsr2-rcr25-esr29,exr/ReadingArea_rsl2-rcl69-esl29-rsm2-rcm11-esm310-rsr2-rcr25-esr29.exr,ReadingArea_rsl2-rcl69-esl29-rsm2-rcm11-esm310-rsr2-rcr25-esr29.npz,,,,,0,156,156,592,,left,green,1.11,1274.5883378982544,1274.96266579628,,3,,4,4,brightness,readingArea,realistic,75,2023-03-22_14h09.59.024,tripletExp_regina_11082022,2022.2.4,120.30058625793056,
13,4,12,2,0.111111111111111,3.10526315789474,2,0.694444444444444,0.298245614035088,2,0.027777777777778,3.10526315789474,ReadingArea_rsl2-rcl11-esl310-rsm2-rcm69-esm29-rsr2-rcr2-esr310,exr/ReadingArea_rsl2-rcl11-esl310-rsm2-rcm69-esm29-rsr2-rcr2-esr310.exr,ReadingArea_rsl2-rcl11-esl310-rsm2-rcm69-esm29-rsr2-rcr2-esr310.npz,,,,,0,157,157,122,,left,green,1.98,1278.440663814545,1278.8025097846985,,3,,4,4,brightness,readingArea,realistic,75,2023-03-22_14h09.59.024,tripletExp_regina_11082022,2022.2.4,120.30058625793056,
6,0,4,2,0.027777777777778,1.0,2,0.027777777777778,0.298245614035088,2,0.694444444444444,0.298245614035088,ReadingArea_rsl2-rcl2-esl100-rsm2-rcm2-esm29-rsr2-rcr69-esr29,exr/ReadingArea_rsl2-rcl2-esl100-rsm2-rcm2-esm29-rsr2-rcr69-esr29.exr,ReadingArea_rsl2-rcl2-esl100-rsm2-rcm2-esm29-rsr2-rcr69-esr29.npz,,,,,0,158,158,555,,left,green,1.06,1280.5045189857483,1280.8956198692322,,3,,4,4,brightness,readingArea,realistic,75,2023-03-22_14h09.59.024,tripletExp_regina_11082022,2022.2.4,120.30058625793056,
13,8,0,2,0.111111111111111,3.10526315789474,2,0.25,1.0,2,0.027777777777778,0.298245614035088,ReadingArea_rsl2-rcl11-esl310-rsm2-rcm25-esm100-rsr2-rcr2-esr29,exr/ReadingArea_rsl2-rcl11-esl310-rsm2-rcm25-esm100-rsr2-rcr2-esr29.exr,ReadingArea_rsl2-rcl11-esl310-rsm2-rcm25-esm100-rsr2-rcr2-esr29.npz,,,,,0,159,159,429,,left,green,0.97,1282.598731994629,1282.9612979888916,,3,,4,4,brightness,readingArea,realistic,75,2023-03-22_14h09.59.024,tripletExp_regina_11082022,2022.2.4,120.30058625793056,
3,0,4,2,0.444444444444444,0.298245614035088,2,0.027777777777778,0.298245614035088,2,0.694444444444444,0.298245614035088,ReadingArea_rsl2-rcl44-esl29-rsm2-rcm2-esm29-rsr2-rcr69-esr29,exr/ReadingArea_rsl2-rcl44-esl29-rsm2-rcm2-esm29-rsr2-rcr69-esr29.exr,ReadingArea_rsl2-rcl44-esl29-rsm2-rcm2-esm29-rsr2-rcr69-esr29.npz,,,,,0,160,160,111,,left,green,2.1,1286.435969829559,1286.7950139045715,,3,,4,4,brightness,readingArea,realistic,75,2023-03-22_14h09.59.024,tripletExp_regina_11082022,2022.2.4,120.30058625793056,
0,1,6,2,0.027777777777778,0.298245614035088,2,0.111111111111111,0.298245614035088,2,0.027777777777778,1.0,ReadingArea_rsl2-rcl2-esl29-rsm2-rcm11-esm29-rsr2-rcr2-esr100,exr/ReadingArea_rsl2-rcl2-esl29-rsm2-rcm11-esm29-rsr2-rcr2-esr100.exr,ReadingArea_rsl2-rcl2-esl29-rsm2-rcm11-esm29-rsr2-rcr2-esr100.npz,,,,,0,161,161,375,,right,red,2.68,1290.2747769355774,1290.6461308002472,,3,,4,4,brightness,readingArea,realistic,75,2023-03-22_14h09.59.024,tripletExp_regina_11082022,2022.2.4,120.30058625793056,
10,7,8,2,0.694444444444444,1.0,2,0.111111111111111,1.0,2,0.25,1.0,ReadingArea_rsl2-rcl69-esl100-rsm2-rcm11-esm100-rsr2-rcr25-esr100,exr/ReadingArea_rsl2-rcl69-esl100-rsm2-rcm11-esm100-rsr2-rcr25-esr100.exr,ReadingArea_rsl2-rcl69-esl100-rsm2-rcm11-esm100-rsr2-rcr25-esr100.npz,,,,,0,162,162,57,,right,red,1.92,1294.1236128807068,1294.487848997116,,3,,4,4,brightness,readingArea,realistic,75,2023-03-22_14h09.59.024,tripletExp_regina_11082022,2022.2.4,120.30058625793056,
6,0,11,2,0.027777777777778,1.0,2,0.027777777777778,0.298245614035088,2,1.0,1.0,ReadingArea_rsl2-rcl2-esl100-rsm2-rcm2-esm29-rsr2-rcr100-esr100,exr/ReadingArea_rsl2-rcl2-esl100-rsm2-rcm2-esm29-rsr2-rcr100-esr100.exr,ReadingArea_rsl2-rcl2-esl100-rsm2-rcm2-esm29-rsr2-rcr100-esr100.npz,,,,,0,163,163,245,,left,green,1.83,1297.9651758670807,1298.3523077964785,,3,,4,4,brightness,readingArea,realistic,75,2023-03-22_14h09.59.024,tripletExp_regina_11082022,2022.2.4,120.30058625793056,
6,3,1,2,0.027777777777778,1.0,2,0.444444444444444,0.298245614035088,2,0.111111111111111,0.298245614035088,ReadingArea_rsl2-rcl2-esl100-rsm2-rcm44-esm29-rsr2-rcr11-esr29,exr/ReadingArea_rsl2-rcl2-esl100-rsm2-rcm44-esm29-rsr2-rcr11-esr29.exr,ReadingArea_rsl2-rcl2-esl100-rsm2-rcm44-esm29-rsr2-rcr11-esr29.npz,,,,,0,164,164,430,,right,red,1.9,1301.8317317962646,1302.2194969654083,,3,,4,4,brightness,readingArea,realistic,75,2023-03-22_14h09.59.024,tripletExp_regina_11082022,2022.2.4,120.30058625793056,
5,8,2,2,1.0,0.298245614035088,2,0.25,1.0,2,0.25,0.298245614035088,ReadingArea_rsl2-rcl100-esl29-rsm2-rcm25-esm100-rsr2-rcr25-esr29,exr/ReadingArea_rsl2-rcl100-esl29-rsm2-rcm25-esm100-rsr2-rcr25-esr29.exr,ReadingArea_rsl2-rcl100-esl29-rsm2-rcm25-esm100-rsr2-rcr25-esr29.npz,,,,,0,165,165,65,,left,green,2.72,1305.7003519535065,1306.0735988616943,,3,,4,4,brightness,readingArea,realistic,75,2023-03-22_14h09.59.024,tripletExp_regina_11082022,2022.2.4,120.30058625793056,
1,2,12,2,0.111111111111111,0.298245614035088,2,0.25,0.298245614035088,2,0.027777777777778,3.10526315789474,ReadingArea_rsl2-rcl11-esl29-rsm2-rcm25-esm29-rsr2-rcr2-esr310,exr/ReadingArea_rsl2-rcl11-esl29-rsm2-rcm25-esm29-rsr2-rcr2-esr310.exr,ReadingArea_rsl2-rcl11-esl29-rsm2-rcm25-esm29-rsr2-rcr2-esr310.npz,,,,,0,166,166,229,,right,red,2.1,1309.5620658397677,1309.9348628520966,,3,,4,4,brightness,readingArea,realistic,75,2023-03-22_14h09.59.024,tripletExp_regina_11082022,2022.2.4,120.30058625793056,
2,1,3,2,0.25,0.298245614035088,2,0.111111111111111,0.298245614035088,2,0.444444444444444,0.298245614035088,ReadingArea_rsl2-rcl25-esl29-rsm2-rcm11-esm29-rsr2-rcr44-esr29,exr/ReadingArea_rsl2-rcl25-esl29-rsm2-rcm11-esm29-rsr2-rcr44-esr29.exr,ReadingArea_rsl2-rcl25-esl29-rsm2-rcm11-esm29-rsr2-rcr44-esr29.npz,,,,,0,167,167,85,,left,green,1.83,1313.3857488632202,1313.7690069675446,,3,,4,4,brightness,readingArea,realistic,75,2023-03-22_14h09.59.024,tripletExp_regina_11082022,2022.2.4,120.30058625793056,
10,7,2,2,0.694444444444444,1.0,2,0.111111111111111,1.0,2,0.25,0.298245614035088,ReadingArea_rsl2-rcl69-esl100-rsm2-rcm11-esm100-rsr2-rcr25-esr29,exr/ReadingArea_rsl2-rcl69-esl100-rsm2-rcm11-esm100-rsr2-rcr25-esr29.exr,ReadingArea_rsl2-rcl69-esl100-rsm2-rcm11-esm100-rsr2-rcr25-esr29.npz,,,,,0,168,168,523,,right,red,1.07,1315.4799869060516,1315.856517791748,,3,,4,4,brightness,readingArea,realistic,75,2023-03-22_14h09.59.024,tripletExp_regina_11082022,2022.2.4,120.30058625793056,
10,11,4,2,0.694444444444444,1.0,2,1.0,1.0,2,0.694444444444444,0.298245614035088,ReadingArea_rsl2-rcl69-esl100-rsm2-rcm100-esm100-rsr2-rcr69-esr29,exr/ReadingArea_rsl2-rcl69-esl100-rsm2-rcm100-esm100-rsr2-rcr69-esr29.exr,ReadingArea_rsl2-rcl69-esl100-rsm2-rcm100-esm100-rsr2-rcr69-esr29.npz,,,,,0,169,169,239,,left,green,2.06,1319.3490109443665,1319.757171869278,,3,,4,4,brightness,readingArea,realistic,75,2023-03-22_14h09.59.024,tripletExp_regina_11082022,2022.2.4,120.30058625793056,
11,5,4,2,1.0,1.0,2,1.0,0.298245614035088,2,0.694444444444444,0.298245614035088,ReadingArea_rsl2-rcl100-esl100-rsm2-rcm100-esm29-rsr2-rcr69-esr29,exr/ReadingArea_rsl2-rcl100-esl100-rsm2-rcm100-esm29-rsr2-rcr69-esr29.exr,ReadingArea_rsl2-rcl100-esl100-rsm2-rcm100-esm29-rsr2-rcr69-esr29.npz,,,,,0,170,170,564,,right,red,1.04,1321.4624948501587,1321.8378369808197,,3,,4,4,brightness,readingArea,realistic,75,2023-03-22_14h09.59.024,tripletExp_regina_11082022,2022.2.4,120.30058625793056,
5,0,11,2,1.0,0.298245614035088,2,0.027777777777778,0.298245614035088,2,1.0,1.0,ReadingArea_rsl2-rcl100-esl29-rsm2-rcm2-esm29-rsr2-rcr100-esr100,exr/ReadingArea_rsl2-rcl100-esl29-rsm2-rcm2-esm29-rsr2-rcr100-esr100.exr,ReadingArea_rsl2-rcl100-esl29-rsm2-rcm2-esm29-rsr2-rcr100-esr100.npz,,,,,0,171,171,547,,left,green,1.97,1325.3030569553375,1325.6953468322754,,3,,4,4,brightness,readingArea,realistic,75,2023-03-22_14h09.59.024,tripletExp_regina_11082022,2022.2.4,120.30058625793056,
12,14,4,2,0.027777777777778,3.10526315789474,2,0.25,3.10526315789474,2,0.694444444444444,0.298245614035088,ReadingArea_rsl2-rcl2-esl310-rsm2-rcm25-esm310-rsr2-rcr69-esr29,exr/ReadingArea_rsl2-rcl2-esl310-rsm2-rcm25-esm310-rsr2-rcr69-esr29.exr,ReadingArea_rsl2-rcl2-esl310-rsm2-rcm25-esm310-rsr2-rcr69-esr29.npz,,,,,0,172,172,315,,right,red,2.08,1329.1827189922333,1329.5702188014984,,3,,4,4,brightness,readingArea,realistic,75,2023-03-22_14h09.59.024,tripletExp_regina_11082022,2022.2.4,120.30058625793056,
0,14,10,2,0.027777777777778,0.298245614035088,2,0.25,3.10526315789474,2,0.694444444444444,1.0,ReadingArea_rsl2-rcl2-esl29-rsm2-rcm25-esm310-rsr2-rcr69-esr100,exr/ReadingArea_rsl2-rcl2-esl29-rsm2-rcm25-esm310-rsr2-rcr69-esr100.exr,ReadingArea_rsl2-rcl2-esl29-rsm2-rcm25-esm310-rsr2-rcr69-esr100.npz,,,,,0,173,173,128,,right,red,1.91,1333.0462069511414,1333.4240138530731,,3,,4,4,brightness,readingArea,realistic,75,2023-03-22_14h09.59.024,tripletExp_regina_11082022,2022.2.4,120.30058625793056,
4,7,10,2,0.694444444444444,0.298245614035088,2,0.111111111111111,1.0,2,0.694444444444444,1.0,ReadingArea_rsl2-rcl69-esl29-rsm2-rcm11-esm100-rsr2-rcr69-esr100,exr/ReadingArea_rsl2-rcl69-esl29-rsm2-rcm11-esm100-rsr2-rcr69-esr100.exr,ReadingArea_rsl2-rcl69-esl29-rsm2-rcm11-esm100-rsr2-rcr69-esr100.npz,,,,,0,174,174,8,,left,green,1.02,1335.116719007492,1335.4792218208313,,3,,4,4,brightness,readingArea,realistic,75,2023-03-22_14h09.59.024,tripletExp_regina_11082022,2022.2.4,120.30058625793056,
1,3,12,2,0.111111111111111,0.298245614035088,2,0.444444444444444,0.298245614035088,2,0.027777777777778,3.10526315789474,ReadingArea_rsl2-rcl11-esl29-rsm2-rcm44-esm29-rsr2-rcr2-esr310,exr/ReadingArea_rsl2-rcl11-esl29-rsm2-rcm44-esm29-rsr2-rcr2-esr310.exr,ReadingArea_rsl2-rcl11-esl29-rsm2-rcm44-esm29-rsr2-rcr2-esr310.npz,,,,,0,175,175,323,,right,red,1.05,1337.1853029727936,1337.5862579345703,,3,,4,4,brightness,readingArea,realistic,75,2023-03-22_14h09.59.024,tripletExp_regina_11082022,2022.2.4,120.30058625793056,
11,2,8,2,1.0,1.0,2,0.25,0.298245614035088,2,0.25,1.0,ReadingArea_rsl2-rcl100-esl100-rsm2-rcm25-esm29-rsr2-rcr25-esr100,exr/ReadingArea_rsl2-rcl100-esl100-rsm2-rcm25-esm29-rsr2-rcr25-esr100.exr,ReadingArea_rsl2-rcl100-esl100-rsm2-rcm25-esm29-rsr2-rcr25-esr100.npz,,,,,0,176,176,214,,right,red,2.0,1341.0603699684143,1341.4555649757383,,3,,4,4,brightness,readingArea,realistic,75,2023-03-22_14h09.59.024,tripletExp_regina_11082022,2022.2.4,120.30058625793056,
0,13,1,2,0.027777777777778,0.298245614035088,2,0.111111111111111,3.10526315789474,2,0.111111111111111,0.298245614035088,ReadingArea_rsl2-rcl2-esl29-rsm2-rcm11-esm310-rsr2-rcr11-esr29,exr/ReadingArea_rsl2-rcl2-esl29-rsm2-rcm11-esm310-rsr2-rcr11-esr29.exr,ReadingArea_rsl2-rcl2-esl29-rsm2-rcm11-esm310-rsr2-rcr11-esr29.npz,,,,,0,177,177,458,,right,red,1.85,1344.929447889328,,,3,,4,4,brightness,readingArea,realistic,75,2023-03-22_14h09.59.024,tripletExp_regina_11082022,2022.2.4,120.30058625793056,
2,6,13,2,0.25,0.298245614035088,2,0.027777777777778,1.0,2,0.111111111111111,3.10526315789474,ReadingArea_rsl2-rcl25-esl29-rsm2-rcm2-esm100-rsr2-rcr11-esr310,exr/ReadingArea_rsl2-rcl25-esl29-rsm2-rcm2-esm100-rsr2-rcr11-esr310.exr,ReadingArea_rsl2-rcl25-esl29-rsm2-rcm2-esm100-rsr2-rcr11-esr310.npz,,,,,0,178,178,388,,left,green,2.13,1348.8078849315643,1349.173940896988,,3,,4,4,brightness,readingArea,realistic,75,2023-03-22_14h09.59.024,tripletExp_regina_11082022,2022.2.4,120.30058625793056,
6,13,0,2,0.027777777777778,1.0,2,0.111111111111111,3.10526315789474,2,0.027777777777778,0.298245614035088,ReadingArea_rsl2-rcl2-esl100-rsm2-rcm11-esm310-rsr2-rcr2-esr29,exr/ReadingArea_rsl2-rcl2-esl100-rsm2-rcm11-esm310-rsr2-rcr2-esr29.exr,ReadingArea_rsl2-rcl2-esl100-rsm2-rcm11-esm310-rsr2-rcr2-esr29.npz,,,,,0,179,179,580,,left,green,2.17,1352.6557109355929,1353.050589799881,,3,,4,4,brightness,readingArea,realistic,75,2023-03-22_14h09.59.024,tripletExp_regina_11082022,2022.2.4,120.30058625793056,
13,7,6,2,0.111111111111111,3.10526315789474,2,0.111111111111111,1.0,2,0.027777777777778,1.0,ReadingArea_rsl2-rcl11-esl310-rsm2-rcm11-esm100-rsr2-rcr2-esr100,exr/ReadingArea_rsl2-rcl11-esl310-rsm2-rcm11-esm100-rsr2-rcr2-esr100.exr,ReadingArea_rsl2-rcl11-esl310-rsm2-rcm11-esm100-rsr2-rcr2-esr100.npz,,,,,0,180,180,283,,left,green,3.91,1358.2824399471283,1358.7540049552915,,3,,4,4,brightness,readingArea,realistic,75,2023-03-22_14h09.59.024,tripletExp_regina_11082022,2022.2.4,120.30058625793056,
6,0,1,2,0.027777777777778,1.0,2,0.027777777777778,0.298245614035088,2,0.111111111111111,0.298245614035088,ReadingArea_rsl2-rcl2-esl100-rsm2-rcm2-esm29-rsr2-rcr11-esr29,exr/ReadingArea_rsl2-rcl2-esl100-rsm2-rcm2-esm29-rsr2-rcr11-esr29.exr,ReadingArea_rsl2-rcl2-esl100-rsm2-rcm2-esm29-rsr2-rcr11-esr29.npz,,,,,0,181,181,302,,left,green,1.97,1362.2425107955933,1362.6308908462524,,3,,4,4,brightness,readingArea,realistic,75,2023-03-22_14h09.59.024,tripletExp_regina_11082022,2022.2.4,120.30058625793056,
14,5,10,2,0.25,3.10526315789474,2,1.0,0.298245614035088,2,0.694444444444444,1.0,ReadingArea_rsl2-rcl25-esl310-rsm2-rcm100-esm29-rsr2-rcr69-esr100,exr/ReadingArea_rsl2-rcl25-esl310-rsm2-rcm100-esm29-rsr2-rcr69-esr100.exr,ReadingArea_rsl2-rcl25-esl310-rsm2-rcm100-esm29-rsr2-rcr69-esr100.npz,,,,,0,182,182,170,,right,red,2.06,1366.0792717933657,1366.453216791153,,3,,4,4,brightness,readingArea,realistic,75,2023-03-22_14h09.59.024,tripletExp_regina_11082022,2022.2.4,120.30058625793056,
8,6,0,2,0.25,1.0,2,0.027777777777778,1.0,2,0.027777777777778,0.298245614035088,ReadingArea_rsl2-rcl25-esl100-rsm2-rcm2-esm100-rsr2-rcr2-esr29,exr/ReadingArea_rsl2-rcl25-esl100-rsm2-rcm2-esm100-rsr2-rcr2-esr29.exr,ReadingArea_rsl2-rcl25-esl100-rsm2-rcm2-esm100-rsr2-rcr2-esr29.npz,,,,,0,183,183,187,,right,red,3.03,1369.9200439453125,1370.2812957763672,,3,,4,4,brightness,readingArea,realistic,75,2023-03-22_14h09.59.024,tripletExp_regina_11082022,2022.2.4,120.30058625793056,
2,6,0,2,0.25,0.298245614035088,2,0.027777777777778,1.0,2,0.027777777777778,0.298245614035088,ReadingArea_rsl2-rcl25-esl29-rsm2-rcm2-esm100-rsr2-rcr2-esr29,exr/ReadingArea_rsl2-rcl25-esl29-rsm2-rcm2-esm100-rsr2-rcr2-esr29.exr,ReadingArea_rsl2-rcl25-esl29-rsm2-rcm2-esm100-rsr2-rcr2-esr29.npz,,,,,0,184,184,525,,right,red,3.7,1375.5436029434204,1375.9143488407135,,3,,4,4,brightness,readingArea,realistic,75,2023-03-22_14h09.59.024,tripletExp_regina_11082022,2022.2.4,120.30058625793056,
6,11,7,2,0.027777777777778,1.0,2,1.0,1.0,2,0.111111111111111,1.0,ReadingArea_rsl2-rcl2-esl100-rsm2-rcm100-esm100-rsr2-rcr11-esr100,exr/ReadingArea_rsl2-rcl2-esl100-rsm2-rcm100-esm100-rsr2-rcr11-esr100.exr,ReadingArea_rsl2-rcl2-esl100-rsm2-rcm100-esm100-rsr2-rcr11-esr100.npz,,,,,0,185,185,571,,right,red,2.08,1379.4147818088531,1379.780336856842,,3,,4,4,brightness,readingArea,realistic,75,2023-03-22_14h09.59.024,tripletExp_regina_11082022,2022.2.4,120.30058625793056,
14,1,13,2,0.25,3.10526315789474,2,0.111111111111111,0.298245614035088,2,0.111111111111111,3.10526315789474,ReadingArea_rsl2-rcl25-esl310-rsm2-rcm11-esm29-rsr2-rcr11-esr310,exr/ReadingArea_rsl2-rcl25-esl310-rsm2-rcm11-esm29-rsr2-rcr11-esr310.exr,ReadingArea_rsl2-rcl25-esl310-rsm2-rcm11-esm29-rsr2-rcr11-esr310.npz,,,,,0,186,186,265,,right,red,1.78,1383.25638794899,1383.6333408355713,,3,,4,4,brightness,readingArea,realistic,75,2023-03-22_14h09.59.024,tripletExp_regina_11082022,2022.2.4,120.30058625793056,
10,6,13,2,0.694444444444444,1.0,2,0.027777777777778,1.0,2,0.111111111111111,3.10526315789474,ReadingArea_rsl2-rcl69-esl100-rsm2-rcm2-esm100-rsr2-rcr11-esr310,exr/ReadingArea_rsl2-rcl69-esl100-rsm2-rcm2-esm100-rsr2-rcr11-esr310.exr,ReadingArea_rsl2-rcl69-esl100-rsm2-rcm2-esm100-rsr2-rcr11-esr310.npz,,,,,0,187,187,41,,right,red,2.08,1387.074462890625,1387.4503819942474,,3,,4,4,brightness,readingArea,realistic,75,2023-03-22_14h09.59.024,tripletExp_regina_11082022,2022.2.4,120.30058625793056,
14,2,6,2,0.25,3.10526315789474,2,0.25,0.298245614035088,2,0.027777777777778,1.0,ReadingArea_rsl2-rcl25-esl310-rsm2-rcm25-esm29-rsr2-rcr2-esr100,exr/ReadingArea_rsl2-rcl25-esl310-rsm2-rcm25-esm29-rsr2-rcr2-esr100.exr,ReadingArea_rsl2-rcl25-esl310-rsm2-rcm25-esm29-rsr2-rcr2-esr100.npz,,,,,0,188,188,350,,right,red,1.05,1389.1447978019714,1389.523568868637,,3,,4,4,brightness,readingArea,realistic,75,2023-03-22_14h09.59.024,tripletExp_regina_11082022,2022.2.4,120.30058625793056,
10,5,4,2,0.694444444444444,1.0,2,1.0,0.298245614035088,2,0.694444444444444,0.298245614035088,ReadingArea_rsl2-rcl69-esl100-rsm2-rcm100-esm29-rsr2-rcr69-esr29,exr/ReadingArea_rsl2-rcl69-esl100-rsm2-rcm100-esm29-rsr2-rcr69-esr29.exr,ReadingArea_rsl2-rcl69-esl100-rsm2-rcm100-esm29-rsr2-rcr69-esr29.npz,,,,,0,189,189,455,,right,red,0.95,1391.2267999649048,1391.6092109680176,,3,,4,4,brightness,readingArea,realistic,75,2023-03-22_14h09.59.024,tripletExp_regina_11082022,2022.2.4,120.30058625793056,
5,11,8,2,1.0,0.298245614035088,2,1.0,1.0,2,0.25,1.0,ReadingArea_rsl2-rcl100-esl29-rsm2-rcm100-esm100-rsr2-rcr25-esr100,exr/ReadingArea_rsl2-rcl100-esl29-rsm2-rcm100-esm100-rsr2-rcr25-esr100.exr,ReadingArea_rsl2-rcl100-esl29-rsm2-rcm100-esm100-rsr2-rcr25-esr100.npz,,,,,0,190,190,548,,right,red,2.58,1395.0880007743835,1395.478022813797,,3,,4,4,brightness,readingArea,realistic,75,2023-03-22_14h09.59.024,tripletExp_regina_11082022,2022.2.4,120.30058625793056,
3,14,12,2,0.444444444444444,0.298245614035088,2,0.25,3.10526315789474,2,0.027777777777778,3.10526315789474,ReadingArea_rsl2-rcl44-esl29-rsm2-rcm25-esm310-rsr2-rcr2-esr310,exr/ReadingArea_rsl2-rcl44-esl29-rsm2-rcm25-esm310-rsr2-rcr2-esr310.exr,ReadingArea_rsl2-rcl44-esl29-rsm2-rcm25-esm310-rsr2-rcr2-esr310.npz,,,,,0,191,191,336,,left,green,2.25,1398.9660167694092,1399.3487408161163,,3,,4,4,brightness,readingArea,realistic,75,2023-03-22_14h09.59.024,tripletExp_regina_11082022,2022.2.4,120.30058625793056,
4,14,12,2,0.694444444444444,0.298245614035088,2,0.25,3.10526315789474,2,0.027777777777778,3.10526315789474,ReadingArea_rsl2-rcl69-esl29-rsm2-rcm25-esm310-rsr2-rcr2-esr310,exr/ReadingArea_rsl2-rcl69-esl29-rsm2-rcm25-esm310-rsr2-rcr2-esr310.exr,ReadingArea_rsl2-rcl69-esl29-rsm2-rcm25-esm310-rsr2-rcr2-esr310.npz,,,,,0,192,192,392,,left,green,2.58,1402.806949853897,1403.2030909061432,,3,,4,4,brightness,readingArea,realistic,75,2023-03-22_14h09.59.024,tripletExp_regina_11082022,2022.2.4,120.30058625793056,
2,4,14,2,0.25,0.298245614035088,2,0.694444444444444,0.298245614035088,2,0.25,3.10526315789474,ReadingArea_rsl2-rcl25-esl29-rsm2-rcm69-esm29-rsr2-rcr25-esr310,exr/ReadingArea_rsl2-rcl25-esl29-rsm2-rcm69-esm29-rsr2-rcr25-esr310.exr,ReadingArea_rsl2-rcl25-esl29-rsm2-rcm69-esm29-rsr2-rcr25-esr310.npz,,,,,0,193,193,356,,left,green,3.02,1406.6922888755798,1407.0725779533386,,3,,4,4,brightness,readingArea,realistic,75,2023-03-22_14h09.59.024,tripletExp_regina_11082022,2022.2.4,120.30058625793056,
6,0,10,2,0.027777777777778,1.0,2,0.027777777777778,0.298245614035088,2,0.694444444444444,1.0,ReadingArea_rsl2-rcl2-esl100-rsm2-rcm2-esm29-rsr2-rcr69-esr100,exr/ReadingArea_rsl2-rcl2-esl100-rsm2-rcm2-esm29-rsr2-rcr69-esr100.exr,ReadingArea_rsl2-rcl2-esl100-rsm2-rcm2-esm29-rsr2-rcr69-esr100.npz,,,,,0,194,194,532,,left,green,1.17,1408.7772798538208,1409.1690909862518,,3,,4,4,brightness,readingArea,realistic,75,2023-03-22_14h09.59.024,tripletExp_regina_11082022,2022.2.4,120.30058625793056,
14,10,9,2,0.25,3.10526315789474,2,0.694444444444444,1.0,2,0.444444444444444,1.0,ReadingArea_rsl2-rcl25-esl310-rsm2-rcm69-esm100-rsr2-rcr44-esr100,exr/ReadingArea_rsl2-rcl25-esl310-rsm2-rcm69-esm100-rsr2-rcr44-esr100.exr,ReadingArea_rsl2-rcl25-esl310-rsm2-rcm69-esm100-rsr2-rcr44-esr100.npz,,,,,0,195,195,402,,left,green,3.03,1412.6752388477323,1413.0642318725586,,3,,4,4,brightness,readingArea,realistic,75,2023-03-22_14h09.59.024,tripletExp_regina_11082022,2022.2.4,120.30058625793056,
5,2,7,2,1.0,0.298245614035088,2,0.25,0.298245614035088,2,0.111111111111111,1.0,ReadingArea_rsl2-rcl100-esl29-rsm2-rcm25-esm29-rsr2-rcr11-esr100,exr/ReadingArea_rsl2-rcl100-esl29-rsm2-rcm25-esm29-rsr2-rcr11-esr100.exr,ReadingArea_rsl2-rcl100-esl29-rsm2-rcm25-esm29-rsr2-rcr11-esr100.npz,,,,,0,196,196,179,,right,red,1.18,1414.7657017707825,1415.1606068611145,,3,,4,4,brightness,readingArea,realistic,75,2023-03-22_14h09.59.024,tripletExp_regina_11082022,2022.2.4,120.30058625793056,
6,4,13,2,0.027777777777778,1.0,2,0.694444444444444,0.298245614035088,2,0.111111111111111,3.10526315789474,ReadingArea_rsl2-rcl2-esl100-rsm2-rcm69-esm29-rsr2-rcr11-esr310,exr/ReadingArea_rsl2-rcl2-esl100-rsm2-rcm69-esm29-rsr2-rcr11-esr310.exr,ReadingArea_rsl2-rcl2-esl100-rsm2-rcm69-esm29-rsr2-rcr11-esr310.npz,,,,,0,197,197,202,,right,red,2.06,1418.6111857891085,1418.9896578788755,,3,,4,4,brightness,readingArea,realistic,75,2023-03-22_14h09.59.024,tripletExp_regina_11082022,2022.2.4,120.30058625793056,
8,1,3,2,0.25,1.0,2,0.111111111111111,0.298245614035088,2,0.444444444444444,0.298245614035088,ReadingArea_rsl2-rcl25-esl100-rsm2-rcm11-esm29-rsr2-rcr44-esr29,exr/ReadingArea_rsl2-rcl25-esl100-rsm2-rcm11-esm29-rsr2-rcr44-esr29.exr,ReadingArea_rsl2-rcl25-esl100-rsm2-rcm11-esm29-rsr2-rcr44-esr29.npz,,,,,0,198,198,490,,right,red,2.71,1422.4437408447266,1422.8247997760773,,3,,4,4,brightness,readingArea,realistic,75,2023-03-22_14h09.59.024,tripletExp_regina_11082022,2022.2.4,120.30058625793056,
6,2,5,2,0.027777777777778,1.0,2,0.25,0.298245614035088,2,1.0,0.298245614035088,ReadingArea_rsl2-rcl2-esl100-rsm2-rcm25-esm29-rsr2-rcr100-esr29,exr/ReadingArea_rsl2-rcl2-esl100-rsm2-rcm25-esm29-rsr2-rcr100-esr29.exr,ReadingArea_rsl2-rcl2-esl100-rsm2-rcm25-esm29-rsr2-rcr100-esr29.npz,,,,,0,199,199,504,,left,green,2.94,1426.303547859192,1426.6770768165588,,3,,4,4,brightness,readingArea,realistic,75,2023-03-22_14h09.59.024,tripletExp_regina_11082022,2022.2.4,120.30058625793056,
10,3,1,2,0.694444444444444,1.0,2,0.444444444444444,0.298245614035088,2,0.111111111111111,0.298245614035088,ReadingArea_rsl2-rcl69-esl100-rsm2-rcm44-esm29-rsr2-rcr11-esr29,exr/ReadingArea_rsl2-rcl69-esl100-rsm2-rcm44-esm29-rsr2-rcr11-esr29.exr,ReadingArea_rsl2-rcl69-esl100-rsm2-rcm44-esm29-rsr2-rcr11-esr29.npz,,,,,0,200,200,420,,right,red,2.24,1430.1508588790894,,,3,,4,4,brightness,readingArea,realistic,75,2023-03-22_14h09.59.024,tripletExp_regina_11082022,2022.2.4,120.30058625793056,
11,5,8,2,1.0,1.0,2,1.0,0.298245614035088,2,0.25,1.0,ReadingArea_rsl2-rcl100-esl100-rsm2-rcm100-esm29-rsr2-rcr25-esr100,exr/ReadingArea_rsl2-rcl100-esl100-rsm2-rcm100-esm29-rsr2-rcr25-esr100.exr,ReadingArea_rsl2-rcl100-esl100-rsm2-rcm100-esm29-rsr2-rcr25-esr100.npz,,,,,0,201,201,86,,right,red,0.99,1432.2323248386383,1432.6210038661957,,3,,4,4,brightness,readingArea,realistic,75,2023-03-22_14h09.59.024,tripletExp_regina_11082022,2022.2.4,120.30058625793056,
6,11,3,2,0.027777777777778,1.0,2,1.0,1.0,2,0.444444444444444,0.298245614035088,ReadingArea_rsl2-rcl2-esl100-rsm2-rcm100-esm100-rsr2-rcr44-esr29,exr/ReadingArea_rsl2-rcl2-esl100-rsm2-rcm100-esm100-rsr2-rcr44-esr29.exr,ReadingArea_rsl2-rcl2-esl100-rsm2-rcm100-esm100-rsr2-rcr44-esr29.npz,,,,,0,202,202,11,,right,red,1.91,1436.1058089733124,1436.4981408119202,,3,,4,4,brightness,readingArea,realistic,75,2023-03-22_14h09.59.024,tripletExp_regina_11082022,2022.2.4,120.30058625793056,
