index_left,index_middle,index_right,reflectance_surround_left,reflectance_center_left,emission_spot_left,reflectance_surround_middle,reflectance_center_middle,emission_spot_middle,reflectance_surround_right,reflectance_center_right,emission_spot_right,ImageName,ImageExr,ImageNpy,trials_2.thisRepN,trials_2.thisTrialN,trials_2.thisN,trials_2.thisIndex,trials.thisRepN,trials.thisTrialN,trials.thisN,trials.thisIndex,sound_1.started,BB_Trial.resp,BB_Trial.color,BB_Trial.rt,text.started,text.stopped,sound_2.started,block,sound_4.started,participant,session,L/B,scene,condition,nTrialsPerBlock,date,expName,psychopyVersion,frameRate,Unnamed: 42
10,3,0,0,0.694444444444444,1.0,0,0.444444444444444,0.298245614035088,0,0.027777777777778,0.298245614035088,ReadingArea_rsl0-rcl69-esl100-rsm0-rcm44-esm29-rsr0-rcr2-esr29,exr/ReadingArea_rsl0-rcl69-esl100-rsm0-rcm44-esm29-rsr0-rcr2-esr29.exr,ReadingArea_rsl0-rcl69-esl100-rsm0-rcm44-esm29-rsr0-rcr2-esr29.npz,,,,,0,0,0,203,125.8313798904419,right,red,1.22,151.78463411331177,152.2388401031494,90.88693690299988,1,,6,4,lightness,readingArea,realistic,75,2023-03-23_15h43.10.507,tripletExp_regina_11082022,2022.2.4,120.08841348191072,
5,14,11,0,1.0,0.298245614035088,0,0.25,3.10526315789474,0,1.0,1.0,ReadingArea_rsl0-rcl100-esl29-rsm0-rcm25-esm310-rsr0-rcr100-esr100,exr/ReadingArea_rsl0-rcl100-esl29-rsm0-rcm25-esm310-rsr0-rcr100-esr100.exr,ReadingArea_rsl0-rcl100-esl29-rsm0-rcm25-esm310-rsr0-rcr100-esr100.npz,,,,,0,1,1,98,,left,green,1.4,153.9676501750946,154.4702081680298,,1,,6,4,lightness,readingArea,realistic,75,2023-03-23_15h43.10.507,tripletExp_regina_11082022,2022.2.4,120.08841348191072,
13,6,10,0,0.111111111111111,3.10526315789474,0,0.027777777777778,1.0,0,0.694444444444444,1.0,ReadingArea_rsl0-rcl11-esl310-rsm0-rcm2-esm100-rsr0-rcr69-esr100,exr/ReadingArea_rsl0-rcl11-esl310-rsm0-rcm2-esm100-rsr0-rcr69-esr100.exr,ReadingArea_rsl0-rcl11-esl310-rsm0-rcm2-esm100-rsr0-rcr69-esr100.npz,,,,,0,2,2,593,,left,green,1.34,156.18360710144043,156.67667317390442,,1,,6,4,lightness,readingArea,realistic,75,2023-03-23_15h43.10.507,tripletExp_regina_11082022,2022.2.4,120.08841348191072,
12,8,9,0,0.027777777777778,3.10526315789474,0,0.25,1.0,0,0.444444444444444,1.0,ReadingArea_rsl0-rcl2-esl310-rsm0-rcm25-esm100-rsr0-rcr44-esr100,exr/ReadingArea_rsl0-rcl2-esl310-rsm0-rcm25-esm100-rsr0-rcr44-esr100.exr,ReadingArea_rsl0-rcl2-esl310-rsm0-rcm25-esm100-rsr0-rcr44-esr100.npz,,,,,0,3,3,517,,right,red,1.42,158.39320516586304,158.83901405334473,,1,,6,4,lightness,readingArea,realistic,75,2023-03-23_15h43.10.507,tripletExp_regina_11082022,2022.2.4,120.08841348191072,
13,10,9,0,0.111111111111111,3.10526315789474,0,0.694444444444444,1.0,0,0.444444444444444,1.0,ReadingArea_rsl0-rcl11-esl310-rsm0-rcm69-esm100-rsr0-rcr44-esr100,exr/ReadingArea_rsl0-rcl11-esl310-rsm0-rcm69-esm100-rsr0-rcr44-esr100.exr,ReadingArea_rsl0-rcl11-esl310-rsm0-rcm69-esm100-rsr0-rcr44-esr100.npz,,,,,0,4,4,330,,right,red,1.3,160.56404614448547,161.0802731513977,,1,,6,4,lightness,readingArea,realistic,75,2023-03-23_15h43.10.507,tripletExp_regina_11082022,2022.2.4,120.08841348191072,
1,13,14,0,0.111111111111111,0.298245614035088,0,0.111111111111111,3.10526315789474,0,0.25,3.10526315789474,ReadingArea_rsl0-rcl11-esl29-rsm0-rcm11-esm310-rsr0-rcr25-esr310,exr/ReadingArea_rsl0-rcl11-esl29-rsm0-rcm11-esm310-rsr0-rcr25-esr310.exr,ReadingArea_rsl0-rcl11-esl29-rsm0-rcm11-esm310-rsr0-rcr25-esr310.npz,,,,,0,5,5,183,,right,red,3.04,164.55062007904053,165.00108814239502,,1,,6,4,lightness,readingArea,realistic,75,2023-03-23_15h43.10.507,tripletExp_regina_11082022,2022.2.4,120.08841348191072,
2,14,9,0,0.25,0.298245614035088,0,0.25,3.10526315789474,0,0.444444444444444,1.0,ReadingArea_rsl0-rcl25-esl29-rsm0-rcm25-esm310-rsr0-rcr44-esr100,exr/ReadingArea_rsl0-rcl25-esl29-rsm0-rcm25-esm310-rsr0-rcr44-esr100.exr,ReadingArea_rsl0-rcl25-esl29-rsm0-rcm25-esm310-rsr0-rcr44-esr100.npz,,,,,0,6,6,51,,right,red,1.22,166.70437216758728,167.18392610549927,,1,,6,4,lightness,readingArea,realistic,75,2023-03-23_15h43.10.507,tripletExp_regina_11082022,2022.2.4,120.08841348191072,
14,0,9,0,0.25,3.10526315789474,0,0.027777777777778,0.298245614035088,0,0.444444444444444,1.0,ReadingArea_rsl0-rcl25-esl310-rsm0-rcm2-esm29-rsr0-rcr44-esr100,exr/ReadingArea_rsl0-rcl25-esl310-rsm0-rcm2-esm29-rsr0-rcr44-esr100.exr,ReadingArea_rsl0-rcl25-esl310-rsm0-rcm2-esm29-rsr0-rcr44-esr100.npz,,,,,0,7,7,90,,right,red,2.42,170.6556839942932,171.10699200630188,,1,,6,4,lightness,readingArea,realistic,75,2023-03-23_15h43.10.507,tripletExp_regina_11082022,2022.2.4,120.08841348191072,
8,13,9,0,0.25,1.0,0,0.111111111111111,3.10526315789474,0,0.444444444444444,1.0,ReadingArea_rsl0-rcl25-esl100-rsm0-rcm11-esm310-rsr0-rcr44-esr100,exr/ReadingArea_rsl0-rcl25-esl100-rsm0-rcm11-esm310-rsr0-rcr44-esr100.exr,ReadingArea_rsl0-rcl25-esl100-rsm0-rcm11-esm310-rsr0-rcr44-esr100.npz,,,,,0,8,8,487,,left,green,2.2,174.5686421394348,175.01495718955994,,1,,6,4,lightness,readingArea,realistic,75,2023-03-23_15h43.10.507,tripletExp_regina_11082022,2022.2.4,120.08841348191072,
6,0,11,0,0.027777777777778,1.0,0,0.027777777777778,0.298245614035088,0,1.0,1.0,ReadingArea_rsl0-rcl2-esl100-rsm0-rcm2-esm29-rsr0-rcr100-esr100,exr/ReadingArea_rsl0-rcl2-esl100-rsm0-rcm2-esm29-rsr0-rcr100-esr100.exr,ReadingArea_rsl0-rcl2-esl100-rsm0-rcm2-esm29-rsr0-rcr100-esr100.npz,,,,,0,9,9,245,,left,green,0.9,176.74072313308716,177.29962015151978,,1,,6,4,lightness,readingArea,realistic,75,2023-03-23_15h43.10.507,tripletExp_regina_11082022,2022.2.4,120.08841348191072,
0,9,6,0,0.027777777777778,0.298245614035088,0,0.444444444444444,1.0,0,0.027777777777778,1.0,ReadingArea_rsl0-rcl2-esl29-rsm0-rcm44-esm100-rsr0-rcr2-esr100,exr/ReadingArea_rsl0-rcl2-esl29-rsm0-rcm44-esm100-rsr0-rcr2-esr100.exr,ReadingArea_rsl0-rcl2-esl29-rsm0-rcm44-esm100-rsr0-rcr2-esr100.npz,,,,,0,10,10,365,,right,red,1.3,179.001944065094,179.44929313659668,,1,,6,4,lightness,readingArea,realistic,75,2023-03-23_15h43.10.507,tripletExp_regina_11082022,2022.2.4,120.08841348191072,
12,6,2,0,0.027777777777778,3.10526315789474,0,0.027777777777778,1.0,0,0.25,0.298245614035088,ReadingArea_rsl0-rcl2-esl310-rsm0-rcm2-esm100-rsr0-rcr25-esr29,exr/ReadingArea_rsl0-rcl2-esl310-rsm0-rcm2-esm100-rsr0-rcr25-esr29.exr,ReadingArea_rsl0-rcl2-esl310-rsm0-rcm2-esm100-rsr0-rcr25-esr29.npz,,,,,0,11,11,106,,left,green,2.46,182.95292401313785,183.3939070701599,,1,,6,4,lightness,readingArea,realistic,75,2023-03-23_15h43.10.507,tripletExp_regina_11082022,2022.2.4,120.08841348191072,
8,10,7,0,0.25,1.0,0,0.694444444444444,1.0,0,0.111111111111111,1.0,ReadingArea_rsl0-rcl25-esl100-rsm0-rcm69-esm100-rsr0-rcr11-esr100,exr/ReadingArea_rsl0-rcl25-esl100-rsm0-rcm69-esm100-rsr0-rcr11-esr100.exr,ReadingArea_rsl0-rcl25-esl100-rsm0-rcm69-esm100-rsr0-rcr11-esr100.npz,,,,,0,12,12,424,,left,green,0.94,185.0928761959076,185.5173871517181,,1,,6,4,lightness,readingArea,realistic,75,2023-03-23_15h43.10.507,tripletExp_regina_11082022,2022.2.4,120.08841348191072,
6,11,14,0,0.027777777777778,1.0,0,1.0,1.0,0,0.25,3.10526315789474,ReadingArea_rsl0-rcl2-esl100-rsm0-rcm100-esm100-rsr0-rcr25-esr310,exr/ReadingArea_rsl0-rcl2-esl100-rsm0-rcm100-esm100-rsr0-rcr25-esr310.exr,ReadingArea_rsl0-rcl2-esl100-rsm0-rcm100-esm100-rsr0-rcr25-esr310.npz,,,,,0,13,13,262,,right,red,1.21,187.21395802497864,187.7593080997467,,1,,6,4,lightness,readingArea,realistic,75,2023-03-23_15h43.10.507,tripletExp_regina_11082022,2022.2.4,120.08841348191072,
4,9,13,0,0.694444444444444,0.298245614035088,0,0.444444444444444,1.0,0,0.111111111111111,3.10526315789474,ReadingArea_rsl0-rcl69-esl29-rsm0-rcm44-esm100-rsr0-rcr11-esr310,exr/ReadingArea_rsl0-rcl69-esl29-rsm0-rcm44-esm100-rsr0-rcr11-esr310.exr,ReadingArea_rsl0-rcl69-esl29-rsm0-rcm44-esm100-rsr0-rcr11-esr310.npz,,,,,0,14,14,488,,left,green,1.22,189.45093321800232,189.90817999839783,,1,,6,4,lightness,readingArea,realistic,75,2023-03-23_15h43.10.507,tripletExp_regina_11082022,2022.2.4,120.08841348191072,
9,0,14,0,0.444444444444444,1.0,0,0.027777777777778,0.298245614035088,0,0.25,3.10526315789474,ReadingArea_rsl0-rcl44-esl100-rsm0-rcm2-esm29-rsr0-rcr25-esr310,exr/ReadingArea_rsl0-rcl44-esl100-rsm0-rcm2-esm29-rsr0-rcr25-esr310.exr,ReadingArea_rsl0-rcl44-esl100-rsm0-rcm2-esm29-rsr0-rcr25-esr310.npz,,,,,0,15,15,550,,left,green,2.52,193.37986421585083,193.82216715812683,,1,,6,4,lightness,readingArea,realistic,75,2023-03-23_15h43.10.507,tripletExp_regina_11082022,2022.2.4,120.08841348191072,
13,2,4,0,0.111111111111111,3.10526315789474,0,0.25,0.298245614035088,0,0.694444444444444,0.298245614035088,ReadingArea_rsl0-rcl11-esl310-rsm0-rcm25-esm29-rsr0-rcr69-esr29,exr/ReadingArea_rsl0-rcl11-esl310-rsm0-rcm25-esm29-rsr0-rcr69-esr29.exr,ReadingArea_rsl0-rcl11-esl310-rsm0-rcm25-esm29-rsr0-rcr69-esr29.npz,,,,,0,16,16,307,,right,red,2.73,197.3023362159729,197.76392006874084,,1,,6,4,lightness,readingArea,realistic,75,2023-03-23_15h43.10.507,tripletExp_regina_11082022,2022.2.4,120.08841348191072,
4,8,0,0,0.694444444444444,0.298245614035088,0,0.25,1.0,0,0.027777777777778,0.298245614035088,ReadingArea_rsl0-rcl69-esl29-rsm0-rcm25-esm100-rsr0-rcr2-esr29,exr/ReadingArea_rsl0-rcl69-esl29-rsm0-rcm25-esm100-rsr0-rcr2-esr29.exr,ReadingArea_rsl0-rcl69-esl29-rsm0-rcm25-esm100-rsr0-rcr2-esr29.npz,,,,,0,17,17,137,,left,green,1.14,199.4852101802826,199.92276906967163,,1,,6,4,lightness,readingArea,realistic,75,2023-03-23_15h43.10.507,tripletExp_regina_11082022,2022.2.4,120.08841348191072,
4,14,12,0,0.694444444444444,0.298245614035088,0,0.25,3.10526315789474,0,0.027777777777778,3.10526315789474,ReadingArea_rsl0-rcl69-esl29-rsm0-rcm25-esm310-rsr0-rcr2-esr310,exr/ReadingArea_rsl0-rcl69-esl29-rsm0-rcm25-esm310-rsr0-rcr2-esr310.exr,ReadingArea_rsl0-rcl69-esl29-rsm0-rcm25-esm310-rsr0-rcr2-esr310.npz,,,,,0,18,18,392,,left,green,1.02,201.6141700744629,202.06983017921448,,1,,6,4,lightness,readingArea,realistic,75,2023-03-23_15h43.10.507,tripletExp_regina_11082022,2022.2.4,120.08841348191072,
11,5,8,0,1.0,1.0,0,1.0,0.298245614035088,0,0.25,1.0,ReadingArea_rsl0-rcl100-esl100-rsm0-rcm100-esm29-rsr0-rcr25-esr100,exr/ReadingArea_rsl0-rcl100-esl100-rsm0-rcm100-esm29-rsr0-rcr25-esr100.exr,ReadingArea_rsl0-rcl100-esl100-rsm0-rcm100-esm29-rsr0-rcr25-esr100.npz,,,,,0,19,19,86,,right,red,2.82,205.5221350193024,,,1,,6,4,lightness,readingArea,realistic,75,2023-03-23_15h43.10.507,tripletExp_regina_11082022,2022.2.4,120.08841348191072,
0,8,9,0,0.027777777777778,0.298245614035088,0,0.25,1.0,0,0.444444444444444,1.0,ReadingArea_rsl0-rcl2-esl29-rsm0-rcm25-esm100-rsr0-rcr44-esr100,exr/ReadingArea_rsl0-rcl2-esl29-rsm0-rcm25-esm100-rsr0-rcr44-esr100.exr,ReadingArea_rsl0-rcl2-esl29-rsm0-rcm25-esm100-rsr0-rcr44-esr100.npz,,,,,0,20,20,541,,right,red,1.02,207.71707010269165,208.15582919120789,,1,,6,4,lightness,readingArea,realistic,75,2023-03-23_15h43.10.507,tripletExp_regina_11082022,2022.2.4,120.08841348191072,
1,14,0,0,0.111111111111111,0.298245614035088,0,0.25,3.10526315789474,0,0.027777777777778,0.298245614035088,ReadingArea_rsl0-rcl11-esl29-rsm0-rcm25-esm310-rsr0-rcr2-esr29,exr/ReadingArea_rsl0-rcl11-esl29-rsm0-rcm25-esm310-rsr0-rcr2-esr29.exr,ReadingArea_rsl0-rcl11-esl29-rsm0-rcm25-esm310-rsr0-rcr2-esr29.npz,,,,,0,21,21,394,,left,green,2.46,211.6231701374054,,,1,,6,4,lightness,readingArea,realistic,75,2023-03-23_15h43.10.507,tripletExp_regina_11082022,2022.2.4,120.08841348191072,
2,1,14,0,0.25,0.298245614035088,0,0.111111111111111,0.298245614035088,0,0.25,3.10526315789474,ReadingArea_rsl0-rcl25-esl29-rsm0-rcm11-esm29-rsr0-rcr25-esr310,exr/ReadingArea_rsl0-rcl25-esl29-rsm0-rcm11-esm29-rsr0-rcr25-esr310.exr,ReadingArea_rsl0-rcl25-esl29-rsm0-rcm11-esm29-rsr0-rcr25-esr310.npz,,,,,0,22,22,59,,left,green,2.8,215.56720805168152,216.0293650627136,,1,,6,4,lightness,readingArea,realistic,75,2023-03-23_15h43.10.507,tripletExp_regina_11082022,2022.2.4,120.08841348191072,
12,13,14,0,0.027777777777778,3.10526315789474,0,0.111111111111111,3.10526315789474,0,0.25,3.10526315789474,ReadingArea_rsl0-rcl2-esl310-rsm0-rcm11-esm310-rsr0-rcr25-esr310,exr/ReadingArea_rsl0-rcl2-esl310-rsm0-rcm11-esm310-rsr0-rcr25-esr310.exr,ReadingArea_rsl0-rcl2-esl310-rsm0-rcm11-esm310-rsr0-rcr25-esr310.npz,,,,,0,23,23,208,,left,green,2.63,219.52885603904724,219.9725551605225,,1,,6,4,lightness,readingArea,realistic,75,2023-03-23_15h43.10.507,tripletExp_regina_11082022,2022.2.4,120.08841348191072,
10,3,1,0,0.694444444444444,1.0,0,0.444444444444444,0.298245614035088,0,0.111111111111111,0.298245614035088,ReadingArea_rsl0-rcl69-esl100-rsm0-rcm44-esm29-rsr0-rcr11-esr29,exr/ReadingArea_rsl0-rcl69-esl100-rsm0-rcm44-esm29-rsr0-rcr11-esr29.exr,ReadingArea_rsl0-rcl69-esl100-rsm0-rcm44-esm29-rsr0-rcr11-esr29.npz,,,,,0,24,24,420,,right,red,3.05,223.46012711524963,223.93069100379944,,1,,6,4,lightness,readingArea,realistic,75,2023-03-23_15h43.10.507,tripletExp_regina_11082022,2022.2.4,120.08841348191072,
2,5,3,0,0.25,0.298245614035088,0,1.0,0.298245614035088,0,0.444444444444444,0.298245614035088,ReadingArea_rsl0-rcl25-esl29-rsm0-rcm100-esm29-rsr0-rcr44-esr29,exr/ReadingArea_rsl0-rcl25-esl29-rsm0-rcm100-esm29-rsr0-rcr44-esr29.exr,ReadingArea_rsl0-rcl25-esl29-rsm0-rcm100-esm29-rsr0-rcr44-esr29.npz,,,,,0,25,25,135,,right,red,1.4,225.6447951793671,226.08692502975464,,1,,6,4,lightness,readingArea,realistic,75,2023-03-23_15h43.10.507,tripletExp_regina_11082022,2022.2.4,120.08841348191072,
2,4,14,0,0.25,0.298245614035088,0,0.694444444444444,0.298245614035088,0,0.25,3.10526315789474,ReadingArea_rsl0-rcl25-esl29-rsm0-rcm69-esm29-rsr0-rcr25-esr310,exr/ReadingArea_rsl0-rcl25-esl29-rsm0-rcm69-esm29-rsr0-rcr25-esr310.exr,ReadingArea_rsl0-rcl25-esl29-rsm0-rcm69-esm29-rsr0-rcr25-esr310.npz,,,,,0,26,26,356,,left,green,2.98,229.56369709968567,230.04097414016724,,1,,6,4,lightness,readingArea,realistic,75,2023-03-23_15h43.10.507,tripletExp_regina_11082022,2022.2.4,120.08841348191072,
11,8,7,0,1.0,1.0,0,0.25,1.0,0,0.111111111111111,1.0,ReadingArea_rsl0-rcl100-esl100-rsm0-rcm25-esm100-rsr0-rcr11-esr100,exr/ReadingArea_rsl0-rcl100-esl100-rsm0-rcm25-esm100-rsr0-rcr11-esr100.exr,ReadingArea_rsl0-rcl100-esl100-rsm0-rcm25-esm100-rsr0-rcr11-esr100.npz,,,,,0,27,27,105,,right,red,2.88,233.5119071006775,233.9623110294342,,1,,6,4,lightness,readingArea,realistic,75,2023-03-23_15h43.10.507,tripletExp_regina_11082022,2022.2.4,120.08841348191072,
13,0,12,0,0.111111111111111,3.10526315789474,0,0.027777777777778,0.298245614035088,0,0.027777777777778,3.10526315789474,ReadingArea_rsl0-rcl11-esl310-rsm0-rcm2-esm29-rsr0-rcr2-esr310,exr/ReadingArea_rsl0-rcl11-esl310-rsm0-rcm2-esm29-rsr0-rcr2-esr310.exr,ReadingArea_rsl0-rcl11-esl310-rsm0-rcm2-esm29-rsr0-rcr2-esr310.npz,,,,,0,28,28,56,,right,red,2.82,237.437560081482,237.89661717414856,,1,,6,4,lightness,readingArea,realistic,75,2023-03-23_15h43.10.507,tripletExp_regina_11082022,2022.2.4,120.08841348191072,
11,12,1,0,1.0,1.0,0,0.027777777777778,3.10526315789474,0,0.111111111111111,0.298245614035088,ReadingArea_rsl0-rcl100-esl100-rsm0-rcm2-esm310-rsr0-rcr11-esr29,exr/ReadingArea_rsl0-rcl100-esl100-rsm0-rcm2-esm310-rsr0-rcr11-esr29.exr,ReadingArea_rsl0-rcl100-esl100-rsm0-rcm2-esm310-rsr0-rcr11-esr29.npz,,,,,0,29,29,140,,right,red,0.93,239.6197941303253,240.07357001304624,,1,,6,4,lightness,readingArea,realistic,75,2023-03-23_15h43.10.507,tripletExp_regina_11082022,2022.2.4,120.08841348191072,
11,7,14,0,1.0,1.0,0,0.111111111111111,1.0,0,0.25,3.10526315789474,ReadingArea_rsl0-rcl100-esl100-rsm0-rcm11-esm100-rsr0-rcr25-esr310,exr/ReadingArea_rsl0-rcl100-esl100-rsm0-rcm11-esm100-rsr0-rcr25-esr310.exr,ReadingArea_rsl0-rcl100-esl100-rsm0-rcm11-esm100-rsr0-rcr25-esr310.npz,,,,,0,30,30,119,,right,red,1.24,241.776141166687,242.22032809257507,,1,,6,4,lightness,readingArea,realistic,75,2023-03-23_15h43.10.507,tripletExp_regina_11082022,2022.2.4,120.08841348191072,
3,6,13,0,0.444444444444444,0.298245614035088,0,0.027777777777778,1.0,0,0.111111111111111,3.10526315789474,ReadingArea_rsl0-rcl44-esl29-rsm0-rcm2-esm100-rsr0-rcr11-esr310,exr/ReadingArea_rsl0-rcl44-esl29-rsm0-rcm2-esm100-rsr0-rcr11-esr310.exr,ReadingArea_rsl0-rcl44-esl29-rsm0-rcm2-esm100-rsr0-rcr11-esr310.npz,,,,,0,31,31,449,,left,green,2.74,245.69045400619507,246.13750314712524,,1,,6,4,lightness,readingArea,realistic,75,2023-03-23_15h43.10.507,tripletExp_regina_11082022,2022.2.4,120.08841348191072,
1,14,7,0,0.111111111111111,0.298245614035088,0,0.25,3.10526315789474,0,0.111111111111111,1.0,ReadingArea_rsl0-rcl11-esl29-rsm0-rcm25-esm310-rsr0-rcr11-esr100,exr/ReadingArea_rsl0-rcl11-esl29-rsm0-rcm25-esm310-rsr0-rcr11-esr100.exr,ReadingArea_rsl0-rcl11-esl29-rsm0-rcm25-esm310-rsr0-rcr11-esr100.npz,,,,,0,32,32,583,,right,red,1.4,247.84919118881223,248.2744381427765,,1,,6,4,lightness,readingArea,realistic,75,2023-03-23_15h43.10.507,tripletExp_regina_11082022,2022.2.4,120.08841348191072,
5,10,12,0,1.0,0.298245614035088,0,0.694444444444444,1.0,0,0.027777777777778,3.10526315789474,ReadingArea_rsl0-rcl100-esl29-rsm0-rcm69-esm100-rsr0-rcr2-esr310,exr/ReadingArea_rsl0-rcl100-esl29-rsm0-rcm69-esm100-rsr0-rcr2-esr310.exr,ReadingArea_rsl0-rcl100-esl29-rsm0-rcm69-esm100-rsr0-rcr2-esr310.npz,,,,,0,33,33,587,,left,green,2.41,251.75430512428284,,,1,,6,4,lightness,readingArea,realistic,75,2023-03-23_15h43.10.507,tripletExp_regina_11082022,2022.2.4,120.08841348191072,
14,11,3,0,0.25,3.10526315789474,0,1.0,1.0,0,0.444444444444444,0.298245614035088,ReadingArea_rsl0-rcl25-esl310-rsm0-rcm100-esm100-rsr0-rcr44-esr29,exr/ReadingArea_rsl0-rcl25-esl310-rsm0-rcm100-esm100-rsr0-rcr44-esr29.exr,ReadingArea_rsl0-rcl25-esl310-rsm0-rcm100-esm100-rsr0-rcr44-esr29.npz,,,,,0,34,34,78,,left,green,1.39,253.92686414718628,254.37034702301025,,1,,6,4,lightness,readingArea,realistic,75,2023-03-23_15h43.10.507,tripletExp_regina_11082022,2022.2.4,120.08841348191072,
1,9,7,0,0.111111111111111,0.298245614035088,0,0.444444444444444,1.0,0,0.111111111111111,1.0,ReadingArea_rsl0-rcl11-esl29-rsm0-rcm44-esm100-rsr0-rcr11-esr100,exr/ReadingArea_rsl0-rcl11-esl29-rsm0-rcm44-esm100-rsr0-rcr11-esr100.exr,ReadingArea_rsl0-rcl11-esl29-rsm0-rcm44-esm100-rsr0-rcr11-esr100.npz,,,,,0,35,35,397,,right,red,2.72,257.83756613731384,258.2822041511536,,1,,6,4,lightness,readingArea,realistic,75,2023-03-23_15h43.10.507,tripletExp_regina_11082022,2022.2.4,120.08841348191072,
10,12,9,0,0.694444444444444,1.0,0,0.027777777777778,3.10526315789474,0,0.444444444444444,1.0,ReadingArea_rsl0-rcl69-esl100-rsm0-rcm2-esm310-rsr0-rcr44-esr100,exr/ReadingArea_rsl0-rcl69-esl100-rsm0-rcm2-esm310-rsr0-rcr44-esr100.exr,ReadingArea_rsl0-rcl69-esl100-rsm0-rcm2-esm310-rsr0-rcr44-esr100.npz,,,,,0,36,36,405,,right,red,2.59,261.73241209983826,262.1723680496216,,1,,6,4,lightness,readingArea,realistic,75,2023-03-23_15h43.10.507,tripletExp_regina_11082022,2022.2.4,120.08841348191072,
14,0,3,0,0.25,3.10526315789474,0,0.027777777777778,0.298245614035088,0,0.444444444444444,0.298245614035088,ReadingArea_rsl0-rcl25-esl310-rsm0-rcm2-esm29-rsr0-rcr44-esr29,exr/ReadingArea_rsl0-rcl25-esl310-rsm0-rcm2-esm29-rsr0-rcr44-esr29.exr,ReadingArea_rsl0-rcl25-esl310-rsm0-rcm2-esm29-rsr0-rcr44-esr29.npz,,,,,0,37,37,75,,right,red,1.02,263.882737159729,264.33758902549744,,1,,6,4,lightness,readingArea,realistic,75,2023-03-23_15h43.10.507,tripletExp_regina_11082022,2022.2.4,120.08841348191072,
6,13,0,0,0.027777777777778,1.0,0,0.111111111111111,3.10526315789474,0,0.027777777777778,0.298245614035088,ReadingArea_rsl0-rcl2-esl100-rsm0-rcm11-esm310-rsr0-rcr2-esr29,exr/ReadingArea_rsl0-rcl2-esl100-rsm0-rcm11-esm310-rsr0-rcr2-esr29.exr,ReadingArea_rsl0-rcl2-esl100-rsm0-rcm11-esm310-rsr0-rcr2-esr29.npz,,,,,0,38,38,580,,left,green,2.5,267.80958318710327,268.2674901485443,,1,,6,4,lightness,readingArea,realistic,75,2023-03-23_15h43.10.507,tripletExp_regina_11082022,2022.2.4,120.08841348191072,
9,6,13,0,0.444444444444444,1.0,0,0.027777777777778,1.0,0,0.111111111111111,3.10526315789474,ReadingArea_rsl0-rcl44-esl100-rsm0-rcm2-esm100-rsr0-rcr11-esr310,exr/ReadingArea_rsl0-rcl44-esl100-rsm0-rcm2-esm100-rsr0-rcr11-esr310.exr,ReadingArea_rsl0-rcl44-esl100-rsm0-rcm2-esm100-rsr0-rcr11-esr310.npz,,,,,0,39,39,285,,right,red,1.35,269.98844599723816,270.42928409576416,,1,,6,4,lightness,readingArea,realistic,75,2023-03-23_15h43.10.507,tripletExp_regina_11082022,2022.2.4,120.08841348191072,
12,5,2,0,0.027777777777778,3.10526315789474,0,1.0,0.298245614035088,0,0.25,0.298245614035088,ReadingArea_rsl0-rcl2-esl310-rsm0-rcm100-esm29-rsr0-rcr25-esr29,exr/ReadingArea_rsl0-rcl2-esl310-rsm0-rcm100-esm29-rsr0-rcr25-esr29.exr,ReadingArea_rsl0-rcl2-esl310-rsm0-rcm100-esm29-rsr0-rcr25-esr29.npz,,,,,0,40,40,415,,right,red,1.32,272.15003299713135,272.5472102165222,,1,,6,4,lightness,readingArea,realistic,75,2023-03-23_15h43.10.507,tripletExp_regina_11082022,2022.2.4,120.08841348191072,
14,9,12,0,0.25,3.10526315789474,0,0.444444444444444,1.0,0,0.027777777777778,3.10526315789474,ReadingArea_rsl0-rcl25-esl310-rsm0-rcm44-esm100-rsr0-rcr2-esr310,exr/ReadingArea_rsl0-rcl25-esl310-rsm0-rcm44-esm100-rsr0-rcr2-esr310.exr,ReadingArea_rsl0-rcl25-esl310-rsm0-rcm44-esm100-rsr0-rcr2-esr310.npz,,,,,0,41,41,378,,right,red,3.2,276.0230040550232,276.4787449836731,,1,,6,4,lightness,readingArea,realistic,75,2023-03-23_15h43.10.507,tripletExp_regina_11082022,2022.2.4,120.08841348191072,
1,5,8,0,0.111111111111111,0.298245614035088,0,1.0,0.298245614035088,0,0.25,1.0,ReadingArea_rsl0-rcl11-esl29-rsm0-rcm100-esm29-rsr0-rcr25-esr100,exr/ReadingArea_rsl0-rcl11-esl29-rsm0-rcm100-esm29-rsr0-rcr25-esr100.exr,ReadingArea_rsl0-rcl11-esl29-rsm0-rcm100-esm29-rsr0-rcr25-esr100.npz,,,,,0,42,42,238,,right,red,1.21,278.17028403282166,278.65118312835693,,1,,6,4,lightness,readingArea,realistic,75,2023-03-23_15h43.10.507,tripletExp_regina_11082022,2022.2.4,120.08841348191072,
6,12,0,0,0.027777777777778,1.0,0,0.027777777777778,3.10526315789474,0,0.027777777777778,0.298245614035088,ReadingArea_rsl0-rcl2-esl100-rsm0-rcm2-esm310-rsr0-rcr2-esr29,exr/ReadingArea_rsl0-rcl2-esl100-rsm0-rcm2-esm310-rsr0-rcr2-esr29.exr,ReadingArea_rsl0-rcl2-esl100-rsm0-rcm2-esm310-rsr0-rcr2-esr29.npz,,,,,0,43,43,23,,left,green,3.0,282.10389018058777,282.57315015792847,,1,,6,4,lightness,readingArea,realistic,75,2023-03-23_15h43.10.507,tripletExp_regina_11082022,2022.2.4,120.08841348191072,
14,5,9,0,0.25,3.10526315789474,0,1.0,0.298245614035088,0,0.444444444444444,1.0,ReadingArea_rsl0-rcl25-esl310-rsm0-rcm100-esm29-rsr0-rcr44-esr100,exr/ReadingArea_rsl0-rcl25-esl310-rsm0-rcm100-esm29-rsr0-rcr44-esr100.exr,ReadingArea_rsl0-rcl25-esl310-rsm0-rcm100-esm29-rsr0-rcr44-esr100.npz,,,,,0,44,44,482,,right,red,2.61,286.04559421539307,286.491770029068,,1,,6,4,lightness,readingArea,realistic,75,2023-03-23_15h43.10.507,tripletExp_regina_11082022,2022.2.4,120.08841348191072,
6,9,5,0,0.027777777777778,1.0,0,0.444444444444444,1.0,0,1.0,0.298245614035088,ReadingArea_rsl0-rcl2-esl100-rsm0-rcm44-esm100-rsr0-rcr100-esr29,exr/ReadingArea_rsl0-rcl2-esl100-rsm0-rcm44-esm100-rsr0-rcr100-esr29.exr,ReadingArea_rsl0-rcl2-esl100-rsm0-rcm44-esm100-rsr0-rcr100-esr29.npz,,,,,0,45,45,29,,right,red,2.81,289.9681911468506,,,1,,6,4,lightness,readingArea,realistic,75,2023-03-23_15h43.10.507,tripletExp_regina_11082022,2022.2.4,120.08841348191072,
12,6,9,0,0.027777777777778,3.10526315789474,0,0.027777777777778,1.0,0,0.444444444444444,1.0,ReadingArea_rsl0-rcl2-esl310-rsm0-rcm2-esm100-rsr0-rcr44-esr100,exr/ReadingArea_rsl0-rcl2-esl310-rsm0-rcm2-esm100-rsr0-rcr44-esr100.exr,ReadingArea_rsl0-rcl2-esl310-rsm0-rcm2-esm100-rsr0-rcr44-esr100.npz,,,,,0,46,46,177,,left,green,2.74,293.9067311286926,294.3624269962311,,1,,6,4,lightness,readingArea,realistic,75,2023-03-23_15h43.10.507,tripletExp_regina_11082022,2022.2.4,120.08841348191072,
2,3,4,0,0.25,0.298245614035088,0,0.444444444444444,0.298245614035088,0,0.694444444444444,0.298245614035088,ReadingArea_rsl0-rcl25-esl29-rsm0-rcm44-esm29-rsr0-rcr69-esr29,exr/ReadingArea_rsl0-rcl25-esl29-rsm0-rcm44-esm29-rsr0-rcr69-esr29.exr,ReadingArea_rsl0-rcl25-esl29-rsm0-rcm44-esm29-rsr0-rcr69-esr29.npz,,,,,0,47,47,61,,left,green,1.37,296.0705530643463,296.5888512134552,,1,,6,4,lightness,readingArea,realistic,75,2023-03-23_15h43.10.507,tripletExp_regina_11082022,2022.2.4,120.08841348191072,
4,5,1,0,0.694444444444444,0.298245614035088,0,1.0,0.298245614035088,0,0.111111111111111,0.298245614035088,ReadingArea_rsl0-rcl69-esl29-rsm0-rcm100-esm29-rsr0-rcr11-esr29,exr/ReadingArea_rsl0-rcl69-esl29-rsm0-rcm100-esm29-rsr0-rcr11-esr29.exr,ReadingArea_rsl0-rcl69-esl29-rsm0-rcm100-esm29-rsr0-rcr11-esr29.npz,,,,,0,48,48,240,,left,green,1.38,298.29641008377075,298.741651058197,,1,,6,4,lightness,readingArea,realistic,75,2023-03-23_15h43.10.507,tripletExp_regina_11082022,2022.2.4,120.08841348191072,
9,13,5,0,0.444444444444444,1.0,0,0.111111111111111,3.10526315789474,0,1.0,0.298245614035088,ReadingArea_rsl0-rcl44-esl100-rsm0-rcm11-esm310-rsr0-rcr100-esr29,exr/ReadingArea_rsl0-rcl44-esl100-rsm0-rcm11-esm310-rsr0-rcr100-esr29.exr,ReadingArea_rsl0-rcl44-esl100-rsm0-rcm11-esm310-rsr0-rcr100-esr29.npz,,,,,0,49,49,349,,right,red,2.98,302.21863198280334,302.6881890296936,,1,,6,4,lightness,readingArea,realistic,75,2023-03-23_15h43.10.507,tripletExp_regina_11082022,2022.2.4,120.08841348191072,
4,7,5,0,0.694444444444444,0.298245614035088,0,0.111111111111111,1.0,0,1.0,0.298245614035088,ReadingArea_rsl0-rcl69-esl29-rsm0-rcm11-esm100-rsr0-rcr100-esr29,exr/ReadingArea_rsl0-rcl69-esl29-rsm0-rcm11-esm100-rsr0-rcr100-esr29.exr,ReadingArea_rsl0-rcl69-esl29-rsm0-rcm11-esm100-rsr0-rcr100-esr29.npz,,,,,0,50,50,195,,left,green,2.7,306.1871221065521,306.64017605781555,,1,,6,4,lightness,readingArea,realistic,75,2023-03-23_15h43.10.507,tripletExp_regina_11082022,2022.2.4,120.08841348191072,
6,5,13,0,0.027777777777778,1.0,0,1.0,0.298245614035088,0,0.111111111111111,3.10526315789474,ReadingArea_rsl0-rcl2-esl100-rsm0-rcm100-esm29-rsr0-rcr11-esr310,exr/ReadingArea_rsl0-rcl2-esl100-rsm0-rcm100-esm29-rsr0-rcr11-esr310.exr,ReadingArea_rsl0-rcl2-esl100-rsm0-rcm100-esm29-rsr0-rcr11-esr310.npz,,,,,0,51,51,450,,right,red,1.33,308.3300771713257,308.7653920650482,,1,,6,4,lightness,readingArea,realistic,75,2023-03-23_15h43.10.507,tripletExp_regina_11082022,2022.2.4,120.08841348191072,
6,1,10,0,0.027777777777778,1.0,0,0.111111111111111,0.298245614035088,0,0.694444444444444,1.0,ReadingArea_rsl0-rcl2-esl100-rsm0-rcm11-esm29-rsr0-rcr69-esr100,exr/ReadingArea_rsl0-rcl2-esl100-rsm0-rcm11-esm29-rsr0-rcr69-esr100.exr,ReadingArea_rsl0-rcl2-esl100-rsm0-rcm11-esm29-rsr0-rcr69-esr100.npz,,,,,0,52,52,561,,left,green,1.35,310.47175121307373,,,1,,6,4,lightness,readingArea,realistic,75,2023-03-23_15h43.10.507,tripletExp_regina_11082022,2022.2.4,120.08841348191072,
12,8,6,0,0.027777777777778,3.10526315789474,0,0.25,1.0,0,0.027777777777778,1.0,ReadingArea_rsl0-rcl2-esl310-rsm0-rcm25-esm100-rsr0-rcr2-esr100,exr/ReadingArea_rsl0-rcl2-esl310-rsm0-rcm25-esm100-rsr0-rcr2-esr100.exr,ReadingArea_rsl0-rcl2-esl310-rsm0-rcm25-esm100-rsr0-rcr2-esr100.npz,,,,,0,53,53,281,,left,green,2.98,314.5142321586609,,,1,,6,4,lightness,readingArea,realistic,75,2023-03-23_15h43.10.507,tripletExp_regina_11082022,2022.2.4,120.08841348191072,
14,11,0,0,0.25,3.10526315789474,0,1.0,1.0,0,0.027777777777778,0.298245614035088,ReadingArea_rsl0-rcl25-esl310-rsm0-rcm100-esm100-rsr0-rcr2-esr29,exr/ReadingArea_rsl0-rcl25-esl310-rsm0-rcm100-esm100-rsr0-rcr2-esr29.exr,ReadingArea_rsl0-rcl25-esl310-rsm0-rcm100-esm100-rsr0-rcr2-esr29.npz,,,,,0,54,54,227,,left,green,1.22,316.72259616851807,,,1,,6,4,lightness,readingArea,realistic,75,2023-03-23_15h43.10.507,tripletExp_regina_11082022,2022.2.4,120.08841348191072,
13,10,12,0,0.111111111111111,3.10526315789474,0,0.694444444444444,1.0,0,0.027777777777778,3.10526315789474,ReadingArea_rsl0-rcl11-esl310-rsm0-rcm69-esm100-rsr0-rcr2-esr310,exr/ReadingArea_rsl0-rcl11-esl310-rsm0-rcm69-esm100-rsr0-rcr2-esr310.exr,ReadingArea_rsl0-rcl11-esl310-rsm0-rcm69-esm100-rsr0-rcr2-esr310.npz,,,,,0,55,55,384,,left,green,1.44,318.8547132015228,319.31554913520813,,1,,6,4,lightness,readingArea,realistic,75,2023-03-23_15h43.10.507,tripletExp_regina_11082022,2022.2.4,120.08841348191072,
1,5,13,0,0.111111111111111,0.298245614035088,0,1.0,0.298245614035088,0,0.111111111111111,3.10526315789474,ReadingArea_rsl0-rcl11-esl29-rsm0-rcm100-esm29-rsr0-rcr11-esr310,exr/ReadingArea_rsl0-rcl11-esl29-rsm0-rcm100-esm29-rsr0-rcr11-esr310.exr,ReadingArea_rsl0-rcl11-esl29-rsm0-rcm100-esm29-rsr0-rcr11-esr310.npz,,,,,0,56,56,598,,right,red,1.17,321.034548997879,321.47291898727417,,1,,6,4,lightness,readingArea,realistic,75,2023-03-23_15h43.10.507,tripletExp_regina_11082022,2022.2.4,120.08841348191072,
3,9,0,0,0.444444444444444,0.298245614035088,0,0.444444444444444,1.0,0,0.027777777777778,0.298245614035088,ReadingArea_rsl0-rcl44-esl29-rsm0-rcm44-esm100-rsr0-rcr2-esr29,exr/ReadingArea_rsl0-rcl44-esl29-rsm0-rcm44-esm100-rsr0-rcr2-esr29.exr,ReadingArea_rsl0-rcl44-esl29-rsm0-rcm44-esm100-rsr0-rcr2-esr29.npz,,,,,0,57,57,551,,left,green,1.15,323.1620202064514,323.6059730052948,,1,,6,4,lightness,readingArea,realistic,75,2023-03-23_15h43.10.507,tripletExp_regina_11082022,2022.2.4,120.08841348191072,
0,14,6,0,0.027777777777778,0.298245614035088,0,0.25,3.10526315789474,0,0.027777777777778,1.0,ReadingArea_rsl0-rcl2-esl29-rsm0-rcm25-esm310-rsr0-rcr2-esr100,exr/ReadingArea_rsl0-rcl2-esl29-rsm0-rcm25-esm310-rsr0-rcr2-esr100.exr,ReadingArea_rsl0-rcl2-esl29-rsm0-rcm25-esm310-rsr0-rcr2-esr100.npz,,,,,0,58,58,499,,right,red,2.47,327.0826871395111,,,1,,6,4,lightness,readingArea,realistic,75,2023-03-23_15h43.10.507,tripletExp_regina_11082022,2022.2.4,120.08841348191072,
14,8,2,0,0.25,3.10526315789474,0,0.25,1.0,0,0.25,0.298245614035088,ReadingArea_rsl0-rcl25-esl310-rsm0-rcm25-esm100-rsr0-rcr25-esr29,exr/ReadingArea_rsl0-rcl25-esl310-rsm0-rcm25-esm100-rsr0-rcr25-esr29.exr,ReadingArea_rsl0-rcl25-esl310-rsm0-rcm25-esm100-rsr0-rcr25-esr29.npz,,,,,0,59,59,251,,right,red,2.49,331.0889220237732,331.5657091140747,,1,,6,4,lightness,readingArea,realistic,75,2023-03-23_15h43.10.507,tripletExp_regina_11082022,2022.2.4,120.08841348191072,
1,12,0,0,0.111111111111111,0.298245614035088,0,0.027777777777778,3.10526315789474,0,0.027777777777778,0.298245614035088,ReadingArea_rsl0-rcl11-esl29-rsm0-rcm2-esm310-rsr0-rcr2-esr29,exr/ReadingArea_rsl0-rcl11-esl29-rsm0-rcm2-esm310-rsr0-rcr2-esr29.exr,ReadingArea_rsl0-rcl11-esl29-rsm0-rcm2-esm310-rsr0-rcr2-esr29.npz,,,,,0,60,60,113,,left,green,2.52,335.0383670330048,335.49222707748413,,1,,6,4,lightness,readingArea,realistic,75,2023-03-23_15h43.10.507,tripletExp_regina_11082022,2022.2.4,120.08841348191072,
2,4,6,0,0.25,0.298245614035088,0,0.694444444444444,0.298245614035088,0,0.027777777777778,1.0,ReadingArea_rsl0-rcl25-esl29-rsm0-rcm69-esm29-rsr0-rcr2-esr100,exr/ReadingArea_rsl0-rcl25-esl29-rsm0-rcm69-esm29-rsr0-rcr2-esr100.exr,ReadingArea_rsl0-rcl25-esl29-rsm0-rcm69-esm29-rsr0-rcr2-esr100.npz,,,,,0,61,61,563,,left,green,1.73,337.18348813056946,337.62059020996094,,1,,6,4,lightness,readingArea,realistic,75,2023-03-23_15h43.10.507,tripletExp_regina_11082022,2022.2.4,120.08841348191072,
12,11,13,0,0.027777777777778,3.10526315789474,0,1.0,1.0,0,0.111111111111111,3.10526315789474,ReadingArea_rsl0-rcl2-esl310-rsm0-rcm100-esm100-rsr0-rcr11-esr310,exr/ReadingArea_rsl0-rcl2-esl310-rsm0-rcm100-esm100-rsr0-rcr11-esr310.exr,ReadingArea_rsl0-rcl2-esl310-rsm0-rcm100-esm100-rsr0-rcr11-esr310.npz,,,,,0,62,62,151,,right,red,1.24,339.3380501270294,339.7638890743256,,1,,6,4,lightness,readingArea,realistic,75,2023-03-23_15h43.10.507,tripletExp_regina_11082022,2022.2.4,120.08841348191072,
7,11,13,0,0.111111111111111,1.0,0,1.0,1.0,0,0.111111111111111,3.10526315789474,ReadingArea_rsl0-rcl11-esl100-rsm0-rcm100-esm100-rsr0-rcr11-esr310,exr/ReadingArea_rsl0-rcl11-esl100-rsm0-rcm100-esm100-rsr0-rcr11-esr310.exr,ReadingArea_rsl0-rcl11-esl100-rsm0-rcm100-esm100-rsr0-rcr11-esr310.npz,,,,,0,63,63,76,,right,red,1.11,341.48208498954773,341.9250271320343,,1,,6,4,lightness,readingArea,realistic,75,2023-03-23_15h43.10.507,tripletExp_regina_11082022,2022.2.4,120.08841348191072,
12,7,2,0,0.027777777777778,3.10526315789474,0,0.111111111111111,1.0,0,0.25,0.298245614035088,ReadingArea_rsl0-rcl2-esl310-rsm0-rcm11-esm100-rsr0-rcr25-esr29,exr/ReadingArea_rsl0-rcl2-esl310-rsm0-rcm11-esm100-rsr0-rcr25-esr29.exr,ReadingArea_rsl0-rcl2-esl310-rsm0-rcm11-esm100-rsr0-rcr25-esr29.npz,,,,,0,64,64,248,,right,red,3.04,345.415372133255,345.8951060771942,,1,,6,4,lightness,readingArea,realistic,75,2023-03-23_15h43.10.507,tripletExp_regina_11082022,2022.2.4,120.08841348191072,
4,12,7,0,0.694444444444444,0.298245614035088,0,0.027777777777778,3.10526315789474,0,0.111111111111111,1.0,ReadingArea_rsl0-rcl69-esl29-rsm0-rcm2-esm310-rsr0-rcr11-esr100,exr/ReadingArea_rsl0-rcl69-esl29-rsm0-rcm2-esm310-rsr0-rcr11-esr100.exr,ReadingArea_rsl0-rcl69-esl29-rsm0-rcm2-esm310-rsr0-rcr11-esr100.npz,,,,,0,65,65,112,,right,red,2.36,349.36858320236206,349.8220729827881,,1,,6,4,lightness,readingArea,realistic,75,2023-03-23_15h43.10.507,tripletExp_regina_11082022,2022.2.4,120.08841348191072,
1,13,11,0,0.111111111111111,0.298245614035088,0,0.111111111111111,3.10526315789474,0,1.0,1.0,ReadingArea_rsl0-rcl11-esl29-rsm0-rcm11-esm310-rsr0-rcr100-esr100,exr/ReadingArea_rsl0-rcl11-esl29-rsm0-rcm11-esm310-rsr0-rcr100-esr100.exr,ReadingArea_rsl0-rcl11-esl29-rsm0-rcm11-esm310-rsr0-rcr100-esr100.npz,,,,,0,66,66,333,,left,green,3.1,353.32246804237366,353.7577621936798,,1,,6,4,lightness,readingArea,realistic,75,2023-03-23_15h43.10.507,tripletExp_regina_11082022,2022.2.4,120.08841348191072,
9,6,11,0,0.444444444444444,1.0,0,0.027777777777778,1.0,0,1.0,1.0,ReadingArea_rsl0-rcl44-esl100-rsm0-rcm2-esm100-rsr0-rcr100-esr100,exr/ReadingArea_rsl0-rcl44-esl100-rsm0-rcm2-esm100-rsr0-rcr100-esr100.exr,ReadingArea_rsl0-rcl44-esl100-rsm0-rcm2-esm100-rsr0-rcr100-esr100.npz,,,,,0,67,67,572,,left,green,2.3,357.2473211288452,357.7267341613769,,1,,6,4,lightness,readingArea,realistic,75,2023-03-23_15h43.10.507,tripletExp_regina_11082022,2022.2.4,120.08841348191072,
5,14,4,0,1.0,0.298245614035088,0,0.25,3.10526315789474,0,0.694444444444444,0.298245614035088,ReadingArea_rsl0-rcl100-esl29-rsm0-rcm25-esm310-rsr0-rcr69-esr29,exr/ReadingArea_rsl0-rcl100-esl29-rsm0-rcm25-esm310-rsr0-rcr69-esr29.exr,ReadingArea_rsl0-rcl100-esl29-rsm0-rcm25-esm310-rsr0-rcr69-esr29.npz,,,,,0,68,68,69,,left,green,2.85,361.1847171783447,361.64189100265503,,1,,6,4,lightness,readingArea,realistic,75,2023-03-23_15h43.10.507,tripletExp_regina_11082022,2022.2.4,120.08841348191072,
8,0,6,0,0.25,1.0,0,0.027777777777778,0.298245614035088,0,0.027777777777778,1.0,ReadingArea_rsl0-rcl25-esl100-rsm0-rcm2-esm29-rsr0-rcr2-esr100,exr/ReadingArea_rsl0-rcl25-esl100-rsm0-rcm2-esm29-rsr0-rcr2-esr100.exr,ReadingArea_rsl0-rcl25-esl100-rsm0-rcm2-esm29-rsr0-rcr2-esr100.npz,,,,,0,69,69,401,,right,red,0.96,363.3651580810547,363.8393940925598,,1,,6,4,lightness,readingArea,realistic,75,2023-03-23_15h43.10.507,tripletExp_regina_11082022,2022.2.4,120.08841348191072,
11,12,4,0,1.0,1.0,0,0.027777777777778,3.10526315789474,0,0.694444444444444,0.298245614035088,ReadingArea_rsl0-rcl100-esl100-rsm0-rcm2-esm310-rsr0-rcr69-esr29,exr/ReadingArea_rsl0-rcl100-esl100-rsm0-rcm2-esm310-rsr0-rcr69-esr29.exr,ReadingArea_rsl0-rcl100-esl100-rsm0-rcm2-esm310-rsr0-rcr69-esr29.npz,,,,,0,70,70,250,,right,red,1.16,365.5453691482544,366.0258560180664,,1,,6,4,lightness,readingArea,realistic,75,2023-03-23_15h43.10.507,tripletExp_regina_11082022,2022.2.4,120.08841348191072,
2,14,7,0,0.25,0.298245614035088,0,0.25,3.10526315789474,0,0.111111111111111,1.0,ReadingArea_rsl0-rcl25-esl29-rsm0-rcm25-esm310-rsr0-rcr11-esr100,exr/ReadingArea_rsl0-rcl25-esl29-rsm0-rcm25-esm310-rsr0-rcr11-esr100.exr,ReadingArea_rsl0-rcl25-esl29-rsm0-rcm25-esm310-rsr0-rcr11-esr100.npz,,,,,0,71,71,310,,right,red,2.82,369.5063071250916,,,1,,6,4,lightness,readingArea,realistic,75,2023-03-23_15h43.10.507,tripletExp_regina_11082022,2022.2.4,120.08841348191072,
11,2,8,0,1.0,1.0,0,0.25,0.298245614035088,0,0.25,1.0,ReadingArea_rsl0-rcl100-esl100-rsm0-rcm25-esm29-rsr0-rcr25-esr100,exr/ReadingArea_rsl0-rcl100-esl100-rsm0-rcm25-esm29-rsr0-rcr25-esr100.exr,ReadingArea_rsl0-rcl100-esl100-rsm0-rcm25-esm29-rsr0-rcr25-esr100.npz,,,,,0,72,72,214,,right,red,2.65,373.4648761749268,,,1,,6,4,lightness,readingArea,realistic,75,2023-03-23_15h43.10.507,tripletExp_regina_11082022,2022.2.4,120.08841348191072,
13,3,7,0,0.111111111111111,3.10526315789474,0,0.444444444444444,0.298245614035088,0,0.111111111111111,1.0,ReadingArea_rsl0-rcl11-esl310-rsm0-rcm44-esm29-rsr0-rcr11-esr100,exr/ReadingArea_rsl0-rcl11-esl310-rsm0-rcm44-esm29-rsr0-rcr11-esr100.exr,ReadingArea_rsl0-rcl11-esl310-rsm0-rcm44-esm29-rsr0-rcr11-esr100.npz,,,,,0,73,73,497,,right,red,1.29,375.8222382068634,376.2713379859924,,1,,6,4,lightness,readingArea,realistic,75,2023-03-23_15h43.10.507,tripletExp_regina_11082022,2022.2.4,120.08841348191072,
4,1,3,0,0.694444444444444,0.298245614035088,0,0.111111111111111,0.298245614035088,0,0.444444444444444,0.298245614035088,ReadingArea_rsl0-rcl69-esl29-rsm0-rcm11-esm29-rsr0-rcr44-esr29,exr/ReadingArea_rsl0-rcl69-esl29-rsm0-rcm11-esm29-rsr0-rcr44-esr29.exr,ReadingArea_rsl0-rcl69-esl29-rsm0-rcm11-esm29-rsr0-rcr44-esr29.npz,,,,,0,74,74,70,,right,red,2.77,379.7627680301666,379.96460604667664,,1,,6,4,lightness,readingArea,realistic,75,2023-03-23_15h43.10.507,tripletExp_regina_11082022,2022.2.4,120.08841348191072,
14,13,3,0,0.25,3.10526315789474,0,0.111111111111111,3.10526315789474,0,0.444444444444444,0.298245614035088,ReadingArea_rsl0-rcl25-esl310-rsm0-rcm11-esm310-rsr0-rcr44-esr29,exr/ReadingArea_rsl0-rcl25-esl310-rsm0-rcm11-esm310-rsr0-rcr44-esr29.exr,ReadingArea_rsl0-rcl25-esl310-rsm0-rcm11-esm310-rsr0-rcr44-esr29.npz,,,,,0,75,75,256,,left,green,4.47,431.02378010749817,,,2,,6,4,lightness,readingArea,realistic,75,2023-03-23_15h43.10.507,tripletExp_regina_11082022,2022.2.4,120.08841348191072,
14,0,6,0,0.25,3.10526315789474,0,0.027777777777778,0.298245614035088,0,0.027777777777778,1.0,ReadingArea_rsl0-rcl25-esl310-rsm0-rcm2-esm29-rsr0-rcr2-esr100,exr/ReadingArea_rsl0-rcl25-esl310-rsm0-rcm2-esm29-rsr0-rcr2-esr100.exr,ReadingArea_rsl0-rcl25-esl310-rsm0-rcm2-esm29-rsr0-rcr2-esr100.npz,,,,,0,76,76,496,,right,red,2.5,435.0989170074463,435.6899859905243,,2,,6,4,lightness,readingArea,realistic,75,2023-03-23_15h43.10.507,tripletExp_regina_11082022,2022.2.4,120.08841348191072,
6,4,10,0,0.027777777777778,1.0,0,0.694444444444444,0.298245614035088,0,0.694444444444444,1.0,ReadingArea_rsl0-rcl2-esl100-rsm0-rcm69-esm29-rsr0-rcr69-esr100,exr/ReadingArea_rsl0-rcl2-esl100-rsm0-rcm69-esm29-rsr0-rcr69-esr100.exr,ReadingArea_rsl0-rcl2-esl100-rsm0-rcm69-esm29-rsr0-rcr69-esr100.npz,,,,,0,77,77,554,,right,red,3.08,439.14394521713257,439.6096980571747,,2,,6,4,lightness,readingArea,realistic,75,2023-03-23_15h43.10.507,tripletExp_regina_11082022,2022.2.4,120.08841348191072,
13,10,11,0,0.111111111111111,3.10526315789474,0,0.694444444444444,1.0,0,1.0,1.0,ReadingArea_rsl0-rcl11-esl310-rsm0-rcm69-esm100-rsr0-rcr100-esr100,exr/ReadingArea_rsl0-rcl11-esl310-rsm0-rcm69-esm100-rsr0-rcr100-esr100.exr,ReadingArea_rsl0-rcl11-esl310-rsm0-rcm69-esm100-rsr0-rcr100-esr100.npz,,,,,0,78,78,320,,right,red,3.06,443.0887122154236,443.5450930595398,,2,,6,4,lightness,readingArea,realistic,75,2023-03-23_15h43.10.507,tripletExp_regina_11082022,2022.2.4,120.08841348191072,
10,5,4,0,0.694444444444444,1.0,0,1.0,0.298245614035088,0,0.694444444444444,0.298245614035088,ReadingArea_rsl0-rcl69-esl100-rsm0-rcm100-esm29-rsr0-rcr69-esr29,exr/ReadingArea_rsl0-rcl69-esl100-rsm0-rcm100-esm29-rsr0-rcr69-esr29.exr,ReadingArea_rsl0-rcl69-esl100-rsm0-rcm100-esm29-rsr0-rcr69-esr29.npz,,,,,0,79,79,455,,right,red,2.47,447.02707505226135,447.4849100112915,,2,,6,4,lightness,readingArea,realistic,75,2023-03-23_15h43.10.507,tripletExp_regina_11082022,2022.2.4,120.08841348191072,
13,8,0,0,0.111111111111111,3.10526315789474,0,0.25,1.0,0,0.027777777777778,0.298245614035088,ReadingArea_rsl0-rcl11-esl310-rsm0-rcm25-esm100-rsr0-rcr2-esr29,exr/ReadingArea_rsl0-rcl11-esl310-rsm0-rcm25-esm100-rsr0-rcr2-esr29.exr,ReadingArea_rsl0-rcl11-esl310-rsm0-rcm25-esm100-rsr0-rcr2-esr29.npz,,,,,0,80,80,429,,left,green,2.2,450.9771761894226,,,2,,6,4,lightness,readingArea,realistic,75,2023-03-23_15h43.10.507,tripletExp_regina_11082022,2022.2.4,120.08841348191072,
5,10,2,0,1.0,0.298245614035088,0,0.694444444444444,1.0,0,0.25,0.298245614035088,ReadingArea_rsl0-rcl100-esl29-rsm0-rcm69-esm100-rsr0-rcr25-esr29,exr/ReadingArea_rsl0-rcl100-esl29-rsm0-rcm69-esm100-rsr0-rcr25-esr29.exr,ReadingArea_rsl0-rcl100-esl29-rsm0-rcm69-esm100-rsr0-rcr25-esr29.npz,,,,,0,81,81,489,,left,green,2.16,455.0056049823761,455.4591541290283,,2,,6,4,lightness,readingArea,realistic,75,2023-03-23_15h43.10.507,tripletExp_regina_11082022,2022.2.4,120.08841348191072,
8,6,13,0,0.25,1.0,0,0.027777777777778,1.0,0,0.111111111111111,3.10526315789474,ReadingArea_rsl0-rcl25-esl100-rsm0-rcm2-esm100-rsr0-rcr11-esr310,exr/ReadingArea_rsl0-rcl25-esl100-rsm0-rcm2-esm100-rsr0-rcr11-esr310.exr,ReadingArea_rsl0-rcl25-esl100-rsm0-rcm2-esm100-rsr0-rcr11-esr310.npz,,,,,0,82,82,440,,left,green,2.66,458.9612011909485,459.4058201313019,,2,,6,4,lightness,readingArea,realistic,75,2023-03-23_15h43.10.507,tripletExp_regina_11082022,2022.2.4,120.08841348191072,
10,11,13,0,0.694444444444444,1.0,0,1.0,1.0,0,0.111111111111111,3.10526315789474,ReadingArea_rsl0-rcl69-esl100-rsm0-rcm100-esm100-rsr0-rcr11-esr310,exr/ReadingArea_rsl0-rcl69-esl100-rsm0-rcm100-esm100-rsr0-rcr11-esr310.exr,ReadingArea_rsl0-rcl69-esl100-rsm0-rcm100-esm100-rsr0-rcr11-esr310.npz,,,,,0,83,83,79,,left,green,1.13,461.1251931190491,461.55985498428345,,2,,6,4,lightness,readingArea,realistic,75,2023-03-23_15h43.10.507,tripletExp_regina_11082022,2022.2.4,120.08841348191072,
14,8,3,0,0.25,3.10526315789474,0,0.25,1.0,0,0.444444444444444,0.298245614035088,ReadingArea_rsl0-rcl25-esl310-rsm0-rcm25-esm100-rsr0-rcr44-esr29,exr/ReadingArea_rsl0-rcl25-esl310-rsm0-rcm25-esm100-rsr0-rcr44-esr29.exr,ReadingArea_rsl0-rcl25-esl310-rsm0-rcm25-esm100-rsr0-rcr44-esr29.npz,,,,,0,84,84,100,,right,red,2.46,465.0451099872589,465.4985001087189,,2,,6,4,lightness,readingArea,realistic,75,2023-03-23_15h43.10.507,tripletExp_regina_11082022,2022.2.4,120.08841348191072,
6,3,1,0,0.027777777777778,1.0,0,0.444444444444444,0.298245614035088,0,0.111111111111111,0.298245614035088,ReadingArea_rsl0-rcl2-esl100-rsm0-rcm44-esm29-rsr0-rcr11-esr29,exr/ReadingArea_rsl0-rcl2-esl100-rsm0-rcm44-esm29-rsr0-rcr11-esr29.exr,ReadingArea_rsl0-rcl2-esl100-rsm0-rcm44-esm29-rsr0-rcr11-esr29.npz,,,,,0,85,85,430,,right,red,2.84,468.94282817840576,469.40823912620544,,2,,6,4,lightness,readingArea,realistic,75,2023-03-23_15h43.10.507,tripletExp_regina_11082022,2022.2.4,120.08841348191072,
10,6,8,0,0.694444444444444,1.0,0,0.027777777777778,1.0,0,0.25,1.0,ReadingArea_rsl0-rcl69-esl100-rsm0-rcm2-esm100-rsr0-rcr25-esr100,exr/ReadingArea_rsl0-rcl69-esl100-rsm0-rcm2-esm100-rsr0-rcr25-esr100.exr,ReadingArea_rsl0-rcl69-esl100-rsm0-rcm2-esm100-rsr0-rcr25-esr100.npz,,,,,0,86,86,145,,right,red,2.49,472.85989212989807,473.318412065506,,2,,6,4,lightness,readingArea,realistic,75,2023-03-23_15h43.10.507,tripletExp_regina_11082022,2022.2.4,120.08841348191072,
0,1,6,0,0.027777777777778,0.298245614035088,0,0.111111111111111,0.298245614035088,0,0.027777777777778,1.0,ReadingArea_rsl0-rcl2-esl29-rsm0-rcm11-esm29-rsr0-rcr2-esr100,exr/ReadingArea_rsl0-rcl2-esl29-rsm0-rcm11-esm29-rsr0-rcr2-esr100.exr,ReadingArea_rsl0-rcl2-esl29-rsm0-rcm11-esm29-rsr0-rcr2-esr100.npz,,,,,0,87,87,375,,right,red,1.34,475.0066239833832,475.4508512020111,,2,,6,4,lightness,readingArea,realistic,75,2023-03-23_15h43.10.507,tripletExp_regina_11082022,2022.2.4,120.08841348191072,
4,2,13,0,0.694444444444444,0.298245614035088,0,0.25,0.298245614035088,0,0.111111111111111,3.10526315789474,ReadingArea_rsl0-rcl69-esl29-rsm0-rcm25-esm29-rsr0-rcr11-esr310,exr/ReadingArea_rsl0-rcl69-esl29-rsm0-rcm25-esm29-rsr0-rcr11-esr310.exr,ReadingArea_rsl0-rcl69-esl29-rsm0-rcm25-esm29-rsr0-rcr11-esr310.npz,,,,,0,88,88,304,,left,green,2.92,478.9117531776428,479.3730700016022,,2,,6,4,lightness,readingArea,realistic,75,2023-03-23_15h43.10.507,tripletExp_regina_11082022,2022.2.4,120.08841348191072,
3,2,8,0,0.444444444444444,0.298245614035088,0,0.25,0.298245614035088,0,0.25,1.0,ReadingArea_rsl0-rcl44-esl29-rsm0-rcm25-esm29-rsr0-rcr25-esr100,exr/ReadingArea_rsl0-rcl44-esl29-rsm0-rcm25-esm29-rsr0-rcr25-esr100.exr,ReadingArea_rsl0-rcl44-esl29-rsm0-rcm25-esm29-rsr0-rcr25-esr100.npz,,,,,0,89,89,181,,left,green,2.61,482.844927072525,483.3154242038727,,2,,6,4,lightness,readingArea,realistic,75,2023-03-23_15h43.10.507,tripletExp_regina_11082022,2022.2.4,120.08841348191072,
5,11,8,0,1.0,0.298245614035088,0,1.0,1.0,0,0.25,1.0,ReadingArea_rsl0-rcl100-esl29-rsm0-rcm100-esm100-rsr0-rcr25-esr100,exr/ReadingArea_rsl0-rcl100-esl29-rsm0-rcm100-esm100-rsr0-rcr25-esr100.exr,ReadingArea_rsl0-rcl100-esl29-rsm0-rcm100-esm100-rsr0-rcr25-esr100.npz,,,,,0,90,90,548,,left,green,2.64,486.7952330112457,487.23701906204224,,2,,6,4,lightness,readingArea,realistic,75,2023-03-23_15h43.10.507,tripletExp_regina_11082022,2022.2.4,120.08841348191072,
6,0,10,0,0.027777777777778,1.0,0,0.027777777777778,0.298245614035088,0,0.694444444444444,1.0,ReadingArea_rsl0-rcl2-esl100-rsm0-rcm2-esm29-rsr0-rcr69-esr100,exr/ReadingArea_rsl0-rcl2-esl100-rsm0-rcm2-esm29-rsr0-rcr69-esr100.exr,ReadingArea_rsl0-rcl2-esl100-rsm0-rcm2-esm29-rsr0-rcr69-esr100.npz,,,,,0,91,91,532,,left,green,1.25,488.9260730743408,489.3601341247559,,2,,6,4,lightness,readingArea,realistic,75,2023-03-23_15h43.10.507,tripletExp_regina_11082022,2022.2.4,120.08841348191072,
4,11,12,0,0.694444444444444,0.298245614035088,0,1.0,1.0,0,0.027777777777778,3.10526315789474,ReadingArea_rsl0-rcl69-esl29-rsm0-rcm100-esm100-rsr0-rcr2-esr310,exr/ReadingArea_rsl0-rcl69-esl29-rsm0-rcm100-esm100-rsr0-rcr2-esr310.exr,ReadingArea_rsl0-rcl69-esl29-rsm0-rcm100-esm100-rsr0-rcr2-esr310.npz,,,,,0,92,92,109,,left,green,1.31,491.0782132148743,491.5297141075134,,2,,6,4,lightness,readingArea,realistic,75,2023-03-23_15h43.10.507,tripletExp_regina_11082022,2022.2.4,120.08841348191072,
7,13,12,0,0.111111111111111,1.0,0,0.111111111111111,3.10526315789474,0,0.027777777777778,3.10526315789474,ReadingArea_rsl0-rcl11-esl100-rsm0-rcm11-esm310-rsr0-rcr2-esr310,exr/ReadingArea_rsl0-rcl11-esl100-rsm0-rcm11-esm310-rsr0-rcr2-esr310.exr,ReadingArea_rsl0-rcl11-esl100-rsm0-rcm11-esm310-rsr0-rcr2-esr310.npz,,,,,0,93,93,438,,left,green,2.79,495.0129570960999,495.6262590885162,,2,,6,4,lightness,readingArea,realistic,75,2023-03-23_15h43.10.507,tripletExp_regina_11082022,2022.2.4,120.08841348191072,
3,0,2,0,0.444444444444444,0.298245614035088,0,0.027777777777778,0.298245614035088,0,0.25,0.298245614035088,ReadingArea_rsl0-rcl44-esl29-rsm0-rcm2-esm29-rsr0-rcr25-esr29,exr/ReadingArea_rsl0-rcl44-esl29-rsm0-rcm2-esm29-rsr0-rcr25-esr29.exr,ReadingArea_rsl0-rcl44-esl29-rsm0-rcm2-esm29-rsr0-rcr25-esr29.npz,,,,,0,94,94,334,,right,red,3.01,499.1124629974365,499.58265805244446,,2,,6,4,lightness,readingArea,realistic,75,2023-03-23_15h43.10.507,tripletExp_regina_11082022,2022.2.4,120.08841348191072,
9,8,0,0,0.444444444444444,1.0,0,0.25,1.0,0,0.027777777777778,0.298245614035088,ReadingArea_rsl0-rcl44-esl100-rsm0-rcm25-esm100-rsr0-rcr2-esr29,exr/ReadingArea_rsl0-rcl44-esl100-rsm0-rcm25-esm100-rsr0-rcr2-esr29.exr,ReadingArea_rsl0-rcl44-esl100-rsm0-rcm25-esm100-rsr0-rcr2-esr29.npz,,,,,0,95,95,66,,left,green,2.56,503.0541181564331,503.4905261993408,,2,,6,4,lightness,readingArea,realistic,75,2023-03-23_15h43.10.507,tripletExp_regina_11082022,2022.2.4,120.08841348191072,
10,14,13,0,0.694444444444444,1.0,0,0.25,3.10526315789474,0,0.111111111111111,3.10526315789474,ReadingArea_rsl0-rcl69-esl100-rsm0-rcm25-esm310-rsr0-rcr11-esr310,exr/ReadingArea_rsl0-rcl69-esl100-rsm0-rcm25-esm310-rsr0-rcr11-esr310.exr,ReadingArea_rsl0-rcl69-esl100-rsm0-rcm25-esm310-rsr0-rcr11-esr310.npz,,,,,0,96,96,168,,left,green,1.23,505.2119719982147,506.0201861858368,,2,,6,4,lightness,readingArea,realistic,75,2023-03-23_15h43.10.507,tripletExp_regina_11082022,2022.2.4,120.08841348191072,
14,2,1,0,0.25,3.10526315789474,0,0.25,0.298245614035088,0,0.111111111111111,0.298245614035088,ReadingArea_rsl0-rcl25-esl310-rsm0-rcm25-esm29-rsr0-rcr11-esr29,exr/ReadingArea_rsl0-rcl25-esl310-rsm0-rcm25-esm29-rsr0-rcr11-esr29.exr,ReadingArea_rsl0-rcl25-esl310-rsm0-rcm25-esm29-rsr0-rcr11-esr29.npz,,,,,0,97,97,321,,right,red,2.77,509.4906342029572,509.9445910453797,,2,,6,4,lightness,readingArea,realistic,75,2023-03-23_15h43.10.507,tripletExp_regina_11082022,2022.2.4,120.08841348191072,
3,0,4,0,0.444444444444444,0.298245614035088,0,0.027777777777778,0.298245614035088,0,0.694444444444444,0.298245614035088,ReadingArea_rsl0-rcl44-esl29-rsm0-rcm2-esm29-rsr0-rcr69-esr29,exr/ReadingArea_rsl0-rcl44-esl29-rsm0-rcm2-esm29-rsr0-rcr69-esr29.exr,ReadingArea_rsl0-rcl44-esl29-rsm0-rcm2-esm29-rsr0-rcr69-esr29.npz,,,,,0,98,98,111,,left,green,1.9,513.4263391494751,513.8762621879578,,2,,6,4,lightness,readingArea,realistic,75,2023-03-23_15h43.10.507,tripletExp_regina_11082022,2022.2.4,120.08841348191072,
5,3,4,0,1.0,0.298245614035088,0,0.444444444444444,0.298245614035088,0,0.694444444444444,0.298245614035088,ReadingArea_rsl0-rcl100-esl29-rsm0-rcm44-esm29-rsr0-rcr69-esr29,exr/ReadingArea_rsl0-rcl100-esl29-rsm0-rcm44-esm29-rsr0-rcr69-esr29.exr,ReadingArea_rsl0-rcl100-esl29-rsm0-rcm44-esm29-rsr0-rcr69-esr29.npz,,,,,0,99,99,201,,right,red,1.35,515.5996291637421,516.0418190956116,,2,,6,4,lightness,readingArea,realistic,75,2023-03-23_15h43.10.507,tripletExp_regina_11082022,2022.2.4,120.08841348191072,
10,0,3,0,0.694444444444444,1.0,0,0.027777777777778,0.298245614035088,0,0.444444444444444,0.298245614035088,ReadingArea_rsl0-rcl69-esl100-rsm0-rcm2-esm29-rsr0-rcr44-esr29,exr/ReadingArea_rsl0-rcl69-esl100-rsm0-rcm2-esm29-rsr0-rcr44-esr29.exr,ReadingArea_rsl0-rcl69-esl100-rsm0-rcm2-esm29-rsr0-rcr44-esr29.npz,,,,,0,100,100,87,,right,red,1.27,517.7659440040588,518.2324111461639,,2,,6,4,lightness,readingArea,realistic,75,2023-03-23_15h43.10.507,tripletExp_regina_11082022,2022.2.4,120.08841348191072,
1,13,2,0,0.111111111111111,0.298245614035088,0,0.111111111111111,3.10526315789474,0,0.25,0.298245614035088,ReadingArea_rsl0-rcl11-esl29-rsm0-rcm11-esm310-rsr0-rcr25-esr29,exr/ReadingArea_rsl0-rcl11-esl29-rsm0-rcm11-esm310-rsr0-rcr25-esr29.exr,ReadingArea_rsl0-rcl11-esl29-rsm0-rcm11-esm310-rsr0-rcr25-esr29.npz,,,,,0,101,101,118,,right,red,4.26,523.4890701770782,523.9641830921173,,2,,6,4,lightness,readingArea,realistic,75,2023-03-23_15h43.10.507,tripletExp_regina_11082022,2022.2.4,120.08841348191072,
12,14,4,0,0.027777777777778,3.10526315789474,0,0.25,3.10526315789474,0,0.694444444444444,0.298245614035088,ReadingArea_rsl0-rcl2-esl310-rsm0-rcm25-esm310-rsr0-rcr69-esr29,exr/ReadingArea_rsl0-rcl2-esl310-rsm0-rcm25-esm310-rsr0-rcr69-esr29.exr,ReadingArea_rsl0-rcl2-esl310-rsm0-rcm25-esm310-rsr0-rcr69-esr29.npz,,,,,0,102,102,315,,right,red,1.43,525.6785960197449,526.1286342144012,,2,,6,4,lightness,readingArea,realistic,75,2023-03-23_15h43.10.507,tripletExp_regina_11082022,2022.2.4,120.08841348191072,
1,10,11,0,0.111111111111111,0.298245614035088,0,0.694444444444444,1.0,0,1.0,1.0,ReadingArea_rsl0-rcl11-esl29-rsm0-rcm69-esm100-rsr0-rcr100-esr100,exr/ReadingArea_rsl0-rcl11-esl29-rsm0-rcm69-esm100-rsr0-rcr100-esr100.exr,ReadingArea_rsl0-rcl11-esl29-rsm0-rcm69-esm100-rsr0-rcr100-esr100.npz,,,,,0,103,103,483,,right,red,2.63,529.6149280071259,,,2,,6,4,lightness,readingArea,realistic,75,2023-03-23_15h43.10.507,tripletExp_regina_11082022,2022.2.4,120.08841348191072,
2,4,13,0,0.25,0.298245614035088,0,0.694444444444444,0.298245614035088,0,0.111111111111111,3.10526315789474,ReadingArea_rsl0-rcl25-esl29-rsm0-rcm69-esm29-rsr0-rcr11-esr310,exr/ReadingArea_rsl0-rcl25-esl29-rsm0-rcm69-esm29-rsr0-rcr11-esr310.exr,ReadingArea_rsl0-rcl25-esl29-rsm0-rcm69-esm29-rsr0-rcr11-esr310.npz,,,,,0,104,104,325,,right,red,2.69,533.6651201248169,,,2,,6,4,lightness,readingArea,realistic,75,2023-03-23_15h43.10.507,tripletExp_regina_11082022,2022.2.4,120.08841348191072,
12,2,9,0,0.027777777777778,3.10526315789474,0,0.25,0.298245614035088,0,0.444444444444444,1.0,ReadingArea_rsl0-rcl2-esl310-rsm0-rcm25-esm29-rsr0-rcr44-esr100,exr/ReadingArea_rsl0-rcl2-esl310-rsm0-rcm25-esm29-rsr0-rcr44-esr100.exr,ReadingArea_rsl0-rcl2-esl310-rsm0-rcm25-esm29-rsr0-rcr44-esr100.npz,,,,,0,105,105,495,,left,green,4.12,539.3387641906738,539.8014981746674,,2,,6,4,lightness,readingArea,realistic,75,2023-03-23_15h43.10.507,tripletExp_regina_11082022,2022.2.4,120.08841348191072,
12,13,7,0,0.027777777777778,3.10526315789474,0,0.111111111111111,3.10526315789474,0,0.111111111111111,1.0,ReadingArea_rsl0-rcl2-esl310-rsm0-rcm11-esm310-rsr0-rcr11-esr100,exr/ReadingArea_rsl0-rcl2-esl310-rsm0-rcm11-esm310-rsr0-rcr11-esr100.exr,ReadingArea_rsl0-rcl2-esl310-rsm0-rcm11-esm310-rsr0-rcr11-esr100.npz,,,,,0,106,106,408,,right,red,2.81,543.2541131973267,543.7037839889526,,2,,6,4,lightness,readingArea,realistic,75,2023-03-23_15h43.10.507,tripletExp_regina_11082022,2022.2.4,120.08841348191072,
6,7,3,0,0.027777777777778,1.0,0,0.111111111111111,1.0,0,0.444444444444444,0.298245614035088,ReadingArea_rsl0-rcl2-esl100-rsm0-rcm11-esm100-rsr0-rcr44-esr29,exr/ReadingArea_rsl0-rcl2-esl100-rsm0-rcm11-esm100-rsr0-rcr44-esr29.exr,ReadingArea_rsl0-rcl2-esl100-rsm0-rcm11-esm100-rsr0-rcr44-esr29.npz,,,,,0,107,107,47,,right,red,1.14,545.4081680774689,,,2,,6,4,lightness,readingArea,realistic,75,2023-03-23_15h43.10.507,tripletExp_regina_11082022,2022.2.4,120.08841348191072,
11,7,13,0,1.0,1.0,0,0.111111111111111,1.0,0,0.111111111111111,3.10526315789474,ReadingArea_rsl0-rcl100-esl100-rsm0-rcm11-esm100-rsr0-rcr11-esr310,exr/ReadingArea_rsl0-rcl100-esl100-rsm0-rcm11-esm100-rsr0-rcr11-esr310.exr,ReadingArea_rsl0-rcl100-esl100-rsm0-rcm11-esm100-rsr0-rcr11-esr310.npz,,,,,0,108,108,431,,right,red,1.85,547.5763041973114,548.0273640155792,,2,,6,4,lightness,readingArea,realistic,75,2023-03-23_15h43.10.507,tripletExp_regina_11082022,2022.2.4,120.08841348191072,
7,9,5,0,0.111111111111111,1.0,0,0.444444444444444,1.0,0,1.0,0.298245614035088,ReadingArea_rsl0-rcl11-esl100-rsm0-rcm44-esm100-rsr0-rcr100-esr29,exr/ReadingArea_rsl0-rcl11-esl100-rsm0-rcm44-esm100-rsr0-rcr100-esr29.exr,ReadingArea_rsl0-rcl11-esl100-rsm0-rcm44-esm100-rsr0-rcr100-esr29.npz,,,,,0,109,109,291,,right,red,1.47,549.7233550548553,550.1805729866028,,2,,6,4,lightness,readingArea,realistic,75,2023-03-23_15h43.10.507,tripletExp_regina_11082022,2022.2.4,120.08841348191072,
13,12,5,0,0.111111111111111,3.10526315789474,0,0.027777777777778,3.10526315789474,0,1.0,0.298245614035088,ReadingArea_rsl0-rcl11-esl310-rsm0-rcm2-esm310-rsr0-rcr100-esr29,exr/ReadingArea_rsl0-rcl11-esl310-rsm0-rcm2-esm310-rsr0-rcr100-esr29.exr,ReadingArea_rsl0-rcl11-esl310-rsm0-rcm2-esm310-rsr0-rcr100-esr29.npz,,,,,0,110,110,294,,left,green,3.22,553.6713972091675,554.1270442008972,,2,,6,4,lightness,readingArea,realistic,75,2023-03-23_15h43.10.507,tripletExp_regina_11082022,2022.2.4,120.08841348191072,
3,14,12,0,0.444444444444444,0.298245614035088,0,0.25,3.10526315789474,0,0.027777777777778,3.10526315789474,ReadingArea_rsl0-rcl44-esl29-rsm0-rcm25-esm310-rsr0-rcr2-esr310,exr/ReadingArea_rsl0-rcl44-esl29-rsm0-rcm25-esm310-rsr0-rcr2-esr310.exr,ReadingArea_rsl0-rcl44-esl29-rsm0-rcm25-esm310-rsr0-rcr2-esr310.npz,,,,,0,111,111,336,,left,green,2.67,557.6061210632324,558.072279214859,,2,,6,4,lightness,readingArea,realistic,75,2023-03-23_15h43.10.507,tripletExp_regina_11082022,2022.2.4,120.08841348191072,
3,13,1,0,0.444444444444444,0.298245614035088,0,0.111111111111111,3.10526315789474,0,0.111111111111111,0.298245614035088,ReadingArea_rsl0-rcl44-esl29-rsm0-rcm11-esm310-rsr0-rcr11-esr29,exr/ReadingArea_rsl0-rcl44-esl29-rsm0-rcm11-esm310-rsr0-rcr11-esr29.exr,ReadingArea_rsl0-rcl44-esl29-rsm0-rcm11-esm310-rsr0-rcr11-esr29.npz,,,,,0,112,112,421,,left,green,1.28,559.7922801971436,560.2494690418243,,2,,6,4,lightness,readingArea,realistic,75,2023-03-23_15h43.10.507,tripletExp_regina_11082022,2022.2.4,120.08841348191072,
0,5,1,0,0.027777777777778,0.298245614035088,0,1.0,0.298245614035088,0,0.111111111111111,0.298245614035088,ReadingArea_rsl0-rcl2-esl29-rsm0-rcm100-esm29-rsr0-rcr11-esr29,exr/ReadingArea_rsl0-rcl2-esl29-rsm0-rcm100-esm29-rsr0-rcr11-esr29.exr,ReadingArea_rsl0-rcl2-esl29-rsm0-rcm100-esm29-rsr0-rcr11-esr29.npz,,,,,0,113,113,367,,right,red,1.34,561.9594600200653,562.4098761081696,,2,,6,4,lightness,readingArea,realistic,75,2023-03-23_15h43.10.507,tripletExp_regina_11082022,2022.2.4,120.08841348191072,
2,1,6,0,0.25,0.298245614035088,0,0.111111111111111,0.298245614035088,0,0.027777777777778,1.0,ReadingArea_rsl0-rcl25-esl29-rsm0-rcm11-esm29-rsr0-rcr2-esr100,exr/ReadingArea_rsl0-rcl25-esl29-rsm0-rcm11-esm29-rsr0-rcr2-esr100.exr,ReadingArea_rsl0-rcl25-esl29-rsm0-rcm11-esm29-rsr0-rcr2-esr100.npz,,,,,0,114,114,171,,left,green,3.27,565.8752570152283,566.314877986908,,2,,6,4,lightness,readingArea,realistic,75,2023-03-23_15h43.10.507,tripletExp_regina_11082022,2022.2.4,120.08841348191072,
13,10,3,0,0.111111111111111,3.10526315789474,0,0.694444444444444,1.0,0,0.444444444444444,0.298245614035088,ReadingArea_rsl0-rcl11-esl310-rsm0-rcm69-esm100-rsr0-rcr44-esr29,exr/ReadingArea_rsl0-rcl11-esl310-rsm0-rcm69-esm100-rsr0-rcr44-esr29.exr,ReadingArea_rsl0-rcl11-esl310-rsm0-rcm69-esm100-rsr0-rcr44-esr29.npz,,,,,0,115,115,224,,left,green,2.48,569.7894370555878,570.2705471515656,,2,,6,4,lightness,readingArea,realistic,75,2023-03-23_15h43.10.507,tripletExp_regina_11082022,2022.2.4,120.08841348191072,
11,14,2,0,1.0,1.0,0,0.25,3.10526315789474,0,0.25,0.298245614035088,ReadingArea_rsl0-rcl100-esl100-rsm0-rcm25-esm310-rsr0-rcr25-esr29,exr/ReadingArea_rsl0-rcl100-esl100-rsm0-rcm25-esm310-rsr0-rcr25-esr29.exr,ReadingArea_rsl0-rcl100-esl100-rsm0-rcm25-esm310-rsr0-rcr25-esr29.npz,,,,,0,116,116,419,,left,green,1.13,571.9849140644073,572.4386761188507,,2,,6,4,lightness,readingArea,realistic,75,2023-03-23_15h43.10.507,tripletExp_regina_11082022,2022.2.4,120.08841348191072,
2,12,6,0,0.25,0.298245614035088,0,0.027777777777778,3.10526315789474,0,0.027777777777778,1.0,ReadingArea_rsl0-rcl25-esl29-rsm0-rcm2-esm310-rsr0-rcr2-esr100,exr/ReadingArea_rsl0-rcl25-esl29-rsm0-rcm2-esm310-rsr0-rcr2-esr100.exr,ReadingArea_rsl0-rcl25-esl29-rsm0-rcm2-esm310-rsr0-rcr2-esr100.npz,,,,,0,117,117,400,,left,green,1.42,574.1623451709747,574.5997321605682,,2,,6,4,lightness,readingArea,realistic,75,2023-03-23_15h43.10.507,tripletExp_regina_11082022,2022.2.4,120.08841348191072,
11,5,1,0,1.0,1.0,0,1.0,0.298245614035088,0,0.111111111111111,0.298245614035088,ReadingArea_rsl0-rcl100-esl100-rsm0-rcm100-esm29-rsr0-rcr11-esr29,exr/ReadingArea_rsl0-rcl100-esl100-rsm0-rcm100-esm29-rsr0-rcr11-esr29.exr,ReadingArea_rsl0-rcl100-esl100-rsm0-rcm100-esm29-rsr0-rcr11-esr29.npz,,,,,0,118,118,48,,left,green,1.44,576.3200771808624,576.9247012138367,,2,,6,4,lightness,readingArea,realistic,75,2023-03-23_15h43.10.507,tripletExp_regina_11082022,2022.2.4,120.08841348191072,
1,14,6,0,0.111111111111111,0.298245614035088,0,0.25,3.10526315789474,0,0.027777777777778,1.0,ReadingArea_rsl0-rcl11-esl29-rsm0-rcm25-esm310-rsr0-rcr2-esr100,exr/ReadingArea_rsl0-rcl11-esl29-rsm0-rcm25-esm310-rsr0-rcr2-esr100.exr,ReadingArea_rsl0-rcl11-esl29-rsm0-rcm25-esm310-rsr0-rcr2-esr100.npz,,,,,0,119,119,475,,left,green,2.75,580.3684301376343,580.8240351676941,,2,,6,4,lightness,readingArea,realistic,75,2023-03-23_15h43.10.507,tripletExp_regina_11082022,2022.2.4,120.08841348191072,
11,8,0,0,1.0,1.0,0,0.25,1.0,0,0.027777777777778,0.298245614035088,ReadingArea_rsl0-rcl100-esl100-rsm0-rcm25-esm100-rsr0-rcr2-esr29,exr/ReadingArea_rsl0-rcl100-esl100-rsm0-rcm25-esm100-rsr0-rcr2-esr29.exr,ReadingArea_rsl0-rcl100-esl100-rsm0-rcm25-esm100-rsr0-rcr2-esr29.npz,,,,,0,120,120,81,,left,green,1.21,582.5375571250916,583.0556120872498,,2,,6,4,lightness,readingArea,realistic,75,2023-03-23_15h43.10.507,tripletExp_regina_11082022,2022.2.4,120.08841348191072,
12,6,7,0,0.027777777777778,3.10526315789474,0,0.027777777777778,1.0,0,0.111111111111111,1.0,ReadingArea_rsl0-rcl2-esl310-rsm0-rcm2-esm100-rsr0-rcr11-esr100,exr/ReadingArea_rsl0-rcl2-esl310-rsm0-rcm2-esm100-rsr0-rcr11-esr100.exr,ReadingArea_rsl0-rcl2-esl310-rsm0-rcm2-esm100-rsr0-rcr11-esr100.npz,,,,,0,121,121,308,,left,green,1.36,584.774355173111,585.230672121048,,2,,6,4,lightness,readingArea,realistic,75,2023-03-23_15h43.10.507,tripletExp_regina_11082022,2022.2.4,120.08841348191072,
2,3,13,0,0.25,0.298245614035088,0,0.444444444444444,0.298245614035088,0,0.111111111111111,3.10526315789474,ReadingArea_rsl0-rcl25-esl29-rsm0-rcm44-esm29-rsr0-rcr11-esr310,exr/ReadingArea_rsl0-rcl25-esl29-rsm0-rcm44-esm29-rsr0-rcr11-esr310.exr,ReadingArea_rsl0-rcl25-esl29-rsm0-rcm44-esm29-rsr0-rcr11-esr310.npz,,,,,0,122,122,498,,left,green,2.7,588.71258020401,589.1763451099396,,2,,6,4,lightness,readingArea,realistic,75,2023-03-23_15h43.10.507,tripletExp_regina_11082022,2022.2.4,120.08841348191072,
2,9,11,0,0.25,0.298245614035088,0,0.444444444444444,1.0,0,1.0,1.0,ReadingArea_rsl0-rcl25-esl29-rsm0-rcm44-esm100-rsr0-rcr100-esr100,exr/ReadingArea_rsl0-rcl25-esl29-rsm0-rcm44-esm100-rsr0-rcr100-esr100.exr,ReadingArea_rsl0-rcl25-esl29-rsm0-rcm44-esm100-rsr0-rcr100-esr100.npz,,,,,0,123,123,164,,right,red,3.35,592.6695301532745,593.129075050354,,2,,6,4,lightness,readingArea,realistic,75,2023-03-23_15h43.10.507,tripletExp_regina_11082022,2022.2.4,120.08841348191072,
9,14,7,0,0.444444444444444,1.0,0,0.25,3.10526315789474,0,0.111111111111111,1.0,ReadingArea_rsl0-rcl44-esl100-rsm0-rcm25-esm310-rsr0-rcr11-esr100,exr/ReadingArea_rsl0-rcl44-esl100-rsm0-rcm25-esm310-rsr0-rcr11-esr100.exr,ReadingArea_rsl0-rcl44-esl100-rsm0-rcm25-esm310-rsr0-rcr11-esr100.npz,,,,,0,124,124,44,,left,green,2.89,596.6217291355133,597.0799190998077,,2,,6,4,lightness,readingArea,realistic,75,2023-03-23_15h43.10.507,tripletExp_regina_11082022,2022.2.4,120.08841348191072,
0,14,10,0,0.027777777777778,0.298245614035088,0,0.25,3.10526315789474,0,0.694444444444444,1.0,ReadingArea_rsl0-rcl2-esl29-rsm0-rcm25-esm310-rsr0-rcr69-esr100,exr/ReadingArea_rsl0-rcl2-esl29-rsm0-rcm25-esm310-rsr0-rcr69-esr100.exr,ReadingArea_rsl0-rcl2-esl29-rsm0-rcm25-esm310-rsr0-rcr69-esr100.npz,,,,,0,125,125,128,,right,red,0.93,598.7866480350494,599.2261581420898,,2,,6,4,lightness,readingArea,realistic,75,2023-03-23_15h43.10.507,tripletExp_regina_11082022,2022.2.4,120.08841348191072,
8,0,4,0,0.25,1.0,0,0.027777777777778,0.298245614035088,0,0.694444444444444,0.298245614035088,ReadingArea_rsl0-rcl25-esl100-rsm0-rcm2-esm29-rsr0-rcr69-esr29,exr/ReadingArea_rsl0-rcl25-esl100-rsm0-rcm2-esm29-rsr0-rcr69-esr29.exr,ReadingArea_rsl0-rcl25-esl100-rsm0-rcm2-esm29-rsr0-rcr69-esr29.npz,,,,,0,126,126,346,,left,green,2.99,602.6752440929413,603.1253991127014,,2,,6,4,lightness,readingArea,realistic,75,2023-03-23_15h43.10.507,tripletExp_regina_11082022,2022.2.4,120.08841348191072,
2,3,6,0,0.25,0.298245614035088,0,0.444444444444444,0.298245614035088,0,0.027777777777778,1.0,ReadingArea_rsl0-rcl25-esl29-rsm0-rcm44-esm29-rsr0-rcr2-esr100,exr/ReadingArea_rsl0-rcl25-esl29-rsm0-rcm44-esm29-rsr0-rcr2-esr100.exr,ReadingArea_rsl0-rcl25-esl29-rsm0-rcm44-esm29-rsr0-rcr2-esr100.npz,,,,,0,127,127,357,,left,green,1.23,604.8350710868835,605.4574689865112,,2,,6,4,lightness,readingArea,realistic,75,2023-03-23_15h43.10.507,tripletExp_regina_11082022,2022.2.4,120.08841348191072,
7,0,3,0,0.111111111111111,1.0,0,0.027777777777778,0.298245614035088,0,0.444444444444444,0.298245614035088,ReadingArea_rsl0-rcl11-esl100-rsm0-rcm2-esm29-rsr0-rcr44-esr29,exr/ReadingArea_rsl0-rcl11-esl100-rsm0-rcm2-esm29-rsr0-rcr44-esr29.exr,ReadingArea_rsl0-rcl11-esl100-rsm0-rcm2-esm29-rsr0-rcr44-esr29.npz,,,,,0,128,128,237,,left,green,3.08,608.9229810237885,609.377473115921,,2,,6,4,lightness,readingArea,realistic,75,2023-03-23_15h43.10.507,tripletExp_regina_11082022,2022.2.4,120.08841348191072,
14,8,9,0,0.25,3.10526315789474,0,0.25,1.0,0,0.444444444444444,1.0,ReadingArea_rsl0-rcl25-esl310-rsm0-rcm25-esm100-rsr0-rcr44-esr100,exr/ReadingArea_rsl0-rcl25-esl310-rsm0-rcm25-esm100-rsr0-rcr44-esr100.exr,ReadingArea_rsl0-rcl25-esl310-rsm0-rcm25-esm100-rsr0-rcr44-esr100.npz,,,,,0,129,129,518,,right,red,2.56,612.8548719882965,613.3210451602936,,2,,6,4,lightness,readingArea,realistic,75,2023-03-23_15h43.10.507,tripletExp_regina_11082022,2022.2.4,120.08841348191072,
2,0,13,0,0.25,0.298245614035088,0,0.027777777777778,0.298245614035088,0,0.111111111111111,3.10526315789474,ReadingArea_rsl0-rcl25-esl29-rsm0-rcm2-esm29-rsr0-rcr11-esr310,exr/ReadingArea_rsl0-rcl25-esl29-rsm0-rcm2-esm29-rsr0-rcr11-esr310.exr,ReadingArea_rsl0-rcl25-esl29-rsm0-rcm2-esm29-rsr0-rcr11-esr310.npz,,,,,0,130,130,50,,left,green,0.93,615.0121970176697,615.6017141342163,,2,,6,4,lightness,readingArea,realistic,75,2023-03-23_15h43.10.507,tripletExp_regina_11082022,2022.2.4,120.08841348191072,
12,6,3,0,0.027777777777778,3.10526315789474,0,0.027777777777778,1.0,0,0.444444444444444,0.298245614035088,ReadingArea_rsl0-rcl2-esl310-rsm0-rcm2-esm100-rsr0-rcr44-esr29,exr/ReadingArea_rsl0-rcl2-esl310-rsm0-rcm2-esm100-rsr0-rcr44-esr29.exr,ReadingArea_rsl0-rcl2-esl310-rsm0-rcm2-esm100-rsr0-rcr44-esr29.npz,,,,,0,131,131,139,,left,green,1.34,617.289587020874,617.7822539806366,,2,,6,4,lightness,readingArea,realistic,75,2023-03-23_15h43.10.507,tripletExp_regina_11082022,2022.2.4,120.08841348191072,
13,0,9,0,0.111111111111111,3.10526315789474,0,0.027777777777778,0.298245614035088,0,0.444444444444444,1.0,ReadingArea_rsl0-rcl11-esl310-rsm0-rcm2-esm29-rsr0-rcr44-esr100,exr/ReadingArea_rsl0-rcl11-esl310-rsm0-rcm2-esm29-rsr0-rcr44-esr100.exr,ReadingArea_rsl0-rcl11-esl310-rsm0-rcm2-esm29-rsr0-rcr44-esr100.npz,,,,,0,132,132,373,,left,green,2.38,621.2890210151672,621.7739779949188,,2,,6,4,lightness,readingArea,realistic,75,2023-03-23_15h43.10.507,tripletExp_regina_11082022,2022.2.4,120.08841348191072,
11,8,10,0,1.0,1.0,0,0.25,1.0,0,0.694444444444444,1.0,ReadingArea_rsl0-rcl100-esl100-rsm0-rcm25-esm100-rsr0-rcr69-esr100,exr/ReadingArea_rsl0-rcl100-esl100-rsm0-rcm25-esm100-rsr0-rcr69-esr100.exr,ReadingArea_rsl0-rcl100-esl100-rsm0-rcm25-esm100-rsr0-rcr69-esr100.npz,,,,,0,133,133,67,,left,green,1.16,623.4930620193481,624.1479539871216,,2,,6,4,lightness,readingArea,realistic,75,2023-03-23_15h43.10.507,tripletExp_regina_11082022,2022.2.4,120.08841348191072,
8,4,2,0,0.25,1.0,0,0.694444444444444,0.298245614035088,0,0.25,0.298245614035088,ReadingArea_rsl0-rcl25-esl100-rsm0-rcm69-esm29-rsr0-rcr25-esr29,exr/ReadingArea_rsl0-rcl25-esl100-rsm0-rcm69-esm29-rsr0-rcr25-esr29.exr,ReadingArea_rsl0-rcl25-esl100-rsm0-rcm69-esm29-rsr0-rcr25-esr29.npz,,,,,0,134,134,184,,left,green,2.83,627.6333160400391,628.1076531410217,,2,,6,4,lightness,readingArea,realistic,75,2023-03-23_15h43.10.507,tripletExp_regina_11082022,2022.2.4,120.08841348191072,
11,0,10,0,1.0,1.0,0,0.027777777777778,0.298245614035088,0,0.694444444444444,1.0,ReadingArea_rsl0-rcl100-esl100-rsm0-rcm2-esm29-rsr0-rcr69-esr100,exr/ReadingArea_rsl0-rcl100-esl100-rsm0-rcm2-esm29-rsr0-rcr69-esr100.exr,ReadingArea_rsl0-rcl100-esl100-rsm0-rcm2-esm29-rsr0-rcr69-esr100.npz,,,,,0,135,135,259,,right,red,1.51,629.8170130252838,630.2892580032349,,2,,6,4,lightness,readingArea,realistic,75,2023-03-23_15h43.10.507,tripletExp_regina_11082022,2022.2.4,120.08841348191072,
11,4,0,0,1.0,1.0,0,0.694444444444444,0.298245614035088,0,0.027777777777778,0.298245614035088,ReadingArea_rsl0-rcl100-esl100-rsm0-rcm69-esm29-rsr0-rcr2-esr29,exr/ReadingArea_rsl0-rcl100-esl100-rsm0-rcm69-esm29-rsr0-rcr2-esr29.exr,ReadingArea_rsl0-rcl100-esl100-rsm0-rcm69-esm29-rsr0-rcr2-esr29.npz,,,,,0,136,136,219,,left,green,3.06,633.767492055893,634.245609998703,,2,,6,4,lightness,readingArea,realistic,75,2023-03-23_15h43.10.507,tripletExp_regina_11082022,2022.2.4,120.08841348191072,
7,2,6,0,0.111111111111111,1.0,0,0.25,0.298245614035088,0,0.027777777777778,1.0,ReadingArea_rsl0-rcl11-esl100-rsm0-rcm25-esm29-rsr0-rcr2-esr100,exr/ReadingArea_rsl0-rcl11-esl100-rsm0-rcm25-esm29-rsr0-rcr2-esr100.exr,ReadingArea_rsl0-rcl11-esl100-rsm0-rcm25-esm29-rsr0-rcr2-esr100.npz,,,,,0,137,137,506,,left,green,2.79,637.7462220191956,638.2899131774902,,2,,6,4,lightness,readingArea,realistic,75,2023-03-23_15h43.10.507,tripletExp_regina_11082022,2022.2.4,120.08841348191072,
14,13,2,0,0.25,3.10526315789474,0,0.111111111111111,3.10526315789474,0,0.25,0.298245614035088,ReadingArea_rsl0-rcl25-esl310-rsm0-rcm11-esm310-rsr0-rcr25-esr29,exr/ReadingArea_rsl0-rcl25-esl310-rsm0-rcm11-esm310-rsr0-rcr25-esr29.exr,ReadingArea_rsl0-rcl25-esl310-rsm0-rcm11-esm310-rsr0-rcr25-esr29.npz,,,,,0,138,138,377,,right,red,3.02,641.7668790817261,642.2213201522827,,2,,6,4,lightness,readingArea,realistic,75,2023-03-23_15h43.10.507,tripletExp_regina_11082022,2022.2.4,120.08841348191072,
12,9,2,0,0.027777777777778,3.10526315789474,0,0.444444444444444,1.0,0,0.25,0.298245614035088,ReadingArea_rsl0-rcl2-esl310-rsm0-rcm44-esm100-rsr0-rcr25-esr29,exr/ReadingArea_rsl0-rcl2-esl310-rsm0-rcm44-esm100-rsr0-rcr25-esr29.exr,ReadingArea_rsl0-rcl2-esl310-rsm0-rcm44-esm100-rsr0-rcr25-esr29.npz,,,,,0,139,139,226,,right,red,2.86,645.6847131252289,646.1326570510864,,2,,6,4,lightness,readingArea,realistic,75,2023-03-23_15h43.10.507,tripletExp_regina_11082022,2022.2.4,120.08841348191072,
1,8,12,0,0.111111111111111,0.298245614035088,0,0.25,1.0,0,0.027777777777778,3.10526315789474,ReadingArea_rsl0-rcl11-esl29-rsm0-rcm25-esm100-rsr0-rcr2-esr310,exr/ReadingArea_rsl0-rcl11-esl29-rsm0-rcm25-esm100-rsr0-rcr2-esr310.exr,ReadingArea_rsl0-rcl11-esl29-rsm0-rcm25-esm100-rsr0-rcr2-esr310.npz,,,,,0,140,140,156,,right,red,2.96,649.6060180664062,650.0674161911011,,2,,6,4,lightness,readingArea,realistic,75,2023-03-23_15h43.10.507,tripletExp_regina_11082022,2022.2.4,120.08841348191072,
7,10,5,0,0.111111111111111,1.0,0,0.694444444444444,1.0,0,1.0,0.298245614035088,ReadingArea_rsl0-rcl11-esl100-rsm0-rcm69-esm100-rsr0-rcr100-esr29,exr/ReadingArea_rsl0-rcl11-esl100-rsm0-rcm69-esm100-rsr0-rcr100-esr29.exr,ReadingArea_rsl0-rcl11-esl100-rsm0-rcm69-esm100-rsr0-rcr100-esr29.npz,,,,,0,141,141,395,,right,red,2.67,653.5163421630859,653.9494740962982,,2,,6,4,lightness,readingArea,realistic,75,2023-03-23_15h43.10.507,tripletExp_regina_11082022,2022.2.4,120.08841348191072,
6,10,11,0,0.027777777777778,1.0,0,0.694444444444444,1.0,0,1.0,1.0,ReadingArea_rsl0-rcl2-esl100-rsm0-rcm69-esm100-rsr0-rcr100-esr100,exr/ReadingArea_rsl0-rcl2-esl100-rsm0-rcm69-esm100-rsr0-rcr100-esr100.exr,ReadingArea_rsl0-rcl2-esl100-rsm0-rcm69-esm100-rsr0-rcr100-esr100.npz,,,,,0,142,142,116,,right,red,2.13,657.4340541362762,,,2,,6,4,lightness,readingArea,realistic,75,2023-03-23_15h43.10.507,tripletExp_regina_11082022,2022.2.4,120.08841348191072,
0,5,11,0,0.027777777777778,0.298245614035088,0,1.0,0.298245614035088,0,1.0,1.0,ReadingArea_rsl0-rcl2-esl29-rsm0-rcm100-esm29-rsr0-rcr100-esr100,exr/ReadingArea_rsl0-rcl2-esl29-rsm0-rcm100-esm29-rsr0-rcr100-esr100.exr,ReadingArea_rsl0-rcl2-esl29-rsm0-rcm100-esm29-rsr0-rcr100-esr100.npz,,,,,0,143,143,422,,right,red,1.27,659.5877799987793,660.0339851379395,,2,,6,4,lightness,readingArea,realistic,75,2023-03-23_15h43.10.507,tripletExp_regina_11082022,2022.2.4,120.08841348191072,
14,3,4,0,0.25,3.10526315789474,0,0.444444444444444,0.298245614035088,0,0.694444444444444,0.298245614035088,ReadingArea_rsl0-rcl25-esl310-rsm0-rcm44-esm29-rsr0-rcr69-esr29,exr/ReadingArea_rsl0-rcl25-esl310-rsm0-rcm44-esm29-rsr0-rcr69-esr29.exr,ReadingArea_rsl0-rcl25-esl310-rsm0-rcm44-esm29-rsr0-rcr69-esr29.npz,,,,,0,144,144,127,,right,red,1.62,661.7591071128845,662.2523100376129,,2,,6,4,lightness,readingArea,realistic,75,2023-03-23_15h43.10.507,tripletExp_regina_11082022,2022.2.4,120.08841348191072,
8,12,4,0,0.25,1.0,0,0.027777777777778,3.10526315789474,0,0.694444444444444,0.298245614035088,ReadingArea_rsl0-rcl25-esl100-rsm0-rcm2-esm310-rsr0-rcr69-esr29,exr/ReadingArea_rsl0-rcl25-esl100-rsm0-rcm2-esm310-rsr0-rcr69-esr29.exr,ReadingArea_rsl0-rcl25-esl100-rsm0-rcm2-esm310-rsr0-rcr69-esr29.npz,,,,,0,145,145,30,,right,red,4.7,667.4883329868317,667.9372770786285,,2,,6,4,lightness,readingArea,realistic,75,2023-03-23_15h43.10.507,tripletExp_regina_11082022,2022.2.4,120.08841348191072,
14,5,11,0,0.25,3.10526315789474,0,1.0,0.298245614035088,0,1.0,1.0,ReadingArea_rsl0-rcl25-esl310-rsm0-rcm100-esm29-rsr0-rcr100-esr100,exr/ReadingArea_rsl0-rcl25-esl310-rsm0-rcm100-esm29-rsr0-rcr100-esr100.exr,ReadingArea_rsl0-rcl25-esl310-rsm0-rcm100-esm29-rsr0-rcr100-esr100.npz,,,,,0,146,146,161,,left,green,1.97,671.403792142868,671.8617780208588,,2,,6,4,lightness,readingArea,realistic,75,2023-03-23_15h43.10.507,tripletExp_regina_11082022,2022.2.4,120.08841348191072,
2,1,10,0,0.25,0.298245614035088,0,0.111111111111111,0.298245614035088,0,0.694444444444444,1.0,ReadingArea_rsl0-rcl25-esl29-rsm0-rcm11-esm29-rsr0-rcr69-esr100,exr/ReadingArea_rsl0-rcl25-esl29-rsm0-rcm11-esm29-rsr0-rcr69-esr100.exr,ReadingArea_rsl0-rcl25-esl29-rsm0-rcm11-esm29-rsr0-rcr69-esr100.npz,,,,,0,147,147,585,,left,green,2.39,675.3352930545807,675.7915620803833,,2,,6,4,lightness,readingArea,realistic,75,2023-03-23_15h43.10.507,tripletExp_regina_11082022,2022.2.4,120.08841348191072,
7,10,4,0,0.111111111111111,1.0,0,0.694444444444444,1.0,0,0.694444444444444,0.298245614035088,ReadingArea_rsl0-rcl11-esl100-rsm0-rcm69-esm100-rsr0-rcr69-esr29,exr/ReadingArea_rsl0-rcl11-esl100-rsm0-rcm69-esm100-rsr0-rcr69-esr29.exr,ReadingArea_rsl0-rcl11-esl100-rsm0-rcm69-esm100-rsr0-rcr69-esr29.npz,,,,,0,148,148,46,,right,red,1.55,677.5043060779572,,,2,,6,4,lightness,readingArea,realistic,75,2023-03-23_15h43.10.507,tripletExp_regina_11082022,2022.2.4,120.08841348191072,
12,3,13,0,0.027777777777778,3.10526315789474,0,0.444444444444444,0.298245614035088,0,0.111111111111111,3.10526315789474,ReadingArea_rsl0-rcl2-esl310-rsm0-rcm44-esm29-rsr0-rcr11-esr310,exr/ReadingArea_rsl0-rcl2-esl310-rsm0-rcm44-esm29-rsr0-rcr11-esr310.exr,ReadingArea_rsl0-rcl2-esl310-rsm0-rcm44-esm29-rsr0-rcr11-esr310.npz,,,,,0,149,149,383,,right,red,2.38,681.4632270336151,,,2,,6,4,lightness,readingArea,realistic,75,2023-03-23_15h43.10.507,tripletExp_regina_11082022,2022.2.4,120.08841348191072,
11,13,1,0,1.0,1.0,0,0.111111111111111,3.10526315789474,0,0.111111111111111,0.298245614035088,ReadingArea_rsl0-rcl100-esl100-rsm0-rcm11-esm310-rsr0-rcr11-esr29,exr/ReadingArea_rsl0-rcl100-esl100-rsm0-rcm11-esm310-rsr0-rcr11-esr29.exr,ReadingArea_rsl0-rcl100-esl100-rsm0-rcm11-esm310-rsr0-rcr11-esr29.npz,,,,,0,150,150,185,,right,red,4.33,700.4547610282898,701.0026731491089,,3,,6,4,lightness,readingArea,realistic,75,2023-03-23_15h43.10.507,tripletExp_regina_11082022,2022.2.4,120.08841348191072,
12,0,2,0,0.027777777777778,3.10526315789474,0,0.027777777777778,0.298245614035088,0,0.25,0.298245614035088,ReadingArea_rsl0-rcl2-esl310-rsm0-rcm2-esm29-rsr0-rcr25-esr29,exr/ReadingArea_rsl0-rcl2-esl310-rsm0-rcm2-esm29-rsr0-rcr25-esr29.exr,ReadingArea_rsl0-rcl2-esl310-rsm0-rcm2-esm29-rsr0-rcr25-esr29.npz,,,,,0,151,151,77,,left,green,1.27,702.7244629859924,,,3,,6,4,lightness,readingArea,realistic,75,2023-03-23_15h43.10.507,tripletExp_regina_11082022,2022.2.4,120.08841348191072,
0,9,11,0,0.027777777777778,0.298245614035088,0,0.444444444444444,1.0,0,1.0,1.0,ReadingArea_rsl0-rcl2-esl29-rsm0-rcm44-esm100-rsr0-rcr100-esr100,exr/ReadingArea_rsl0-rcl2-esl29-rsm0-rcm44-esm100-rsr0-rcr100-esr100.exr,ReadingArea_rsl0-rcl2-esl29-rsm0-rcm44-esm100-rsr0-rcr100-esr100.npz,,,,,0,152,152,448,,right,red,1.44,704.8948380947113,705.3539910316467,,3,,6,4,lightness,readingArea,realistic,75,2023-03-23_15h43.10.507,tripletExp_regina_11082022,2022.2.4,120.08841348191072,
11,3,12,0,1.0,1.0,0,0.444444444444444,0.298245614035088,0,0.027777777777778,3.10526315789474,ReadingArea_rsl0-rcl100-esl100-rsm0-rcm44-esm29-rsr0-rcr2-esr310,exr/ReadingArea_rsl0-rcl100-esl100-rsm0-rcm44-esm29-rsr0-rcr2-esr310.exr,ReadingArea_rsl0-rcl100-esl100-rsm0-rcm44-esm29-rsr0-rcr2-esr310.npz,,,,,0,153,153,355,,right,red,2.41,708.8055341243744,709.265053987503,,3,,6,4,lightness,readingArea,realistic,75,2023-03-23_15h43.10.507,tripletExp_regina_11082022,2022.2.4,120.08841348191072,
9,6,8,0,0.444444444444444,1.0,0,0.027777777777778,1.0,0,0.25,1.0,ReadingArea_rsl0-rcl44-esl100-rsm0-rcm2-esm100-rsr0-rcr25-esr100,exr/ReadingArea_rsl0-rcl44-esl100-rsm0-rcm2-esm100-rsr0-rcr25-esr100.exr,ReadingArea_rsl0-rcl44-esl100-rsm0-rcm2-esm100-rsr0-rcr25-esr100.npz,,,,,0,154,154,312,,right,red,2.45,712.7212390899658,713.1887111663818,,3,,6,4,lightness,readingArea,realistic,75,2023-03-23_15h43.10.507,tripletExp_regina_11082022,2022.2.4,120.08841348191072,
1,8,5,0,0.111111111111111,0.298245614035088,0,0.25,1.0,0,1.0,0.298245614035088,ReadingArea_rsl0-rcl11-esl29-rsm0-rcm25-esm100-rsr0-rcr100-esr29,exr/ReadingArea_rsl0-rcl11-esl29-rsm0-rcm25-esm100-rsr0-rcr100-esr29.exr,ReadingArea_rsl0-rcl11-esl29-rsm0-rcm25-esm100-rsr0-rcr100-esr29.npz,,,,,0,155,155,445,,right,red,2.26,716.6469371318817,717.1100771427155,,3,,6,4,lightness,readingArea,realistic,75,2023-03-23_15h43.10.507,tripletExp_regina_11082022,2022.2.4,120.08841348191072,
13,14,7,0,0.111111111111111,3.10526315789474,0,0.25,3.10526315789474,0,0.111111111111111,1.0,ReadingArea_rsl0-rcl11-esl310-rsm0-rcm25-esm310-rsr0-rcr11-esr100,exr/ReadingArea_rsl0-rcl11-esl310-rsm0-rcm25-esm310-rsr0-rcr11-esr100.exr,ReadingArea_rsl0-rcl11-esl310-rsm0-rcm25-esm310-rsr0-rcr11-esr100.npz,,,,,0,156,156,324,,left,green,2.55,720.5822501182556,721.022919178009,,3,,6,4,lightness,readingArea,realistic,75,2023-03-23_15h43.10.507,tripletExp_regina_11082022,2022.2.4,120.08841348191072,
6,0,4,0,0.027777777777778,1.0,0,0.027777777777778,0.298245614035088,0,0.694444444444444,0.298245614035088,ReadingArea_rsl0-rcl2-esl100-rsm0-rcm2-esm29-rsr0-rcr69-esr29,exr/ReadingArea_rsl0-rcl2-esl100-rsm0-rcm2-esm29-rsr0-rcr69-esr29.exr,ReadingArea_rsl0-rcl2-esl100-rsm0-rcm2-esm29-rsr0-rcr69-esr29.npz,,,,,0,157,157,555,,left,green,0.98,722.7136311531067,723.2043430805206,,3,,6,4,lightness,readingArea,realistic,75,2023-03-23_15h43.10.507,tripletExp_regina_11082022,2022.2.4,120.08841348191072,
0,9,14,0,0.027777777777778,0.298245614035088,0,0.444444444444444,1.0,0,0.25,3.10526315789474,ReadingArea_rsl0-rcl2-esl29-rsm0-rcm44-esm100-rsr0-rcr25-esr310,exr/ReadingArea_rsl0-rcl2-esl29-rsm0-rcm44-esm100-rsr0-rcr25-esr310.exr,ReadingArea_rsl0-rcl2-esl29-rsm0-rcm44-esm100-rsr0-rcr25-esr310.npz,,,,,0,158,158,433,,right,red,1.02,724.9275970458984,725.3718121051788,,3,,6,4,lightness,readingArea,realistic,75,2023-03-23_15h43.10.507,tripletExp_regina_11082022,2022.2.4,120.08841348191072,
2,3,9,0,0.25,0.298245614035088,0,0.444444444444444,0.298245614035088,0,0.444444444444444,1.0,ReadingArea_rsl0-rcl25-esl29-rsm0-rcm44-esm29-rsr0-rcr44-esr100,exr/ReadingArea_rsl0-rcl25-esl29-rsm0-rcm44-esm29-rsr0-rcr44-esr100.exr,ReadingArea_rsl0-rcl25-esl29-rsm0-rcm44-esm29-rsr0-rcr44-esr100.npz,,,,,0,159,159,190,,left,green,1.12,727.0626981258392,727.5034132003784,,3,,6,4,lightness,readingArea,realistic,75,2023-03-23_15h43.10.507,tripletExp_regina_11082022,2022.2.4,120.08841348191072,
3,0,8,0,0.444444444444444,0.298245614035088,0,0.027777777777778,0.298245614035088,0,0.25,1.0,ReadingArea_rsl0-rcl44-esl29-rsm0-rcm2-esm29-rsr0-rcr25-esr100,exr/ReadingArea_rsl0-rcl44-esl29-rsm0-rcm2-esm29-rsr0-rcr25-esr100.exr,ReadingArea_rsl0-rcl44-esl29-rsm0-rcm2-esm29-rsr0-rcr25-esr100.npz,,,,,0,160,160,510,,left,green,2.51,730.9598472118378,731.4342641830444,,3,,6,4,lightness,readingArea,realistic,75,2023-03-23_15h43.10.507,tripletExp_regina_11082022,2022.2.4,120.08841348191072,
6,10,8,0,0.027777777777778,1.0,0,0.694444444444444,1.0,0,0.25,1.0,ReadingArea_rsl0-rcl2-esl100-rsm0-rcm69-esm100-rsr0-rcr25-esr100,exr/ReadingArea_rsl0-rcl2-esl100-rsm0-rcm69-esm100-rsr0-rcr25-esr100.exr,ReadingArea_rsl0-rcl2-esl100-rsm0-rcm69-esm100-rsr0-rcr25-esr100.npz,,,,,0,161,161,167,,right,red,1.23,733.1267290115356,733.5801169872284,,3,,6,4,lightness,readingArea,realistic,75,2023-03-23_15h43.10.507,tripletExp_regina_11082022,2022.2.4,120.08841348191072,
10,1,0,0,0.694444444444444,1.0,0,0.111111111111111,0.298245614035088,0,0.027777777777778,0.298245614035088,ReadingArea_rsl0-rcl69-esl100-rsm0-rcm11-esm29-rsr0-rcr2-esr29,exr/ReadingArea_rsl0-rcl69-esl100-rsm0-rcm11-esm29-rsr0-rcr2-esr29.exr,ReadingArea_rsl0-rcl69-esl100-rsm0-rcm11-esm29-rsr0-rcr2-esr29.npz,,,,,0,162,162,276,,right,red,2.49,737.036838054657,737.5191411972046,,3,,6,4,lightness,readingArea,realistic,75,2023-03-23_15h43.10.507,tripletExp_regina_11082022,2022.2.4,120.08841348191072,
7,12,1,0,0.111111111111111,1.0,0,0.027777777777778,3.10526315789474,0,0.111111111111111,0.298245614035088,ReadingArea_rsl0-rcl11-esl100-rsm0-rcm2-esm310-rsr0-rcr11-esr29,exr/ReadingArea_rsl0-rcl11-esl100-rsm0-rcm2-esm310-rsr0-rcr11-esr29.exr,ReadingArea_rsl0-rcl11-esl100-rsm0-rcm2-esm310-rsr0-rcr11-esr29.npz,,,,,0,163,163,20,,left,green,2.85,740.9977509975433,,,3,,6,4,lightness,readingArea,realistic,75,2023-03-23_15h43.10.507,tripletExp_regina_11082022,2022.2.4,120.08841348191072,
14,7,8,0,0.25,3.10526315789474,0,0.111111111111111,1.0,0,0.25,1.0,ReadingArea_rsl0-rcl25-esl310-rsm0-rcm11-esm100-rsr0-rcr25-esr100,exr/ReadingArea_rsl0-rcl25-esl310-rsm0-rcm11-esm100-rsr0-rcr25-esr100.exr,ReadingArea_rsl0-rcl25-esl310-rsm0-rcm11-esm100-rsr0-rcr25-esr100.npz,,,,,0,164,164,326,,right,red,2.58,744.9190771579742,745.3912410736084,,3,,6,4,lightness,readingArea,realistic,75,2023-03-23_15h43.10.507,tripletExp_regina_11082022,2022.2.4,120.08841348191072,
13,6,1,0,0.111111111111111,3.10526315789474,0,0.027777777777778,1.0,0,0.111111111111111,0.298245614035088,ReadingArea_rsl0-rcl11-esl310-rsm0-rcm2-esm100-rsr0-rcr11-esr29,exr/ReadingArea_rsl0-rcl11-esl310-rsm0-rcm2-esm100-rsr0-rcr11-esr29.exr,ReadingArea_rsl0-rcl11-esl310-rsm0-rcm2-esm100-rsr0-rcr11-esr29.npz,,,,,0,165,165,486,,right,red,1.09,747.1055262088776,747.5445880889893,,3,,6,4,lightness,readingArea,realistic,75,2023-03-23_15h43.10.507,tripletExp_regina_11082022,2022.2.4,120.08841348191072,
7,13,4,0,0.111111111111111,1.0,0,0.111111111111111,3.10526315789474,0,0.694444444444444,0.298245614035088,ReadingArea_rsl0-rcl11-esl100-rsm0-rcm11-esm310-rsr0-rcr69-esr29,exr/ReadingArea_rsl0-rcl11-esl100-rsm0-rcm11-esm310-rsr0-rcr69-esr29.exr,ReadingArea_rsl0-rcl11-esl100-rsm0-rcm11-esm310-rsr0-rcr69-esr29.npz,,,,,0,166,166,456,,right,red,4.47,752.7508451938629,753.2566630840302,,3,,6,4,lightness,readingArea,realistic,75,2023-03-23_15h43.10.507,tripletExp_regina_11082022,2022.2.4,120.08841348191072,
3,13,12,0,0.444444444444444,0.298245614035088,0,0.111111111111111,3.10526315789474,0,0.027777777777778,3.10526315789474,ReadingArea_rsl0-rcl44-esl29-rsm0-rcm11-esm310-rsr0-rcr2-esr310,exr/ReadingArea_rsl0-rcl44-esl29-rsm0-rcm11-esm310-rsr0-rcr2-esr310.exr,ReadingArea_rsl0-rcl44-esl29-rsm0-rcm11-esm310-rsr0-rcr2-esr310.npz,,,,,0,167,167,34,,left,green,2.58,756.7278051376343,757.1997320652008,,3,,6,4,lightness,readingArea,realistic,75,2023-03-23_15h43.10.507,tripletExp_regina_11082022,2022.2.4,120.08841348191072,
7,3,0,0,0.111111111111111,1.0,0,0.444444444444444,0.298245614035088,0,0.027777777777778,0.298245614035088,ReadingArea_rsl0-rcl11-esl100-rsm0-rcm44-esm29-rsr0-rcr2-esr29,exr/ReadingArea_rsl0-rcl11-esl100-rsm0-rcm44-esm29-rsr0-rcr2-esr29.exr,ReadingArea_rsl0-rcl11-esl100-rsm0-rcm44-esm29-rsr0-rcr2-esr29.npz,,,,,0,168,168,318,,left,green,2.41,760.6641070842743,761.1244790554047,,3,,6,4,lightness,readingArea,realistic,75,2023-03-23_15h43.10.507,tripletExp_regina_11082022,2022.2.4,120.08841348191072,
5,14,3,0,1.0,0.298245614035088,0,0.25,3.10526315789474,0,0.444444444444444,0.298245614035088,ReadingArea_rsl0-rcl100-esl29-rsm0-rcm25-esm310-rsr0-rcr44-esr29,exr/ReadingArea_rsl0-rcl100-esl29-rsm0-rcm25-esm310-rsr0-rcr44-esr29.exr,ReadingArea_rsl0-rcl100-esl29-rsm0-rcm25-esm310-rsr0-rcr44-esr29.npz,,,,,0,169,169,93,,left,green,1.09,762.847254037857,763.2942731380463,,3,,6,4,lightness,readingArea,realistic,75,2023-03-23_15h43.10.507,tripletExp_regina_11082022,2022.2.4,120.08841348191072,
7,8,14,0,0.111111111111111,1.0,0,0.25,1.0,0,0.25,3.10526315789474,ReadingArea_rsl0-rcl11-esl100-rsm0-rcm25-esm100-rsr0-rcr25-esr310,exr/ReadingArea_rsl0-rcl11-esl100-rsm0-rcm25-esm100-rsr0-rcr25-esr310.exr,ReadingArea_rsl0-rcl11-esl100-rsm0-rcm25-esm100-rsr0-rcr25-esr310.npz,,,,,0,170,170,300,,left,green,1.3,765.0149772167206,765.469789981842,,3,,6,4,lightness,readingArea,realistic,75,2023-03-23_15h43.10.507,tripletExp_regina_11082022,2022.2.4,120.08841348191072,
3,5,7,0,0.444444444444444,0.298245614035088,0,1.0,0.298245614035088,0,0.111111111111111,1.0,ReadingArea_rsl0-rcl44-esl29-rsm0-rcm100-esm29-rsr0-rcr11-esr100,exr/ReadingArea_rsl0-rcl44-esl29-rsm0-rcm100-esm29-rsr0-rcr11-esr100.exr,ReadingArea_rsl0-rcl44-esl29-rsm0-rcm100-esm29-rsr0-rcr11-esr100.npz,,,,,0,171,171,474,,left,green,2.62,768.9456520080566,769.4007000923157,,3,,6,4,lightness,readingArea,realistic,75,2023-03-23_15h43.10.507,tripletExp_regina_11082022,2022.2.4,120.08841348191072,
4,1,13,0,0.694444444444444,0.298245614035088,0,0.111111111111111,0.298245614035088,0,0.111111111111111,3.10526315789474,ReadingArea_rsl0-rcl69-esl29-rsm0-rcm11-esm29-rsr0-rcr11-esr310,exr/ReadingArea_rsl0-rcl69-esl29-rsm0-rcm11-esm29-rsr0-rcr11-esr310.exr,ReadingArea_rsl0-rcl69-esl29-rsm0-rcm11-esm29-rsr0-rcr11-esr310.npz,,,,,0,172,172,565,,right,red,2.62,772.874174118042,773.3320231437683,,3,,6,4,lightness,readingArea,realistic,75,2023-03-23_15h43.10.507,tripletExp_regina_11082022,2022.2.4,120.08841348191072,
8,4,1,0,0.25,1.0,0,0.694444444444444,0.298245614035088,0,0.111111111111111,0.298245614035088,ReadingArea_rsl0-rcl25-esl100-rsm0-rcm69-esm29-rsr0-rcr11-esr29,exr/ReadingArea_rsl0-rcl25-esl100-rsm0-rcm69-esm29-rsr0-rcr11-esr29.exr,ReadingArea_rsl0-rcl25-esl100-rsm0-rcm69-esm29-rsr0-rcr11-esr29.npz,,,,,0,173,173,286,,left,green,2.45,776.8340489864349,777.3021700382233,,3,,6,4,lightness,readingArea,realistic,75,2023-03-23_15h43.10.507,tripletExp_regina_11082022,2022.2.4,120.08841348191072,
11,12,10,0,1.0,1.0,0,0.027777777777778,3.10526315789474,0,0.694444444444444,1.0,ReadingArea_rsl0-rcl100-esl100-rsm0-rcm2-esm310-rsr0-rcr69-esr100,exr/ReadingArea_rsl0-rcl100-esl100-rsm0-rcm2-esm310-rsr0-rcr69-esr100.exr,ReadingArea_rsl0-rcl100-esl100-rsm0-rcm2-esm310-rsr0-rcr69-esr100.npz,,,,,0,174,174,465,,right,red,2.43,780.7826280593872,781.2547361850739,,3,,6,4,lightness,readingArea,realistic,75,2023-03-23_15h43.10.507,tripletExp_regina_11082022,2022.2.4,120.08841348191072,
6,14,10,0,0.027777777777778,1.0,0,0.25,3.10526315789474,0,0.694444444444444,1.0,ReadingArea_rsl0-rcl2-esl100-rsm0-rcm25-esm310-rsr0-rcr69-esr100,exr/ReadingArea_rsl0-rcl2-esl100-rsm0-rcm25-esm310-rsr0-rcr69-esr100.exr,ReadingArea_rsl0-rcl2-esl100-rsm0-rcm25-esm310-rsr0-rcr69-esr100.npz,,,,,0,175,175,413,,right,red,2.64,784.7102100849152,785.4165751934052,,3,,6,4,lightness,readingArea,realistic,75,2023-03-23_15h43.10.507,tripletExp_regina_11082022,2022.2.4,120.08841348191072,
6,4,2,0,0.027777777777778,1.0,0,0.694444444444444,0.298245614035088,0,0.25,0.298245614035088,ReadingArea_rsl0-rcl2-esl100-rsm0-rcm69-esm29-rsr0-rcr25-esr29,exr/ReadingArea_rsl0-rcl2-esl100-rsm0-rcm69-esm29-rsr0-rcr25-esr29.exr,ReadingArea_rsl0-rcl2-esl100-rsm0-rcm69-esm29-rsr0-rcr25-esr29.npz,,,,,0,176,176,134,,right,red,1.48,787.1332020759583,787.6392362117767,,3,,6,4,lightness,readingArea,realistic,75,2023-03-23_15h43.10.507,tripletExp_regina_11082022,2022.2.4,120.08841348191072,
12,10,6,0,0.027777777777778,3.10526315789474,0,0.694444444444444,1.0,0,0.027777777777778,1.0,ReadingArea_rsl0-rcl2-esl310-rsm0-rcm69-esm100-rsr0-rcr2-esr100,exr/ReadingArea_rsl0-rcl2-esl310-rsm0-rcm69-esm100-rsr0-rcr2-esr100.exr,ReadingArea_rsl0-rcl2-esl310-rsm0-rcm69-esm100-rsr0-rcr2-esr100.npz,,,,,0,177,177,273,,left,green,2.5,791.0954120159149,791.6824650764465,,3,,6,4,lightness,readingArea,realistic,75,2023-03-23_15h43.10.507,tripletExp_regina_11082022,2022.2.4,120.08841348191072,
8,11,1,0,0.25,1.0,0,1.0,1.0,0,0.111111111111111,0.298245614035088,ReadingArea_rsl0-rcl25-esl100-rsm0-rcm100-esm100-rsr0-rcr11-esr29,exr/ReadingArea_rsl0-rcl25-esl100-rsm0-rcm100-esm100-rsr0-rcr11-esr29.exr,ReadingArea_rsl0-rcl25-esl100-rsm0-rcm100-esm100-rsr0-rcr11-esr29.npz,,,,,0,178,178,132,,left,green,2.81,795.1288061141968,795.69238114357,,3,,6,4,lightness,readingArea,realistic,75,2023-03-23_15h43.10.507,tripletExp_regina_11082022,2022.2.4,120.08841348191072,
0,8,3,0,0.027777777777778,0.298245614035088,0,0.25,1.0,0,0.444444444444444,0.298245614035088,ReadingArea_rsl0-rcl2-esl29-rsm0-rcm25-esm100-rsr0-rcr44-esr29,exr/ReadingArea_rsl0-rcl2-esl29-rsm0-rcm25-esm100-rsr0-rcr44-esr29.exr,ReadingArea_rsl0-rcl2-esl29-rsm0-rcm25-esm100-rsr0-rcr44-esr29.npz,,,,,0,179,179,301,,right,red,2.98,799.1388940811157,799.6062870025635,,3,,6,4,lightness,readingArea,realistic,75,2023-03-23_15h43.10.507,tripletExp_regina_11082022,2022.2.4,120.08841348191072,
14,7,13,0,0.25,3.10526315789474,0,0.111111111111111,1.0,0,0.111111111111111,3.10526315789474,ReadingArea_rsl0-rcl25-esl310-rsm0-rcm11-esm100-rsr0-rcr11-esr310,exr/ReadingArea_rsl0-rcl25-esl310-rsm0-rcm11-esm100-rsr0-rcr11-esr310.exr,ReadingArea_rsl0-rcl25-esl310-rsm0-rcm11-esm100-rsr0-rcr11-esr310.npz,,,,,0,180,180,358,,right,red,2.46,803.0864970684052,803.5353970527649,,3,,6,4,lightness,readingArea,realistic,75,2023-03-23_15h43.10.507,tripletExp_regina_11082022,2022.2.4,120.08841348191072,
2,8,11,0,0.25,0.298245614035088,0,0.25,1.0,0,1.0,1.0,ReadingArea_rsl0-rcl25-esl29-rsm0-rcm25-esm100-rsr0-rcr100-esr100,exr/ReadingArea_rsl0-rcl25-esl29-rsm0-rcm25-esm100-rsr0-rcr100-esr100.exr,ReadingArea_rsl0-rcl25-esl29-rsm0-rcm25-esm100-rsr0-rcr100-esr100.npz,,,,,0,181,181,225,,left,green,2.71,806.9870660305023,807.4432570934296,,3,,6,4,lightness,readingArea,realistic,75,2023-03-23_15h43.10.507,tripletExp_regina_11082022,2022.2.4,120.08841348191072,
4,11,14,0,0.694444444444444,0.298245614035088,0,1.0,1.0,0,0.25,3.10526315789474,ReadingArea_rsl0-rcl69-esl29-rsm0-rcm100-esm100-rsr0-rcr25-esr310,exr/ReadingArea_rsl0-rcl69-esl29-rsm0-rcm100-esm100-rsr0-rcr25-esr310.exr,ReadingArea_rsl0-rcl69-esl29-rsm0-rcm100-esm100-rsr0-rcr25-esr310.npz,,,,,0,182,182,165,,right,red,2.57,810.9300429821014,811.4050722122192,,3,,6,4,lightness,readingArea,realistic,75,2023-03-23_15h43.10.507,tripletExp_regina_11082022,2022.2.4,120.08841348191072,
9,11,5,0,0.444444444444444,1.0,0,1.0,1.0,0,1.0,0.298245614035088,ReadingArea_rsl0-rcl44-esl100-rsm0-rcm100-esm100-rsr0-rcr100-esr29,exr/ReadingArea_rsl0-rcl44-esl100-rsm0-rcm100-esm100-rsr0-rcr100-esr29.exr,ReadingArea_rsl0-rcl44-esl100-rsm0-rcm100-esm100-rsr0-rcr100-esr29.npz,,,,,0,183,183,142,,right,red,2.66,814.8469171524048,815.3256280422211,,3,,6,4,lightness,readingArea,realistic,75,2023-03-23_15h43.10.507,tripletExp_regina_11082022,2022.2.4,120.08841348191072,
6,0,1,0,0.027777777777778,1.0,0,0.027777777777778,0.298245614035088,0,0.111111111111111,0.298245614035088,ReadingArea_rsl0-rcl2-esl100-rsm0-rcm2-esm29-rsr0-rcr11-esr29,exr/ReadingArea_rsl0-rcl2-esl100-rsm0-rcm2-esm29-rsr0-rcr11-esr29.exr,ReadingArea_rsl0-rcl2-esl100-rsm0-rcm2-esm29-rsr0-rcr11-esr29.npz,,,,,0,184,184,302,,left,green,1.3,817.0184440612793,817.4936521053314,,3,,6,4,lightness,readingArea,realistic,75,2023-03-23_15h43.10.507,tripletExp_regina_11082022,2022.2.4,120.08841348191072,
12,14,8,0,0.027777777777778,3.10526315789474,0,0.25,3.10526315789474,0,0.25,1.0,ReadingArea_rsl0-rcl2-esl310-rsm0-rcm25-esm310-rsr0-rcr25-esr100,exr/ReadingArea_rsl0-rcl2-esl310-rsm0-rcm25-esm310-rsr0-rcr25-esr100.exr,ReadingArea_rsl0-rcl2-esl310-rsm0-rcm25-esm310-rsr0-rcr25-esr100.npz,,,,,0,185,185,466,,right,red,2.87,820.9400291442871,821.5363581180573,,3,,6,4,lightness,readingArea,realistic,75,2023-03-23_15h43.10.507,tripletExp_regina_11082022,2022.2.4,120.08841348191072,
0,11,9,0,0.027777777777778,0.298245614035088,0,1.0,1.0,0,0.444444444444444,1.0,ReadingArea_rsl0-rcl2-esl29-rsm0-rcm100-esm100-rsr0-rcr44-esr100,exr/ReadingArea_rsl0-rcl2-esl29-rsm0-rcm100-esm100-rsr0-rcr44-esr100.exr,ReadingArea_rsl0-rcl2-esl29-rsm0-rcm100-esm100-rsr0-rcr44-esr100.npz,,,,,0,186,186,32,,right,red,1.08,823.2224731445312,823.6895182132721,,3,,6,4,lightness,readingArea,realistic,75,2023-03-23_15h43.10.507,tripletExp_regina_11082022,2022.2.4,120.08841348191072,
10,0,11,0,0.694444444444444,1.0,0,0.027777777777778,0.298245614035088,0,1.0,1.0,ReadingArea_rsl0-rcl69-esl100-rsm0-rcm2-esm29-rsr0-rcr100-esr100,exr/ReadingArea_rsl0-rcl69-esl100-rsm0-rcm2-esm29-rsr0-rcr100-esr100.exr,ReadingArea_rsl0-rcl69-esl100-rsm0-rcm2-esm29-rsr0-rcr100-esr100.npz,,,,,0,187,187,573,,left,green,1.46,825.3815810680389,825.822300195694,,3,,6,4,lightness,readingArea,realistic,75,2023-03-23_15h43.10.507,tripletExp_regina_11082022,2022.2.4,120.08841348191072,
10,14,1,0,0.694444444444444,1.0,0,0.25,3.10526315789474,0,0.111111111111111,0.298245614035088,ReadingArea_rsl0-rcl69-esl100-rsm0-rcm25-esm310-rsr0-rcr11-esr29,exr/ReadingArea_rsl0-rcl69-esl100-rsm0-rcm25-esm310-rsr0-rcr11-esr29.exr,ReadingArea_rsl0-rcl69-esl100-rsm0-rcm25-esm310-rsr0-rcr11-esr29.npz,,,,,0,188,188,544,,left,green,1.36,827.5204141139984,827.9843211174011,,3,,6,4,lightness,readingArea,realistic,75,2023-03-23_15h43.10.507,tripletExp_regina_11082022,2022.2.4,120.08841348191072,
6,1,2,0,0.027777777777778,1.0,0,0.111111111111111,0.298245614035088,0,0.25,0.298245614035088,ReadingArea_rsl0-rcl2-esl100-rsm0-rcm11-esm29-rsr0-rcr25-esr29,exr/ReadingArea_rsl0-rcl2-esl100-rsm0-rcm11-esm29-rsr0-rcr25-esr29.exr,ReadingArea_rsl0-rcl2-esl100-rsm0-rcm11-esm29-rsr0-rcr25-esr29.npz,,,,,0,189,189,68,,left,green,1.26,829.673257112503,830.1276800632477,,3,,6,4,lightness,readingArea,realistic,75,2023-03-23_15h43.10.507,tripletExp_regina_11082022,2022.2.4,120.08841348191072,
10,3,6,0,0.694444444444444,1.0,0,0.444444444444444,0.298245614035088,0,0.027777777777778,1.0,ReadingArea_rsl0-rcl69-esl100-rsm0-rcm44-esm29-rsr0-rcr2-esr100,exr/ReadingArea_rsl0-rcl69-esl100-rsm0-rcm44-esm29-rsr0-rcr2-esr100.exr,ReadingArea_rsl0-rcl69-esl100-rsm0-rcm44-esm29-rsr0-rcr2-esr100.npz,,,,,0,190,190,261,,right,red,3.18,833.5731930732727,834.0406951904297,,3,,6,4,lightness,readingArea,realistic,75,2023-03-23_15h43.10.507,tripletExp_regina_11082022,2022.2.4,120.08841348191072,
4,8,14,0,0.694444444444444,0.298245614035088,0,0.25,1.0,0,0.25,3.10526315789474,ReadingArea_rsl0-rcl69-esl29-rsm0-rcm25-esm100-rsr0-rcr25-esr310,exr/ReadingArea_rsl0-rcl69-esl29-rsm0-rcm25-esm100-rsr0-rcr25-esr310.exr,ReadingArea_rsl0-rcl69-esl29-rsm0-rcm25-esm100-rsr0-rcr25-esr310.npz,,,,,0,191,191,234,,left,green,1.49,835.7293100357056,,,3,,6,4,lightness,readingArea,realistic,75,2023-03-23_15h43.10.507,tripletExp_regina_11082022,2022.2.4,120.08841348191072,
14,6,5,0,0.25,3.10526315789474,0,0.027777777777778,1.0,0,1.0,0.298245614035088,ReadingArea_rsl0-rcl25-esl310-rsm0-rcm2-esm100-rsr0-rcr100-esr29,exr/ReadingArea_rsl0-rcl25-esl310-rsm0-rcm2-esm100-rsr0-rcr100-esr29.exr,ReadingArea_rsl0-rcl25-esl310-rsm0-rcm2-esm100-rsr0-rcr100-esr29.npz,,,,,0,192,192,297,,right,red,1.26,837.8920381069183,838.3561642169952,,3,,6,4,lightness,readingArea,realistic,75,2023-03-23_15h43.10.507,tripletExp_regina_11082022,2022.2.4,120.08841348191072,
14,11,4,0,0.25,3.10526315789474,0,1.0,1.0,0,0.694444444444444,0.298245614035088,ReadingArea_rsl0-rcl25-esl310-rsm0-rcm100-esm100-rsr0-rcr69-esr29,exr/ReadingArea_rsl0-rcl25-esl310-rsm0-rcm100-esm100-rsr0-rcr69-esr29.exr,ReadingArea_rsl0-rcl25-esl310-rsm0-rcm100-esm100-rsr0-rcr69-esr29.npz,,,,,0,193,193,370,,left,green,1.18,840.0785021781921,840.6534070968628,,3,,6,4,lightness,readingArea,realistic,75,2023-03-23_15h43.10.507,tripletExp_regina_11082022,2022.2.4,120.08841348191072,
2,4,10,0,0.25,0.298245614035088,0,0.694444444444444,0.298245614035088,0,0.694444444444444,1.0,ReadingArea_rsl0-rcl25-esl29-rsm0-rcm69-esm29-rsr0-rcr69-esr100,exr/ReadingArea_rsl0-rcl25-esl29-rsm0-rcm69-esm29-rsr0-rcr69-esr100.exr,ReadingArea_rsl0-rcl25-esl29-rsm0-rcm69-esm29-rsr0-rcr69-esr100.npz,,,,,0,194,194,174,,left,green,2.85,844.1158561706543,844.5959072113037,,3,,6,4,lightness,readingArea,realistic,75,2023-03-23_15h43.10.507,tripletExp_regina_11082022,2022.2.4,120.08841348191072,
14,10,5,0,0.25,3.10526315789474,0,0.694444444444444,1.0,0,1.0,0.298245614035088,ReadingArea_rsl0-rcl25-esl310-rsm0-rcm69-esm100-rsr0-rcr100-esr29,exr/ReadingArea_rsl0-rcl25-esl310-rsm0-rcm69-esm100-rsr0-rcr100-esr29.exr,ReadingArea_rsl0-rcl25-esl310-rsm0-rcm69-esm100-rsr0-rcr100-esr29.npz,,,,,0,195,195,96,,left,green,3.09,848.1002781391144,848.5673880577087,,3,,6,4,lightness,readingArea,realistic,75,2023-03-23_15h43.10.507,tripletExp_regina_11082022,2022.2.4,120.08841348191072,
3,12,14,0,0.444444444444444,0.298245614035088,0,0.027777777777778,3.10526315789474,0,0.25,3.10526315789474,ReadingArea_rsl0-rcl44-esl29-rsm0-rcm2-esm310-rsr0-rcr25-esr310,exr/ReadingArea_rsl0-rcl44-esl29-rsm0-rcm2-esm310-rsr0-rcr25-esr310.exr,ReadingArea_rsl0-rcl44-esl29-rsm0-rcm2-esm310-rsr0-rcr25-esr310.npz,,,,,0,196,196,16,,left,green,2.87,852.0676131248474,852.5222690105438,,3,,6,4,lightness,readingArea,realistic,75,2023-03-23_15h43.10.507,tripletExp_regina_11082022,2022.2.4,120.08841348191072,
7,9,8,0,0.111111111111111,1.0,0,0.444444444444444,1.0,0,0.25,1.0,ReadingArea_rsl0-rcl11-esl100-rsm0-rcm44-esm100-rsr0-rcr25-esr100,exr/ReadingArea_rsl0-rcl11-esl100-rsm0-rcm44-esm100-rsr0-rcr25-esr100.exr,ReadingArea_rsl0-rcl11-esl100-rsm0-rcm44-esm100-rsr0-rcr25-esr100.npz,,,,,0,197,197,515,,right,red,1.4,854.2272050380707,854.7285461425781,,3,,6,4,lightness,readingArea,realistic,75,2023-03-23_15h43.10.507,tripletExp_regina_11082022,2022.2.4,120.08841348191072,
10,11,4,0,0.694444444444444,1.0,0,1.0,1.0,0,0.694444444444444,0.298245614035088,ReadingArea_rsl0-rcl69-esl100-rsm0-rcm100-esm100-rsr0-rcr69-esr29,exr/ReadingArea_rsl0-rcl69-esl100-rsm0-rcm100-esm100-rsr0-rcr69-esr29.exr,ReadingArea_rsl0-rcl69-esl100-rsm0-rcm100-esm100-rsr0-rcr69-esr29.npz,,,,,0,198,198,239,,left,green,3.16,858.2159061431885,858.6892740726471,,3,,6,4,lightness,readingArea,realistic,75,2023-03-23_15h43.10.507,tripletExp_regina_11082022,2022.2.4,120.08841348191072,
13,11,2,0,0.111111111111111,3.10526315789474,0,1.0,1.0,0,0.25,0.298245614035088,ReadingArea_rsl0-rcl11-esl310-rsm0-rcm100-esm100-rsr0-rcr25-esr29,exr/ReadingArea_rsl0-rcl11-esl310-rsm0-rcm100-esm100-rsr0-rcr25-esr29.exr,ReadingArea_rsl0-rcl11-esl310-rsm0-rcm100-esm100-rsr0-rcr25-esr29.npz,,,,,0,199,199,55,,left,green,1.16,860.3979110717773,860.9012351036072,,3,,6,4,lightness,readingArea,realistic,75,2023-03-23_15h43.10.507,tripletExp_regina_11082022,2022.2.4,120.08841348191072,
14,10,13,0,0.25,3.10526315789474,0,0.694444444444444,1.0,0,0.111111111111111,3.10526315789474,ReadingArea_rsl0-rcl25-esl310-rsm0-rcm69-esm100-rsr0-rcr11-esr310,exr/ReadingArea_rsl0-rcl25-esl310-rsm0-rcm69-esm100-rsr0-rcr11-esr310.exr,ReadingArea_rsl0-rcl25-esl310-rsm0-rcm69-esm100-rsr0-rcr11-esr310.npz,,,,,0,200,200,204,,left,green,1.18,862.6199960708618,863.0793850421906,,3,,6,4,lightness,readingArea,realistic,75,2023-03-23_15h43.10.507,tripletExp_regina_11082022,2022.2.4,120.08841348191072,
3,7,8,0,0.444444444444444,0.298245614035088,0,0.111111111111111,1.0,0,0.25,1.0,ReadingArea_rsl0-rcl44-esl29-rsm0-rcm11-esm100-rsr0-rcr25-esr100,exr/ReadingArea_rsl0-rcl44-esl29-rsm0-rcm11-esm100-rsr0-rcr25-esr100.exr,ReadingArea_rsl0-rcl44-esl29-rsm0-rcm11-esm100-rsr0-rcr25-esr100.npz,,,,,0,201,201,246,,left,green,2.82,866.5756011009216,,,3,,6,4,lightness,readingArea,realistic,75,2023-03-23_15h43.10.507,tripletExp_regina_11082022,2022.2.4,120.08841348191072,
3,11,2,0,0.444444444444444,0.298245614035088,0,1.0,1.0,0,0.25,0.298245614035088,ReadingArea_rsl0-rcl44-esl29-rsm0-rcm100-esm100-rsr0-rcr25-esr29,exr/ReadingArea_rsl0-rcl44-esl29-rsm0-rcm100-esm100-rsr0-rcr25-esr29.exr,ReadingArea_rsl0-rcl44-esl29-rsm0-rcm100-esm100-rsr0-rcr25-esr29.npz,,,,,0,202,202,220,,left,green,2.64,870.5336420536041,870.9875330924988,,3,,6,4,lightness,readingArea,realistic,75,2023-03-23_15h43.10.507,tripletExp_regina_11082022,2022.2.4,120.08841348191072,
12,8,10,0,0.027777777777778,3.10526315789474,0,0.25,1.0,0,0.694444444444444,1.0,ReadingArea_rsl0-rcl2-esl310-rsm0-rcm25-esm100-rsr0-rcr69-esr100,exr/ReadingArea_rsl0-rcl2-esl310-rsm0-rcm25-esm100-rsr0-rcr69-esr100.exr,ReadingArea_rsl0-rcl2-esl310-rsm0-rcm25-esm100-rsr0-rcr69-esr100.npz,,,,,0,203,203,216,,left,green,2.51,874.4598340988159,,,3,,6,4,lightness,readingArea,realistic,75,2023-03-23_15h43.10.507,tripletExp_regina_11082022,2022.2.4,120.08841348191072,
