index_left,index_middle,index_right,reflectance_surround_left,reflectance_center_left,emission_spot_left,reflectance_surround_middle,reflectance_center_middle,emission_spot_middle,reflectance_surround_right,reflectance_center_right,emission_spot_right,ImageName,ImageExr,ImageNpy,trials_2.thisRepN,trials_2.thisTrialN,trials_2.thisN,trials_2.thisIndex,trials.thisRepN,trials.thisTrialN,trials.thisN,trials.thisIndex,sound_1.started,BB_Trial.resp,BB_Trial.color,BB_Trial.rt,text.started,text.stopped,block,sound_4.started,participant,session,L/B,scene,condition,nTrialsPerBlock,date,expName,psychopyVersion,frameRate,Unnamed: 41
0,7,9,2,0.027777777777778,0.298245614035088,2,0.111111111111111,1.0,2,0.444444444444444,1.0,ReadingArea_rsl2-rcl2-esl29-rsm2-rcm11-esm100-rsr2-rcr44-esr100,exr/ReadingArea_rsl2-rcl2-esl29-rsm2-rcm11-esm100-rsr2-rcr44-esr100.exr,ReadingArea_rsl2-rcl2-esl29-rsm2-rcm11-esm100-rsr2-rcr44-esr100.npz,,,,,0,0,0,463,135.4946852207184,right,red,4.57,147.93868589401245,148.3380990028381,1,,2,4,brightness,readingArea,realistic,75,2023-03-15_15h04.40.131,tripletExp_regina_11082022,2022.2.4,120.2181770237696,
10,5,1,2,0.694444444444444,1.0,2,1.0,0.298245614035088,2,0.111111111111111,0.298245614035088,ReadingArea_rsl2-rcl69-esl100-rsm2-rcm100-esm29-rsr2-rcr11-esr29,exr/ReadingArea_rsl2-rcl69-esl100-rsm2-rcm100-esm29-rsr2-rcr11-esr29.exr,ReadingArea_rsl2-rcl69-esl100-rsm2-rcm100-esm29-rsr2-rcr11-esr29.npz,,,,,0,1,1,152,,left,green,3.07,151.8008999824524,,1,,2,4,brightness,readingArea,realistic,75,2023-03-15_15h04.40.131,tripletExp_regina_11082022,2022.2.4,120.2181770237696,
2,4,14,2,0.25,0.298245614035088,2,0.694444444444444,0.298245614035088,2,0.25,3.10526315789474,ReadingArea_rsl2-rcl25-esl29-rsm2-rcm69-esm29-rsr2-rcr25-esr310,exr/ReadingArea_rsl2-rcl25-esl29-rsm2-rcm69-esm29-rsr2-rcr25-esr310.exr,ReadingArea_rsl2-rcl25-esl29-rsm2-rcm69-esm29-rsr2-rcr25-esr310.npz,,,,,0,2,2,356,,left,green,1.16,153.8830020427704,,1,,2,4,brightness,readingArea,realistic,75,2023-03-15_15h04.40.131,tripletExp_regina_11082022,2022.2.4,120.2181770237696,
6,2,12,2,0.027777777777778,1.0,2,0.25,0.298245614035088,2,0.027777777777778,3.10526315789474,ReadingArea_rsl2-rcl2-esl100-rsm2-rcm25-esm29-rsr2-rcr2-esr310,exr/ReadingArea_rsl2-rcl2-esl100-rsm2-rcm25-esm29-rsr2-rcr2-esr310.exr,ReadingArea_rsl2-rcl2-esl100-rsm2-rcm25-esm29-rsr2-rcr2-esr310.npz,,,,,0,3,3,480,,right,red,3.15,157.6785900592804,158.0305459499359,1,,2,4,brightness,readingArea,realistic,75,2023-03-15_15h04.40.131,tripletExp_regina_11082022,2022.2.4,120.2181770237696,
11,3,12,2,1.0,1.0,2,0.444444444444444,0.298245614035088,2,0.027777777777778,3.10526315789474,ReadingArea_rsl2-rcl100-esl100-rsm2-rcm44-esm29-rsr2-rcr2-esr310,exr/ReadingArea_rsl2-rcl100-esl100-rsm2-rcm44-esm29-rsr2-rcr2-esr310.exr,ReadingArea_rsl2-rcl100-esl100-rsm2-rcm44-esm29-rsr2-rcr2-esr310.npz,,,,,0,4,4,355,,right,red,2.89,161.52267789840698,161.87292098999023,1,,2,4,brightness,readingArea,realistic,75,2023-03-15_15h04.40.131,tripletExp_regina_11082022,2022.2.4,120.2181770237696,
12,10,6,2,0.027777777777778,3.10526315789474,2,0.694444444444444,1.0,2,0.027777777777778,1.0,ReadingArea_rsl2-rcl2-esl310-rsm2-rcm69-esm100-rsr2-rcr2-esr100,exr/ReadingArea_rsl2-rcl2-esl310-rsm2-rcm69-esm100-rsr2-rcr2-esr100.exr,ReadingArea_rsl2-rcl2-esl310-rsm2-rcm69-esm100-rsr2-rcr2-esr100.npz,,,,,0,5,5,273,,left,green,2.87,165.3625259399414,165.69092297554016,1,,2,4,brightness,readingArea,realistic,75,2023-03-15_15h04.40.131,tripletExp_regina_11082022,2022.2.4,120.2181770237696,
1,3,4,2,0.111111111111111,0.298245614035088,2,0.444444444444444,0.298245614035088,2,0.694444444444444,0.298245614035088,ReadingArea_rsl2-rcl11-esl29-rsm2-rcm44-esm29-rsr2-rcr69-esr29,exr/ReadingArea_rsl2-rcl11-esl29-rsm2-rcm44-esm29-rsr2-rcr69-esr29.exr,ReadingArea_rsl2-rcl11-esl29-rsm2-rcm44-esm29-rsr2-rcr69-esr29.npz,,,,,0,6,6,153,,right,red,0.82,167.40422701835632,167.73440289497375,1,,2,4,brightness,readingArea,realistic,75,2023-03-15_15h04.40.131,tripletExp_regina_11082022,2022.2.4,120.2181770237696,
7,3,12,2,0.111111111111111,1.0,2,0.444444444444444,0.298245614035088,2,0.027777777777778,3.10526315789474,ReadingArea_rsl2-rcl11-esl100-rsm2-rcm44-esm29-rsr2-rcr2-esr310,exr/ReadingArea_rsl2-rcl11-esl100-rsm2-rcm44-esm29-rsr2-rcr2-esr310.exr,ReadingArea_rsl2-rcl11-esl100-rsm2-rcm44-esm29-rsr2-rcr2-esr310.npz,,,,,0,7,7,443,,left,green,2.95,171.20227599143982,,1,,2,4,brightness,readingArea,realistic,75,2023-03-15_15h04.40.131,tripletExp_regina_11082022,2022.2.4,120.2181770237696,
1,12,10,2,0.111111111111111,0.298245614035088,2,0.027777777777778,3.10526315789474,2,0.694444444444444,1.0,ReadingArea_rsl2-rcl11-esl29-rsm2-rcm2-esm310-rsr2-rcr69-esr100,exr/ReadingArea_rsl2-rcl11-esl29-rsm2-rcm2-esm310-rsr2-rcr69-esr100.exr,ReadingArea_rsl2-rcl11-esl29-rsm2-rcm2-esm310-rsr2-rcr69-esr100.npz,,,,,0,8,8,567,,left,green,1.29,173.25186705589294,173.57807898521423,1,,2,4,brightness,readingArea,realistic,75,2023-03-15_15h04.40.131,tripletExp_regina_11082022,2022.2.4,120.2181770237696,
8,3,12,2,0.25,1.0,2,0.444444444444444,0.298245614035088,2,0.027777777777778,3.10526315789474,ReadingArea_rsl2-rcl25-esl100-rsm2-rcm44-esm29-rsr2-rcr2-esr310,exr/ReadingArea_rsl2-rcl25-esl100-rsm2-rcm44-esm29-rsr2-rcr2-esr310.exr,ReadingArea_rsl2-rcl25-esl100-rsm2-rcm44-esm29-rsr2-rcr2-esr310.npz,,,,,0,9,9,22,,right,red,1.26,175.27263593673706,175.60067296028137,1,,2,4,brightness,readingArea,realistic,75,2023-03-15_15h04.40.131,tripletExp_regina_11082022,2022.2.4,120.2181770237696,
0,12,7,2,0.027777777777778,0.298245614035088,2,0.027777777777778,3.10526315789474,2,0.111111111111111,1.0,ReadingArea_rsl2-rcl2-esl29-rsm2-rcm2-esm310-rsr2-rcr11-esr100,exr/ReadingArea_rsl2-rcl2-esl29-rsm2-rcm2-esm310-rsr2-rcr11-esr100.exr,ReadingArea_rsl2-rcl2-esl29-rsm2-rcm2-esm310-rsr2-rcr11-esr100.npz,,,,,0,10,10,481,,right,red,1.01,177.30961298942566,177.6720130443573,1,,2,4,brightness,readingArea,realistic,75,2023-03-15_15h04.40.131,tripletExp_regina_11082022,2022.2.4,120.2181770237696,
7,8,3,2,0.111111111111111,1.0,2,0.25,1.0,2,0.444444444444444,0.298245614035088,ReadingArea_rsl2-rcl11-esl100-rsm2-rcm25-esm100-rsr2-rcr44-esr29,exr/ReadingArea_rsl2-rcl11-esl100-rsm2-rcm25-esm100-rsr2-rcr44-esr29.exr,ReadingArea_rsl2-rcl11-esl100-rsm2-rcm25-esm100-rsr2-rcr44-esr29.npz,,,,,0,11,11,459,,right,red,3.08,181.154531955719,,1,,2,4,brightness,readingArea,realistic,75,2023-03-15_15h04.40.131,tripletExp_regina_11082022,2022.2.4,120.2181770237696,
10,7,4,2,0.694444444444444,1.0,2,0.111111111111111,1.0,2,0.694444444444444,0.298245614035088,ReadingArea_rsl2-rcl69-esl100-rsm2-rcm11-esm100-rsr2-rcr69-esr29,exr/ReadingArea_rsl2-rcl69-esl100-rsm2-rcm11-esm100-rsr2-rcr69-esr29.exr,ReadingArea_rsl2-rcl69-esl100-rsm2-rcm11-esm100-rsr2-rcr69-esr29.npz,,,,,0,12,12,223,,right,red,3.09,185.046128988266,,1,,2,4,brightness,readingArea,realistic,75,2023-03-15_15h04.40.131,tripletExp_regina_11082022,2022.2.4,120.2181770237696,
13,9,4,2,0.111111111111111,3.10526315789474,2,0.444444444444444,1.0,2,0.694444444444444,0.298245614035088,ReadingArea_rsl2-rcl11-esl310-rsm2-rcm44-esm100-rsr2-rcr69-esr29,exr/ReadingArea_rsl2-rcl11-esl310-rsm2-rcm44-esm100-rsr2-rcr69-esr29.exr,ReadingArea_rsl2-rcl11-esl310-rsm2-rcm44-esm100-rsr2-rcr69-esr29.npz,,,,,0,13,13,444,,left,green,3.01,188.8538269996643,189.1815149784088,1,,2,4,brightness,readingArea,realistic,75,2023-03-15_15h04.40.131,tripletExp_regina_11082022,2022.2.4,120.2181770237696,
14,9,12,2,0.25,3.10526315789474,2,0.444444444444444,1.0,2,0.027777777777778,3.10526315789474,ReadingArea_rsl2-rcl25-esl310-rsm2-rcm44-esm100-rsr2-rcr2-esr310,exr/ReadingArea_rsl2-rcl25-esl310-rsm2-rcm44-esm100-rsr2-rcr2-esr310.exr,ReadingArea_rsl2-rcl25-esl310-rsm2-rcm44-esm100-rsr2-rcr2-esr310.npz,,,,,0,14,14,378,,left,green,2.79,192.65978598594663,193.02358293533325,1,,2,4,brightness,readingArea,realistic,75,2023-03-15_15h04.40.131,tripletExp_regina_11082022,2022.2.4,120.2181770237696,
8,13,3,2,0.25,1.0,2,0.111111111111111,3.10526315789474,2,0.444444444444444,0.298245614035088,ReadingArea_rsl2-rcl25-esl100-rsm2-rcm11-esm310-rsr2-rcr44-esr29,exr/ReadingArea_rsl2-rcl25-esl100-rsm2-rcm11-esm310-rsr2-rcr44-esr29.exr,ReadingArea_rsl2-rcl25-esl100-rsm2-rcm11-esm310-rsr2-rcr44-esr29.npz,,,,,0,15,15,553,,left,green,1.55,194.71739101409912,195.04725909233093,1,,2,4,brightness,readingArea,realistic,75,2023-03-15_15h04.40.131,tripletExp_regina_11082022,2022.2.4,120.2181770237696,
9,0,6,2,0.444444444444444,1.0,2,0.027777777777778,0.298245614035088,2,0.027777777777778,1.0,ReadingArea_rsl2-rcl44-esl100-rsm2-rcm2-esm29-rsr2-rcr2-esr100,exr/ReadingArea_rsl2-rcl44-esl100-rsm2-rcm2-esm29-rsr2-rcr2-esr100.exr,ReadingArea_rsl2-rcl44-esl100-rsm2-rcm2-esm29-rsr2-rcr2-esr100.npz,,,,,0,16,16,362,,right,red,1.08,196.7638599872589,197.11679601669312,1,,2,4,brightness,readingArea,realistic,75,2023-03-15_15h04.40.131,tripletExp_regina_11082022,2022.2.4,120.2181770237696,
3,6,11,2,0.444444444444444,0.298245614035088,2,0.027777777777778,1.0,2,1.0,1.0,ReadingArea_rsl2-rcl44-esl29-rsm2-rcm2-esm100-rsr2-rcr100-esr100,exr/ReadingArea_rsl2-rcl44-esl29-rsm2-rcm2-esm100-rsr2-rcr100-esr100.exr,ReadingArea_rsl2-rcl44-esl29-rsm2-rcm2-esm100-rsr2-rcr100-esr100.npz,,,,,0,17,17,155,,left,green,1.49,198.83119988441467,199.1819179058075,1,,2,4,brightness,readingArea,realistic,75,2023-03-15_15h04.40.131,tripletExp_regina_11082022,2022.2.4,120.2181770237696,
0,5,11,2,0.027777777777778,0.298245614035088,2,1.0,0.298245614035088,2,1.0,1.0,ReadingArea_rsl2-rcl2-esl29-rsm2-rcm100-esm29-rsr2-rcr100-esr100,exr/ReadingArea_rsl2-rcl2-esl29-rsm2-rcm100-esm29-rsr2-rcr100-esr100.exr,ReadingArea_rsl2-rcl2-esl29-rsm2-rcm100-esm29-rsr2-rcr100-esr100.npz,,,,,0,18,18,422,,left,green,1.44,200.8779089450836,201.23330402374268,1,,2,4,brightness,readingArea,realistic,75,2023-03-15_15h04.40.131,tripletExp_regina_11082022,2022.2.4,120.2181770237696,
6,11,3,2,0.027777777777778,1.0,2,1.0,1.0,2,0.444444444444444,0.298245614035088,ReadingArea_rsl2-rcl2-esl100-rsm2-rcm100-esm100-rsr2-rcr44-esr29,exr/ReadingArea_rsl2-rcl2-esl100-rsm2-rcm100-esm100-rsr2-rcr44-esr29.exr,ReadingArea_rsl2-rcl2-esl100-rsm2-rcm100-esm100-rsr2-rcr44-esr29.npz,,,,,0,19,19,11,,right,red,1.44,202.9389259815216,203.26519203186035,1,,2,4,brightness,readingArea,realistic,75,2023-03-15_15h04.40.131,tripletExp_regina_11082022,2022.2.4,120.2181770237696,
9,0,8,2,0.444444444444444,1.0,2,0.027777777777778,0.298245614035088,2,0.25,1.0,ReadingArea_rsl2-rcl44-esl100-rsm2-rcm2-esm29-rsr2-rcr25-esr100,exr/ReadingArea_rsl2-rcl44-esl100-rsm2-rcm2-esm29-rsr2-rcr25-esr100.exr,ReadingArea_rsl2-rcl44-esl100-rsm2-rcm2-esm29-rsr2-rcr25-esr100.npz,,,,,0,20,20,27,,right,red,3.01,206.72150301933289,207.07464289665225,1,,2,4,brightness,readingArea,realistic,75,2023-03-15_15h04.40.131,tripletExp_regina_11082022,2022.2.4,120.2181770237696,
14,8,1,2,0.25,3.10526315789474,2,0.25,1.0,2,0.111111111111111,0.298245614035088,ReadingArea_rsl2-rcl25-esl310-rsm2-rcm25-esm100-rsr2-rcr11-esr29,exr/ReadingArea_rsl2-rcl25-esl310-rsm2-rcm25-esm100-rsr2-rcr11-esr29.exr,ReadingArea_rsl2-rcl25-esl310-rsm2-rcm25-esm100-rsr2-rcr11-esr29.npz,,,,,0,21,21,141,,right,red,3.36,210.57526803016663,,1,,2,4,brightness,readingArea,realistic,75,2023-03-15_15h04.40.131,tripletExp_regina_11082022,2022.2.4,120.2181770237696,
4,9,13,2,0.694444444444444,0.298245614035088,2,0.444444444444444,1.0,2,0.111111111111111,3.10526315789474,ReadingArea_rsl2-rcl69-esl29-rsm2-rcm44-esm100-rsr2-rcr11-esr310,exr/ReadingArea_rsl2-rcl69-esl29-rsm2-rcm44-esm100-rsr2-rcr11-esr310.exr,ReadingArea_rsl2-rcl69-esl29-rsm2-rcm44-esm100-rsr2-rcr11-esr310.npz,,,,,0,22,22,488,,right,red,1.8,214.3650300502777,214.70409393310547,1,,2,4,brightness,readingArea,realistic,75,2023-03-15_15h04.40.131,tripletExp_regina_11082022,2022.2.4,120.2181770237696,
4,14,12,2,0.694444444444444,0.298245614035088,2,0.25,3.10526315789474,2,0.027777777777778,3.10526315789474,ReadingArea_rsl2-rcl69-esl29-rsm2-rcm25-esm310-rsr2-rcr2-esr310,exr/ReadingArea_rsl2-rcl69-esl29-rsm2-rcm25-esm310-rsr2-rcr2-esr310.exr,ReadingArea_rsl2-rcl69-esl29-rsm2-rcm25-esm310-rsr2-rcr2-esr310.npz,,,,,0,23,23,392,,left,green,1.48,216.38998198509216,216.74863195419312,1,,2,4,brightness,readingArea,realistic,75,2023-03-15_15h04.40.131,tripletExp_regina_11082022,2022.2.4,120.2181770237696,
9,13,6,2,0.444444444444444,1.0,2,0.111111111111111,3.10526315789474,2,0.027777777777778,1.0,ReadingArea_rsl2-rcl44-esl100-rsm2-rcm11-esm310-rsr2-rcr2-esr100,exr/ReadingArea_rsl2-rcl44-esl100-rsm2-rcm11-esm310-rsr2-rcr2-esr100.exr,ReadingArea_rsl2-rcl44-esl100-rsm2-rcm11-esm310-rsr2-rcr2-esr100.npz,,,,,0,24,24,13,,left,green,1.27,218.45370507240293,218.7842059135437,1,,2,4,brightness,readingArea,realistic,75,2023-03-15_15h04.40.131,tripletExp_regina_11082022,2022.2.4,120.2181770237696,
13,8,14,2,0.111111111111111,3.10526315789474,2,0.25,1.0,2,0.25,3.10526315789474,ReadingArea_rsl2-rcl11-esl310-rsm2-rcm25-esm100-rsr2-rcr25-esr310,exr/ReadingArea_rsl2-rcl11-esl310-rsm2-rcm25-esm100-rsr2-rcr25-esr310.exr,ReadingArea_rsl2-rcl11-esl310-rsm2-rcm25-esm100-rsr2-rcr25-esr310.npz,,,,,0,25,25,345,,left,green,1.35,220.47228598594663,220.8284249305725,1,,2,4,brightness,readingArea,realistic,75,2023-03-15_15h04.40.131,tripletExp_regina_11082022,2022.2.4,120.2181770237696,
5,2,0,2,1.0,0.298245614035088,2,0.25,0.298245614035088,2,0.027777777777778,0.298245614035088,ReadingArea_rsl2-rcl100-esl29-rsm2-rcm25-esm29-rsr2-rcr2-esr29,exr/ReadingArea_rsl2-rcl100-esl29-rsm2-rcm25-esm29-rsr2-rcr2-esr29.exr,ReadingArea_rsl2-rcl100-esl29-rsm2-rcm25-esm29-rsr2-rcr2-esr29.npz,,,,,0,26,26,476,,left,green,1.72,222.5426459312439,222.87565994262687,1,,2,4,brightness,readingArea,realistic,75,2023-03-15_15h04.40.131,tripletExp_regina_11082022,2022.2.4,120.2181770237696,
3,9,0,2,0.444444444444444,0.298245614035088,2,0.444444444444444,1.0,2,0.027777777777778,0.298245614035088,ReadingArea_rsl2-rcl44-esl29-rsm2-rcm44-esm100-rsr2-rcr2-esr29,exr/ReadingArea_rsl2-rcl44-esl29-rsm2-rcm44-esm100-rsr2-rcr2-esr29.exr,ReadingArea_rsl2-rcl44-esl29-rsm2-rcm44-esm100-rsr2-rcr2-esr29.npz,,,,,0,27,27,551,,left,green,1.33,224.5653710365296,224.9140560626984,1,,2,4,brightness,readingArea,realistic,75,2023-03-15_15h04.40.131,tripletExp_regina_11082022,2022.2.4,120.2181770237696,
6,4,10,2,0.027777777777778,1.0,2,0.694444444444444,0.298245614035088,2,0.694444444444444,1.0,ReadingArea_rsl2-rcl2-esl100-rsm2-rcm69-esm29-rsr2-rcr69-esr100,exr/ReadingArea_rsl2-rcl2-esl100-rsm2-rcm69-esm29-rsr2-rcr69-esr100.exr,ReadingArea_rsl2-rcl2-esl100-rsm2-rcm69-esm29-rsr2-rcr69-esr100.npz,,,,,0,28,28,554,,left,green,1.49,226.62434101104736,226.9641749858856,1,,2,4,brightness,readingArea,realistic,75,2023-03-15_15h04.40.131,tripletExp_regina_11082022,2022.2.4,120.2181770237696,
3,10,9,2,0.444444444444444,0.298245614035088,2,0.694444444444444,1.0,2,0.444444444444444,1.0,ReadingArea_rsl2-rcl44-esl29-rsm2-rcm69-esm100-rsr2-rcr44-esr100,exr/ReadingArea_rsl2-rcl44-esl29-rsm2-rcm69-esm100-rsr2-rcr44-esr100.exr,ReadingArea_rsl2-rcl44-esl29-rsm2-rcm69-esm100-rsr2-rcr44-esr100.npz,,,,,0,29,29,222,,right,red,1.36,228.67159390449524,229.03022694587708,1,,2,4,brightness,readingArea,realistic,75,2023-03-15_15h04.40.131,tripletExp_regina_11082022,2022.2.4,120.2181770237696,
11,4,2,2,1.0,1.0,2,0.694444444444444,0.298245614035088,2,0.25,0.298245614035088,ReadingArea_rsl2-rcl100-esl100-rsm2-rcm69-esm29-rsr2-rcr25-esr29,exr/ReadingArea_rsl2-rcl100-esl100-rsm2-rcm69-esm29-rsr2-rcr25-esr29.exr,ReadingArea_rsl2-rcl100-esl100-rsm2-rcm69-esm29-rsr2-rcr25-esr29.npz,,,,,0,30,30,280,,right,red,1.22,230.7159109115601,231.0731730461121,1,,2,4,brightness,readingArea,realistic,75,2023-03-15_15h04.40.131,tripletExp_regina_11082022,2022.2.4,120.2181770237696,
13,3,7,2,0.111111111111111,3.10526315789474,2,0.444444444444444,0.298245614035088,2,0.111111111111111,1.0,ReadingArea_rsl2-rcl11-esl310-rsm2-rcm44-esm29-rsr2-rcr11-esr100,exr/ReadingArea_rsl2-rcl11-esl310-rsm2-rcm44-esm29-rsr2-rcr11-esr100.exr,ReadingArea_rsl2-rcl11-esl310-rsm2-rcm44-esm29-rsr2-rcr11-esr100.npz,,,,,0,31,31,497,,right,red,1.17,232.77852392196647,,1,,2,4,brightness,readingArea,realistic,75,2023-03-15_15h04.40.131,tripletExp_regina_11082022,2022.2.4,120.2181770237696,
1,11,12,2,0.111111111111111,0.298245614035088,2,1.0,1.0,2,0.027777777777778,3.10526315789474,ReadingArea_rsl2-rcl11-esl29-rsm2-rcm100-esm100-rsr2-rcr2-esr310,exr/ReadingArea_rsl2-rcl11-esl29-rsm2-rcm100-esm100-rsr2-rcr2-esr310.exr,ReadingArea_rsl2-rcl11-esl29-rsm2-rcm100-esm100-rsr2-rcr2-esr310.npz,,,,,0,32,32,288,,,red,1.17,238.4169609546661,238.77038502693176,1,238.0439661026001,2,4,brightness,readingArea,realistic,75,2023-03-15_15h04.40.131,tripletExp_regina_11082022,2022.2.4,120.2181770237696,
0,4,7,2,0.027777777777778,0.298245614035088,2,0.694444444444444,0.298245614035088,2,0.111111111111111,1.0,ReadingArea_rsl2-rcl2-esl29-rsm2-rcm69-esm29-rsr2-rcr11-esr100,exr/ReadingArea_rsl2-rcl2-esl29-rsm2-rcm69-esm29-rsr2-rcr11-esr100.exr,ReadingArea_rsl2-rcl2-esl29-rsm2-rcm69-esm29-rsr2-rcr11-esr100.npz,,,,,0,33,33,200,,right,red,1.39,240.4714469909668,,1,,2,4,brightness,readingArea,realistic,75,2023-03-15_15h04.40.131,tripletExp_regina_11082022,2022.2.4,120.2181770237696,
5,2,10,2,1.0,0.298245614035088,2,0.25,0.298245614035088,2,0.694444444444444,1.0,ReadingArea_rsl2-rcl100-esl29-rsm2-rcm25-esm29-rsr2-rcr69-esr100,exr/ReadingArea_rsl2-rcl100-esl29-rsm2-rcm25-esm29-rsr2-rcr69-esr100.exr,ReadingArea_rsl2-rcl100-esl29-rsm2-rcm25-esm29-rsr2-rcr69-esr100.npz,,,,,0,34,34,595,,left,green,1.38,242.54677605628967,,1,,2,4,brightness,readingArea,realistic,75,2023-03-15_15h04.40.131,tripletExp_regina_11082022,2022.2.4,120.2181770237696,
10,12,9,2,0.694444444444444,1.0,2,0.027777777777778,3.10526315789474,2,0.444444444444444,1.0,ReadingArea_rsl2-rcl69-esl100-rsm2-rcm2-esm310-rsr2-rcr44-esr100,exr/ReadingArea_rsl2-rcl69-esl100-rsm2-rcm2-esm310-rsr2-rcr44-esr100.exr,ReadingArea_rsl2-rcl69-esl100-rsm2-rcm2-esm310-rsr2-rcr44-esr100.npz,,,,,0,35,35,405,,right,red,1.37,244.6153609752655,244.9928469657898,1,,2,4,brightness,readingArea,realistic,75,2023-03-15_15h04.40.131,tripletExp_regina_11082022,2022.2.4,120.2181770237696,
0,5,7,2,0.027777777777778,0.298245614035088,2,1.0,0.298245614035088,2,0.111111111111111,1.0,ReadingArea_rsl2-rcl2-esl29-rsm2-rcm100-esm29-rsr2-rcr11-esr100,exr/ReadingArea_rsl2-rcl2-esl29-rsm2-rcm100-esm29-rsr2-rcr11-esr100.exr,ReadingArea_rsl2-rcl2-esl29-rsm2-rcm100-esm29-rsr2-rcr11-esr100.npz,,,,,0,36,36,217,,right,red,1.09,246.69084906578064,247.0524740219116,1,,2,4,brightness,readingArea,realistic,75,2023-03-15_15h04.40.131,tripletExp_regina_11082022,2022.2.4,120.2181770237696,
14,6,7,2,0.25,3.10526315789474,2,0.027777777777778,1.0,2,0.111111111111111,1.0,ReadingArea_rsl2-rcl25-esl310-rsm2-rcm2-esm100-rsr2-rcr11-esr100,exr/ReadingArea_rsl2-rcl25-esl310-rsm2-rcm2-esm100-rsr2-rcr11-esr100.exr,ReadingArea_rsl2-rcl25-esl310-rsm2-rcm2-esm100-rsr2-rcr11-esr100.npz,,,,,0,37,37,306,,right,red,1.26,248.7458369731903,249.0867500305176,1,,2,4,brightness,readingArea,realistic,75,2023-03-15_15h04.40.131,tripletExp_regina_11082022,2022.2.4,120.2181770237696,
4,8,10,2,0.694444444444444,0.298245614035088,2,0.25,1.0,2,0.694444444444444,1.0,ReadingArea_rsl2-rcl69-esl29-rsm2-rcm25-esm100-rsr2-rcr69-esr100,exr/ReadingArea_rsl2-rcl69-esl29-rsm2-rcm25-esm100-rsr2-rcr69-esr100.exr,ReadingArea_rsl2-rcl69-esl29-rsm2-rcm25-esm100-rsr2-rcr69-esr100.npz,,,,,0,38,38,221,,left,green,1.2,250.80990505218503,251.14380502700809,1,,2,4,brightness,readingArea,realistic,75,2023-03-15_15h04.40.131,tripletExp_regina_11082022,2022.2.4,120.2181770237696,
6,10,11,2,0.027777777777778,1.0,2,0.694444444444444,1.0,2,1.0,1.0,ReadingArea_rsl2-rcl2-esl100-rsm2-rcm69-esm100-rsr2-rcr100-esr100,exr/ReadingArea_rsl2-rcl2-esl100-rsm2-rcm69-esm100-rsr2-rcr100-esr100.exr,ReadingArea_rsl2-rcl2-esl100-rsm2-rcm69-esm100-rsr2-rcr100-esr100.npz,,,,,0,39,39,116,,right,red,2.89,254.5963580608368,254.9443640708924,1,,2,4,brightness,readingArea,realistic,75,2023-03-15_15h04.40.131,tripletExp_regina_11082022,2022.2.4,120.2181770237696,
4,12,6,2,0.694444444444444,0.298245614035088,2,0.027777777777778,3.10526315789474,2,0.027777777777778,1.0,ReadingArea_rsl2-rcl69-esl29-rsm2-rcm2-esm310-rsr2-rcr2-esr100,exr/ReadingArea_rsl2-rcl69-esl29-rsm2-rcm2-esm310-rsr2-rcr2-esr100.exr,ReadingArea_rsl2-rcl69-esl29-rsm2-rcm2-esm310-rsr2-rcr2-esr100.npz,,,,,0,40,40,99,,left,green,3.17,258.38957691192627,258.74531292915344,1,,2,4,brightness,readingArea,realistic,75,2023-03-15_15h04.40.131,tripletExp_regina_11082022,2022.2.4,120.2181770237696,
8,6,13,2,0.25,1.0,2,0.027777777777778,1.0,2,0.111111111111111,3.10526315789474,ReadingArea_rsl2-rcl25-esl100-rsm2-rcm2-esm100-rsr2-rcr11-esr310,exr/ReadingArea_rsl2-rcl25-esl100-rsm2-rcm2-esm100-rsr2-rcr11-esr310.exr,ReadingArea_rsl2-rcl25-esl100-rsm2-rcm2-esm100-rsr2-rcr11-esr310.npz,,,,,0,41,41,440,,left,green,1.37,260.46841287612915,260.81127405166626,1,,2,4,brightness,readingArea,realistic,75,2023-03-15_15h04.40.131,tripletExp_regina_11082022,2022.2.4,120.2181770237696,
1,8,5,2,0.111111111111111,0.298245614035088,2,0.25,1.0,2,1.0,0.298245614035088,ReadingArea_rsl2-rcl11-esl29-rsm2-rcm25-esm100-rsr2-rcr100-esr29,exr/ReadingArea_rsl2-rcl11-esl29-rsm2-rcm25-esm100-rsr2-rcr100-esr29.exr,ReadingArea_rsl2-rcl11-esl29-rsm2-rcm25-esm100-rsr2-rcr100-esr29.npz,,,,,0,42,42,445,,right,red,2.81,264.274866104126,264.60475492477417,1,,2,4,brightness,readingArea,realistic,75,2023-03-15_15h04.40.131,tripletExp_regina_11082022,2022.2.4,120.2181770237696,
12,6,9,2,0.027777777777778,3.10526315789474,2,0.027777777777778,1.0,2,0.444444444444444,1.0,ReadingArea_rsl2-rcl2-esl310-rsm2-rcm2-esm100-rsr2-rcr44-esr100,exr/ReadingArea_rsl2-rcl2-esl310-rsm2-rcm2-esm100-rsr2-rcr44-esr100.exr,ReadingArea_rsl2-rcl2-esl310-rsm2-rcm2-esm100-rsr2-rcr44-esr100.npz,,,,,0,43,43,177,,left,green,1.15,266.3133420944214,266.66904187202454,1,,2,4,brightness,readingArea,realistic,75,2023-03-15_15h04.40.131,tripletExp_regina_11082022,2022.2.4,120.2181770237696,
5,13,12,2,1.0,0.298245614035088,2,0.111111111111111,3.10526315789474,2,0.027777777777778,3.10526315789474,ReadingArea_rsl2-rcl100-esl29-rsm2-rcm11-esm310-rsr2-rcr2-esr310,exr/ReadingArea_rsl2-rcl100-esl29-rsm2-rcm11-esm310-rsr2-rcr2-esr310.exr,ReadingArea_rsl2-rcl100-esl29-rsm2-rcm11-esm310-rsr2-rcr2-esr310.npz,,,,,0,44,44,389,,left,green,1.54,268.3829610347748,268.79250288009644,1,,2,4,brightness,readingArea,realistic,75,2023-03-15_15h04.40.131,tripletExp_regina_11082022,2022.2.4,120.2181770237696,
3,0,2,2,0.444444444444444,0.298245614035088,2,0.027777777777778,0.298245614035088,2,0.25,0.298245614035088,ReadingArea_rsl2-rcl44-esl29-rsm2-rcm2-esm29-rsr2-rcr25-esr29,exr/ReadingArea_rsl2-rcl44-esl29-rsm2-rcm2-esm29-rsr2-rcr25-esr29.exr,ReadingArea_rsl2-rcl44-esl29-rsm2-rcm2-esm29-rsr2-rcr25-esr29.npz,,,,,0,45,45,334,,right,red,1.28,270.4985840320587,270.842355966568,1,,2,4,brightness,readingArea,realistic,75,2023-03-15_15h04.40.131,tripletExp_regina_11082022,2022.2.4,120.2181770237696,
10,7,13,2,0.694444444444444,1.0,2,0.111111111111111,1.0,2,0.111111111111111,3.10526315789474,ReadingArea_rsl2-rcl69-esl100-rsm2-rcm11-esm100-rsr2-rcr11-esr310,exr/ReadingArea_rsl2-rcl69-esl100-rsm2-rcm11-esm100-rsr2-rcr11-esr310.exr,ReadingArea_rsl2-rcl69-esl100-rsm2-rcm11-esm100-rsr2-rcr11-esr310.npz,,,,,0,46,46,379,,right,red,1.14,272.56230902671814,272.9094579219818,1,,2,4,brightness,readingArea,realistic,75,2023-03-15_15h04.40.131,tripletExp_regina_11082022,2022.2.4,120.2181770237696,
10,12,11,2,0.694444444444444,1.0,2,0.027777777777778,3.10526315789474,2,1.0,1.0,ReadingArea_rsl2-rcl69-esl100-rsm2-rcm2-esm310-rsr2-rcr100-esr100,exr/ReadingArea_rsl2-rcl69-esl100-rsm2-rcm2-esm310-rsr2-rcr100-esr100.exr,ReadingArea_rsl2-rcl69-esl100-rsm2-rcm2-esm310-rsr2-rcr100-esr100.npz,,,,,0,47,47,317,,left,green,1.15,274.61739706993103,274.960746049881,1,,2,4,brightness,readingArea,realistic,75,2023-03-15_15h04.40.131,tripletExp_regina_11082022,2022.2.4,120.2181770237696,
4,1,13,2,0.694444444444444,0.298245614035088,2,0.111111111111111,0.298245614035088,2,0.111111111111111,3.10526315789474,ReadingArea_rsl2-rcl69-esl29-rsm2-rcm11-esm29-rsr2-rcr11-esr310,exr/ReadingArea_rsl2-rcl69-esl29-rsm2-rcm11-esm29-rsr2-rcr11-esr310.exr,ReadingArea_rsl2-rcl69-esl29-rsm2-rcm11-esm29-rsr2-rcr11-esr310.npz,,,,,0,48,48,565,,left,green,1.19,276.65624809265137,277.01586389541626,1,,2,4,brightness,readingArea,realistic,75,2023-03-15_15h04.40.131,tripletExp_regina_11082022,2022.2.4,120.2181770237696,
12,5,2,2,0.027777777777778,3.10526315789474,2,1.0,0.298245614035088,2,0.25,0.298245614035088,ReadingArea_rsl2-rcl2-esl310-rsm2-rcm100-esm29-rsr2-rcr25-esr29,exr/ReadingArea_rsl2-rcl2-esl310-rsm2-rcm100-esm29-rsr2-rcr25-esr29.exr,ReadingArea_rsl2-rcl2-esl310-rsm2-rcm100-esm29-rsr2-rcr25-esr29.npz,,,,,0,49,49,415,,left,green,3.09,280.48367500305176,280.84078097343445,1,,2,4,brightness,readingArea,realistic,75,2023-03-15_15h04.40.131,tripletExp_regina_11082022,2022.2.4,120.2181770237696,
7,8,6,2,0.111111111111111,1.0,2,0.25,1.0,2,0.027777777777778,1.0,ReadingArea_rsl2-rcl11-esl100-rsm2-rcm25-esm100-rsr2-rcr2-esr100,exr/ReadingArea_rsl2-rcl11-esl100-rsm2-rcm25-esm100-rsr2-rcr2-esr100.exr,ReadingArea_rsl2-rcl11-esl100-rsm2-rcm25-esm100-rsr2-rcr2-esr100.npz,,,,,0,50,50,387,,left,green,1.64,282.53889203071594,282.8965470790863,1,,2,4,brightness,readingArea,realistic,75,2023-03-15_15h04.40.131,tripletExp_regina_11082022,2022.2.4,120.2181770237696,
2,14,9,2,0.25,0.298245614035088,2,0.25,3.10526315789474,2,0.444444444444444,1.0,ReadingArea_rsl2-rcl25-esl29-rsm2-rcm25-esm310-rsr2-rcr44-esr100,exr/ReadingArea_rsl2-rcl25-esl29-rsm2-rcm25-esm310-rsr2-rcr44-esr100.exr,ReadingArea_rsl2-rcl25-esl29-rsm2-rcm25-esm310-rsr2-rcr44-esr100.npz,,,,,0,51,51,51,,right,red,1.23,284.6111340522766,284.95055508613586,1,,2,4,brightness,readingArea,realistic,75,2023-03-15_15h04.40.131,tripletExp_regina_11082022,2022.2.4,120.2181770237696,
10,5,2,2,0.694444444444444,1.0,2,1.0,0.298245614035088,2,0.25,0.298245614035088,ReadingArea_rsl2-rcl69-esl100-rsm2-rcm100-esm29-rsr2-rcr25-esr29,exr/ReadingArea_rsl2-rcl69-esl100-rsm2-rcm100-esm29-rsr2-rcr25-esr29.exr,ReadingArea_rsl2-rcl69-esl100-rsm2-rcm100-esm29-rsr2-rcr25-esr29.npz,,,,,0,52,52,299,,right,red,1.75,286.6390709877014,287.1460990905762,1,,2,4,brightness,readingArea,realistic,75,2023-03-15_15h04.40.131,tripletExp_regina_11082022,2022.2.4,120.2181770237696,
7,11,13,2,0.111111111111111,1.0,2,1.0,1.0,2,0.111111111111111,3.10526315789474,ReadingArea_rsl2-rcl11-esl100-rsm2-rcm100-esm100-rsr2-rcr11-esr310,exr/ReadingArea_rsl2-rcl11-esl100-rsm2-rcm100-esm100-rsr2-rcr11-esr310.exr,ReadingArea_rsl2-rcl11-esl100-rsm2-rcm100-esm100-rsr2-rcr11-esr310.npz,,,,,0,53,53,76,,right,red,1.27,288.83559489250183,289.1881248950958,1,,2,4,brightness,readingArea,realistic,75,2023-03-15_15h04.40.131,tripletExp_regina_11082022,2022.2.4,120.2181770237696,
7,3,0,2,0.111111111111111,1.0,2,0.444444444444444,0.298245614035088,2,0.027777777777778,0.298245614035088,ReadingArea_rsl2-rcl11-esl100-rsm2-rcm44-esm29-rsr2-rcr2-esr29,exr/ReadingArea_rsl2-rcl11-esl100-rsm2-rcm44-esm29-rsr2-rcr2-esr29.exr,ReadingArea_rsl2-rcl11-esl100-rsm2-rcm44-esm29-rsr2-rcr2-esr29.npz,,,,,0,54,54,318,,left,green,0.87,290.9027900695801,291.24000692367554,1,,2,4,brightness,readingArea,realistic,75,2023-03-15_15h04.40.131,tripletExp_regina_11082022,2022.2.4,120.2181770237696,
10,1,0,2,0.694444444444444,1.0,2,0.111111111111111,0.298245614035088,2,0.027777777777778,0.298245614035088,ReadingArea_rsl2-rcl69-esl100-rsm2-rcm11-esm29-rsr2-rcr2-esr29,exr/ReadingArea_rsl2-rcl69-esl100-rsm2-rcm11-esm29-rsr2-rcr2-esr29.exr,ReadingArea_rsl2-rcl69-esl100-rsm2-rcm11-esm29-rsr2-rcr2-esr29.npz,,,,,0,55,55,276,,right,red,1.19,292.9514219760895,293.3119258880615,1,,2,4,brightness,readingArea,realistic,75,2023-03-15_15h04.40.131,tripletExp_regina_11082022,2022.2.4,120.2181770237696,
7,8,11,2,0.111111111111111,1.0,2,0.25,1.0,2,1.0,1.0,ReadingArea_rsl2-rcl11-esl100-rsm2-rcm25-esm100-rsr2-rcr100-esr100,exr/ReadingArea_rsl2-rcl11-esl100-rsm2-rcm25-esm100-rsr2-rcr100-esr100.exr,ReadingArea_rsl2-rcl11-esl100-rsm2-rcm25-esm100-rsr2-rcr100-esr100.npz,,,,,0,56,56,363,,left,green,1.07,295.00125789642334,295.3329019546509,1,,2,4,brightness,readingArea,realistic,75,2023-03-15_15h04.40.131,tripletExp_regina_11082022,2022.2.4,120.2181770237696,
4,3,10,2,0.694444444444444,0.298245614035088,2,0.444444444444444,0.298245614035088,2,0.694444444444444,1.0,ReadingArea_rsl2-rcl69-esl29-rsm2-rcm44-esm29-rsr2-rcr69-esr100,exr/ReadingArea_rsl2-rcl69-esl29-rsm2-rcm44-esm29-rsr2-rcr69-esr100.exr,ReadingArea_rsl2-rcl69-esl29-rsm2-rcm44-esm29-rsr2-rcr69-esr100.npz,,,,,0,57,57,371,,left,green,0.68,297.0417799949646,297.4060719013214,1,,2,4,brightness,readingArea,realistic,75,2023-03-15_15h04.40.131,tripletExp_regina_11082022,2022.2.4,120.2181770237696,
11,12,4,2,1.0,1.0,2,0.027777777777778,3.10526315789474,2,0.694444444444444,0.298245614035088,ReadingArea_rsl2-rcl100-esl100-rsm2-rcm2-esm310-rsr2-rcr69-esr29,exr/ReadingArea_rsl2-rcl100-esl100-rsm2-rcm2-esm310-rsr2-rcr69-esr29.exr,ReadingArea_rsl2-rcl100-esl100-rsm2-rcm2-esm310-rsr2-rcr69-esr29.npz,,,,,0,58,58,250,,right,red,1.07,299.1264488697052,299.474662065506,1,,2,4,brightness,readingArea,realistic,75,2023-03-15_15h04.40.131,tripletExp_regina_11082022,2022.2.4,120.2181770237696,
4,8,11,2,0.694444444444444,0.298245614035088,2,0.25,1.0,2,1.0,1.0,ReadingArea_rsl2-rcl69-esl29-rsm2-rcm25-esm100-rsr2-rcr100-esr100,exr/ReadingArea_rsl2-rcl69-esl29-rsm2-rcm25-esm100-rsr2-rcr100-esr100.exr,ReadingArea_rsl2-rcl69-esl29-rsm2-rcm25-esm100-rsr2-rcr100-esr100.npz,,,,,0,59,59,403,,left,green,1.26,301.1894500255585,,1,,2,4,brightness,readingArea,realistic,75,2023-03-15_15h04.40.131,tripletExp_regina_11082022,2022.2.4,120.2181770237696,
10,14,1,2,0.694444444444444,1.0,2,0.25,3.10526315789474,2,0.111111111111111,0.298245614035088,ReadingArea_rsl2-rcl69-esl100-rsm2-rcm25-esm310-rsr2-rcr11-esr29,exr/ReadingArea_rsl2-rcl69-esl100-rsm2-rcm25-esm310-rsr2-rcr11-esr29.exr,ReadingArea_rsl2-rcl69-esl100-rsm2-rcm25-esm310-rsr2-rcr11-esr29.npz,,,,,0,60,60,544,,left,green,1.27,303.2434229850769,303.5991458892822,1,,2,4,brightness,readingArea,realistic,75,2023-03-15_15h04.40.131,tripletExp_regina_11082022,2022.2.4,120.2181770237696,
14,12,5,2,0.25,3.10526315789474,2,0.027777777777778,3.10526315789474,2,1.0,0.298245614035088,ReadingArea_rsl2-rcl25-esl310-rsm2-rcm2-esm310-rsr2-rcr100-esr29,exr/ReadingArea_rsl2-rcl25-esl310-rsm2-rcm2-esm310-rsr2-rcr100-esr29.exr,ReadingArea_rsl2-rcl25-esl310-rsm2-rcm2-esm310-rsr2-rcr100-esr29.npz,,,,,0,61,61,335,,right,red,3.1,307.0781168937683,307.4246349334717,1,,2,4,brightness,readingArea,realistic,75,2023-03-15_15h04.40.131,tripletExp_regina_11082022,2022.2.4,120.2181770237696,
10,0,11,2,0.694444444444444,1.0,2,0.027777777777778,0.298245614035088,2,1.0,1.0,ReadingArea_rsl2-rcl69-esl100-rsm2-rcm2-esm29-rsr2-rcr100-esr100,exr/ReadingArea_rsl2-rcl69-esl100-rsm2-rcm2-esm29-rsr2-rcr100-esr100.exr,ReadingArea_rsl2-rcl69-esl100-rsm2-rcm2-esm29-rsr2-rcr100-esr100.npz,,,,,0,62,62,573,,left,green,1.39,309.1165809631348,309.4738059043884,1,,2,4,brightness,readingArea,realistic,75,2023-03-15_15h04.40.131,tripletExp_regina_11082022,2022.2.4,120.2181770237696,
2,11,8,2,0.25,0.298245614035088,2,1.0,1.0,2,0.25,1.0,ReadingArea_rsl2-rcl25-esl29-rsm2-rcm100-esm100-rsr2-rcr25-esr100,exr/ReadingArea_rsl2-rcl25-esl29-rsm2-rcm100-esm100-rsr2-rcr25-esr100.exr,ReadingArea_rsl2-rcl25-esl29-rsm2-rcm100-esm100-rsr2-rcr25-esr100.npz,,,,,0,63,63,364,,right,red,1.24,311.1928389072418,311.5573489665985,1,,2,4,brightness,readingArea,realistic,75,2023-03-15_15h04.40.131,tripletExp_regina_11082022,2022.2.4,120.2181770237696,
14,7,13,2,0.25,3.10526315789474,2,0.111111111111111,1.0,2,0.111111111111111,3.10526315789474,ReadingArea_rsl2-rcl25-esl310-rsm2-rcm11-esm100-rsr2-rcr11-esr310,exr/ReadingArea_rsl2-rcl25-esl310-rsm2-rcm11-esm100-rsr2-rcr11-esr310.exr,ReadingArea_rsl2-rcl25-esl310-rsm2-rcm11-esm100-rsr2-rcr11-esr310.npz,,,,,0,64,64,358,,right,red,1.17,313.27925992012024,313.6403169631958,1,,2,4,brightness,readingArea,realistic,75,2023-03-15_15h04.40.131,tripletExp_regina_11082022,2022.2.4,120.2181770237696,
5,0,6,2,1.0,0.298245614035088,2,0.027777777777778,0.298245614035088,2,0.027777777777778,1.0,ReadingArea_rsl2-rcl100-esl29-rsm2-rcm2-esm29-rsr2-rcr2-esr100,exr/ReadingArea_rsl2-rcl100-esl29-rsm2-rcm2-esm29-rsr2-rcr2-esr100.exr,ReadingArea_rsl2-rcl100-esl29-rsm2-rcm2-esm29-rsr2-rcr2-esr100.npz,,,,,0,65,65,1,,right,red,1.06,315.3358790874481,315.67029905319214,1,,2,4,brightness,readingArea,realistic,75,2023-03-15_15h04.40.131,tripletExp_regina_11082022,2022.2.4,120.2181770237696,
5,11,14,2,1.0,0.298245614035088,2,1.0,1.0,2,0.25,3.10526315789474,ReadingArea_rsl2-rcl100-esl29-rsm2-rcm100-esm100-rsr2-rcr25-esr310,exr/ReadingArea_rsl2-rcl100-esl29-rsm2-rcm100-esm100-rsr2-rcr25-esr310.exr,ReadingArea_rsl2-rcl100-esl29-rsm2-rcm100-esm100-rsr2-rcr25-esr310.npz,,,,,0,66,66,258,,right,red,1.31,317.37462091445923,317.7458620071411,1,,2,4,brightness,readingArea,realistic,75,2023-03-15_15h04.40.131,tripletExp_regina_11082022,2022.2.4,120.2181770237696,
4,0,3,2,0.694444444444444,0.298245614035088,2,0.027777777777778,0.298245614035088,2,0.444444444444444,0.298245614035088,ReadingArea_rsl2-rcl69-esl29-rsm2-rcm2-esm29-rsr2-rcr44-esr29,exr/ReadingArea_rsl2-rcl69-esl29-rsm2-rcm2-esm29-rsr2-rcr44-esr29.exr,ReadingArea_rsl2-rcl69-esl29-rsm2-rcm2-esm29-rsr2-rcr44-esr29.npz,,,,,0,67,67,88,,right,red,1.25,319.4384548664093,319.79863595962524,1,,2,4,brightness,readingArea,realistic,75,2023-03-15_15h04.40.131,tripletExp_regina_11082022,2022.2.4,120.2181770237696,
2,9,11,2,0.25,0.298245614035088,2,0.444444444444444,1.0,2,1.0,1.0,ReadingArea_rsl2-rcl25-esl29-rsm2-rcm44-esm100-rsr2-rcr100-esr100,exr/ReadingArea_rsl2-rcl25-esl29-rsm2-rcm44-esm100-rsr2-rcr100-esr100.exr,ReadingArea_rsl2-rcl25-esl29-rsm2-rcm44-esm100-rsr2-rcr100-esr100.npz,,,,,0,68,68,164,,left,green,1.32,321.5191819667816,321.88364005088806,1,,2,4,brightness,readingArea,realistic,75,2023-03-15_15h04.40.131,tripletExp_regina_11082022,2022.2.4,120.2181770237696,
1,13,14,2,0.111111111111111,0.298245614035088,2,0.111111111111111,3.10526315789474,2,0.25,3.10526315789474,ReadingArea_rsl2-rcl11-esl29-rsm2-rcm11-esm310-rsr2-rcr25-esr310,exr/ReadingArea_rsl2-rcl11-esl29-rsm2-rcm11-esm310-rsr2-rcr25-esr310.exr,ReadingArea_rsl2-rcl11-esl29-rsm2-rcm11-esm310-rsr2-rcr25-esr310.npz,,,,,0,69,69,183,,left,green,1.41,323.57764506340027,323.93367195129395,1,,2,4,brightness,readingArea,realistic,75,2023-03-15_15h04.40.131,tripletExp_regina_11082022,2022.2.4,120.2181770237696,
0,10,14,2,0.027777777777778,0.298245614035088,2,0.694444444444444,1.0,2,0.25,3.10526315789474,ReadingArea_rsl2-rcl2-esl29-rsm2-rcm69-esm100-rsr2-rcr25-esr310,exr/ReadingArea_rsl2-rcl2-esl29-rsm2-rcm69-esm100-rsr2-rcr25-esr310.exr,ReadingArea_rsl2-rcl2-esl29-rsm2-rcm69-esm100-rsr2-rcr25-esr310.npz,,,,,0,70,70,31,,right,red,1.22,325.6464829444885,326.0025079250336,1,,2,4,brightness,readingArea,realistic,75,2023-03-15_15h04.40.131,tripletExp_regina_11082022,2022.2.4,120.2181770237696,
13,11,10,2,0.111111111111111,3.10526315789474,2,1.0,1.0,2,0.694444444444444,1.0,ReadingArea_rsl2-rcl11-esl310-rsm2-rcm100-esm100-rsr2-rcr69-esr100,exr/ReadingArea_rsl2-rcl11-esl310-rsm2-rcm100-esm100-rsr2-rcr69-esr100.exr,ReadingArea_rsl2-rcl11-esl310-rsm2-rcm100-esm100-rsr2-rcr69-esr100.npz,,,,,0,71,71,577,,right,red,1.37,327.7076299190521,328.06959104537964,1,,2,4,brightness,readingArea,realistic,75,2023-03-15_15h04.40.131,tripletExp_regina_11082022,2022.2.4,120.2181770237696,
3,8,7,2,0.444444444444444,0.298245614035088,2,0.25,1.0,2,0.111111111111111,1.0,ReadingArea_rsl2-rcl44-esl29-rsm2-rcm25-esm100-rsr2-rcr11-esr100,exr/ReadingArea_rsl2-rcl44-esl29-rsm2-rcm25-esm100-rsr2-rcr11-esr100.exr,ReadingArea_rsl2-rcl44-esl29-rsm2-rcm25-esm100-rsr2-rcr11-esr100.npz,,,,,0,72,72,484,,left,green,4.29,333.27404499053955,333.6415820121765,1,,2,4,brightness,readingArea,realistic,75,2023-03-15_15h04.40.131,tripletExp_regina_11082022,2022.2.4,120.2181770237696,
9,11,6,2,0.444444444444444,1.0,2,1.0,1.0,2,0.027777777777778,1.0,ReadingArea_rsl2-rcl44-esl100-rsm2-rcm100-esm100-rsr2-rcr2-esr100,exr/ReadingArea_rsl2-rcl44-esl100-rsm2-rcm100-esm100-rsr2-rcr2-esr100.exr,ReadingArea_rsl2-rcl44-esl100-rsm2-rcm100-esm100-rsr2-rcr2-esr100.npz,,,,,0,73,73,404,,left,green,1.05,335.3478970527649,335.6825339794159,1,,2,4,brightness,readingArea,realistic,75,2023-03-15_15h04.40.131,tripletExp_regina_11082022,2022.2.4,120.2181770237696,
13,8,0,2,0.111111111111111,3.10526315789474,2,0.25,1.0,2,0.027777777777778,0.298245614035088,ReadingArea_rsl2-rcl11-esl310-rsm2-rcm25-esm100-rsr2-rcr2-esr29,exr/ReadingArea_rsl2-rcl11-esl310-rsm2-rcm25-esm100-rsr2-rcr2-esr29.exr,ReadingArea_rsl2-rcl11-esl310-rsm2-rcm25-esm100-rsr2-rcr2-esr29.npz,,,,,0,74,74,429,,left,green,1.03,337.3966209888458,337.6021149158478,1,,2,4,brightness,readingArea,realistic,75,2023-03-15_15h04.40.131,tripletExp_regina_11082022,2022.2.4,120.2181770237696,
8,9,6,2,0.25,1.0,2,0.444444444444444,1.0,2,0.027777777777778,1.0,ReadingArea_rsl2-rcl25-esl100-rsm2-rcm44-esm100-rsr2-rcr2-esr100,exr/ReadingArea_rsl2-rcl25-esl100-rsm2-rcm44-esm100-rsr2-rcr2-esr100.exr,ReadingArea_rsl2-rcl25-esl100-rsm2-rcm44-esm100-rsr2-rcr2-esr100.npz,,,,,0,75,75,3,,left,green,2.13,388.7291948795319,389.0949399471283,2,,2,4,brightness,readingArea,realistic,75,2023-03-15_15h04.40.131,tripletExp_regina_11082022,2022.2.4,120.2181770237696,
8,7,12,2,0.25,1.0,2,0.111111111111111,1.0,2,0.027777777777778,3.10526315789474,ReadingArea_rsl2-rcl25-esl100-rsm2-rcm11-esm100-rsr2-rcr2-esr310,exr/ReadingArea_rsl2-rcl25-esl100-rsm2-rcm11-esm100-rsr2-rcr2-esr310.exr,ReadingArea_rsl2-rcl25-esl100-rsm2-rcm11-esm100-rsr2-rcr2-esr310.npz,,,,,0,76,76,471,,right,red,3.05,392.5915720462799,392.9516348838806,2,,2,4,brightness,readingArea,realistic,75,2023-03-15_15h04.40.131,tripletExp_regina_11082022,2022.2.4,120.2181770237696,
2,6,10,2,0.25,0.298245614035088,2,0.027777777777778,1.0,2,0.694444444444444,1.0,ReadingArea_rsl2-rcl25-esl29-rsm2-rcm2-esm100-rsr2-rcr69-esr100,exr/ReadingArea_rsl2-rcl25-esl29-rsm2-rcm2-esm100-rsr2-rcr69-esr100.exr,ReadingArea_rsl2-rcl25-esl29-rsm2-rcm2-esm100-rsr2-rcr69-esr100.npz,,,,,0,77,77,42,,left,green,1.45,394.6562430858612,395.01567792892456,2,,2,4,brightness,readingArea,realistic,75,2023-03-15_15h04.40.131,tripletExp_regina_11082022,2022.2.4,120.2181770237696,
3,2,8,2,0.444444444444444,0.298245614035088,2,0.25,0.298245614035088,2,0.25,1.0,ReadingArea_rsl2-rcl44-esl29-rsm2-rcm25-esm29-rsr2-rcr25-esr100,exr/ReadingArea_rsl2-rcl44-esl29-rsm2-rcm25-esm29-rsr2-rcr25-esr100.exr,ReadingArea_rsl2-rcl44-esl29-rsm2-rcm25-esm29-rsr2-rcr25-esr100.npz,,,,,0,78,78,181,,left,green,1.46,396.7024669647217,397.05506706237793,2,,2,4,brightness,readingArea,realistic,75,2023-03-15_15h04.40.131,tripletExp_regina_11082022,2022.2.4,120.2181770237696,
14,0,6,2,0.25,3.10526315789474,2,0.027777777777778,0.298245614035088,2,0.027777777777778,1.0,ReadingArea_rsl2-rcl25-esl310-rsm2-rcm2-esm29-rsr2-rcr2-esr100,exr/ReadingArea_rsl2-rcl25-esl310-rsm2-rcm2-esm29-rsr2-rcr2-esr100.exr,ReadingArea_rsl2-rcl25-esl310-rsm2-rcm2-esm29-rsr2-rcr2-esr100.npz,,,,,0,79,79,496,,right,red,1.22,398.7733268737793,399.13184094429016,2,,2,4,brightness,readingArea,realistic,75,2023-03-15_15h04.40.131,tripletExp_regina_11082022,2022.2.4,120.2181770237696,
5,2,8,2,1.0,0.298245614035088,2,0.25,0.298245614035088,2,0.25,1.0,ReadingArea_rsl2-rcl100-esl29-rsm2-rcm25-esm29-rsr2-rcr25-esr100,exr/ReadingArea_rsl2-rcl100-esl29-rsm2-rcm25-esm29-rsr2-rcr25-esr100.exr,ReadingArea_rsl2-rcl100-esl29-rsm2-rcm25-esm29-rsr2-rcr25-esr100.npz,,,,,0,80,80,538,,right,red,1.38,400.8184559345245,401.1759359836578,2,,2,4,brightness,readingArea,realistic,75,2023-03-15_15h04.40.131,tripletExp_regina_11082022,2022.2.4,120.2181770237696,
6,13,5,2,0.027777777777778,1.0,2,0.111111111111111,3.10526315789474,2,1.0,0.298245614035088,ReadingArea_rsl2-rcl2-esl100-rsm2-rcm11-esm310-rsr2-rcr100-esr29,exr/ReadingArea_rsl2-rcl2-esl100-rsm2-rcm11-esm310-rsr2-rcr100-esr29.exr,ReadingArea_rsl2-rcl2-esl100-rsm2-rcm11-esm310-rsr2-rcr100-esr29.npz,,,,,0,81,81,53,,right,red,1.27,402.88540291786194,403.23382592201233,2,,2,4,brightness,readingArea,realistic,75,2023-03-15_15h04.40.131,tripletExp_regina_11082022,2022.2.4,120.2181770237696,
10,3,6,2,0.694444444444444,1.0,2,0.444444444444444,0.298245614035088,2,0.027777777777778,1.0,ReadingArea_rsl2-rcl69-esl100-rsm2-rcm44-esm29-rsr2-rcr2-esr100,exr/ReadingArea_rsl2-rcl69-esl100-rsm2-rcm44-esm29-rsr2-rcr2-esr100.exr,ReadingArea_rsl2-rcl69-esl100-rsm2-rcm44-esm29-rsr2-rcr2-esr100.npz,,,,,0,82,82,261,,right,red,4.51,408.4681990146637,408.8141360282898,2,,2,4,brightness,readingArea,realistic,75,2023-03-15_15h04.40.131,tripletExp_regina_11082022,2022.2.4,120.2181770237696,
4,12,2,2,0.694444444444444,0.298245614035088,2,0.027777777777778,3.10526315789474,2,0.25,0.298245614035088,ReadingArea_rsl2-rcl69-esl29-rsm2-rcm2-esm310-rsr2-rcr25-esr29,exr/ReadingArea_rsl2-rcl69-esl29-rsm2-rcm2-esm310-rsr2-rcr25-esr29.exr,ReadingArea_rsl2-rcl69-esl29-rsm2-rcm2-esm310-rsr2-rcr25-esr29.npz,,,,,0,83,83,543,,right,red,2.95,412.2741639614105,412.63935804367065,2,,2,4,brightness,readingArea,realistic,75,2023-03-15_15h04.40.131,tripletExp_regina_11082022,2022.2.4,120.2181770237696,
1,5,13,2,0.111111111111111,0.298245614035088,2,1.0,0.298245614035088,2,0.111111111111111,3.10526315789474,ReadingArea_rsl2-rcl11-esl29-rsm2-rcm100-esm29-rsr2-rcr11-esr310,exr/ReadingArea_rsl2-rcl11-esl29-rsm2-rcm100-esm29-rsr2-rcr11-esr310.exr,ReadingArea_rsl2-rcl11-esl29-rsm2-rcm100-esm29-rsr2-rcr11-esr310.npz,,,,,0,84,84,598,,right,red,1.32,414.34849405288696,414.679270029068,2,,2,4,brightness,readingArea,realistic,75,2023-03-15_15h04.40.131,tripletExp_regina_11082022,2022.2.4,120.2181770237696,
11,0,6,2,1.0,1.0,2,0.027777777777778,0.298245614035088,2,0.027777777777778,1.0,ReadingArea_rsl2-rcl100-esl100-rsm2-rcm2-esm29-rsr2-rcr2-esr100,exr/ReadingArea_rsl2-rcl100-esl100-rsm2-rcm2-esm29-rsr2-rcr2-esr100.exr,ReadingArea_rsl2-rcl100-esl100-rsm2-rcm2-esm29-rsr2-rcr2-esr100.npz,,,,,0,85,85,586,,right,red,1.03,416.3666379451752,416.7055869102478,2,,2,4,brightness,readingArea,realistic,75,2023-03-15_15h04.40.131,tripletExp_regina_11082022,2022.2.4,120.2181770237696,
4,10,9,2,0.694444444444444,0.298245614035088,2,0.694444444444444,1.0,2,0.444444444444444,1.0,ReadingArea_rsl2-rcl69-esl29-rsm2-rcm69-esm100-rsr2-rcr44-esr100,exr/ReadingArea_rsl2-rcl69-esl29-rsm2-rcm69-esm100-rsr2-rcr44-esr100.exr,ReadingArea_rsl2-rcl69-esl29-rsm2-rcm69-esm100-rsr2-rcr44-esr100.npz,,,,,0,86,86,516,,right,red,1.29,418.413507938385,418.7747468948364,2,,2,4,brightness,readingArea,realistic,75,2023-03-15_15h04.40.131,tripletExp_regina_11082022,2022.2.4,120.2181770237696,
6,10,9,2,0.027777777777778,1.0,2,0.694444444444444,1.0,2,0.444444444444444,1.0,ReadingArea_rsl2-rcl2-esl100-rsm2-rcm69-esm100-rsr2-rcr44-esr100,exr/ReadingArea_rsl2-rcl2-esl100-rsm2-rcm69-esm100-rsr2-rcr44-esr100.exr,ReadingArea_rsl2-rcl2-esl100-rsm2-rcm69-esm100-rsr2-rcr44-esr100.npz,,,,,0,87,87,148,,right,red,0.74,420.47131991386414,420.8322389125824,2,,2,4,brightness,readingArea,realistic,75,2023-03-15_15h04.40.131,tripletExp_regina_11082022,2022.2.4,120.2181770237696,
11,0,12,2,1.0,1.0,2,0.027777777777778,0.298245614035088,2,0.027777777777778,3.10526315789474,ReadingArea_rsl2-rcl100-esl100-rsm2-rcm2-esm29-rsr2-rcr2-esr310,exr/ReadingArea_rsl2-rcl100-esl100-rsm2-rcm2-esm29-rsr2-rcr2-esr310.exr,ReadingArea_rsl2-rcl100-esl100-rsm2-rcm2-esm29-rsr2-rcr2-esr310.npz,,,,,0,88,88,166,,right,red,1.24,422.5316770076752,422.8894760608673,2,,2,4,brightness,readingArea,realistic,75,2023-03-15_15h04.40.131,tripletExp_regina_11082022,2022.2.4,120.2181770237696,
0,14,8,2,0.027777777777778,0.298245614035088,2,0.25,3.10526315789474,2,0.25,1.0,ReadingArea_rsl2-rcl2-esl29-rsm2-rcm25-esm310-rsr2-rcr25-esr100,exr/ReadingArea_rsl2-rcl2-esl29-rsm2-rcm25-esm310-rsr2-rcr25-esr100.exr,ReadingArea_rsl2-rcl2-esl29-rsm2-rcm25-esm310-rsr2-rcr25-esr100.npz,,,,,0,89,89,545,,right,red,1.06,424.5921640396118,,2,,2,4,brightness,readingArea,realistic,75,2023-03-15_15h04.40.131,tripletExp_regina_11082022,2022.2.4,120.2181770237696,
14,13,0,2,0.25,3.10526315789474,2,0.111111111111111,3.10526315789474,2,0.027777777777778,0.298245614035088,ReadingArea_rsl2-rcl25-esl310-rsm2-rcm11-esm310-rsr2-rcr2-esr29,exr/ReadingArea_rsl2-rcl25-esl310-rsm2-rcm11-esm310-rsr2-rcr2-esr29.exr,ReadingArea_rsl2-rcl25-esl310-rsm2-rcm11-esm310-rsr2-rcr2-esr29.npz,,,,,0,90,90,417,,left,green,1.34,426.6253519058228,426.9826838970184,2,,2,4,brightness,readingArea,realistic,75,2023-03-15_15h04.40.131,tripletExp_regina_11082022,2022.2.4,120.2181770237696,
0,8,12,2,0.027777777777778,0.298245614035088,2,0.25,1.0,2,0.027777777777778,3.10526315789474,ReadingArea_rsl2-rcl2-esl29-rsm2-rcm25-esm100-rsr2-rcr2-esr310,exr/ReadingArea_rsl2-rcl2-esl29-rsm2-rcm25-esm100-rsr2-rcr2-esr310.exr,ReadingArea_rsl2-rcl2-esl29-rsm2-rcm25-esm100-rsr2-rcr2-esr310.npz,,,,,0,91,91,314,,right,red,1.65,428.67258310317993,429.0058870315552,2,,2,4,brightness,readingArea,realistic,75,2023-03-15_15h04.40.131,tripletExp_regina_11082022,2022.2.4,120.2181770237696,
10,1,6,2,0.694444444444444,1.0,2,0.111111111111111,0.298245614035088,2,0.027777777777778,1.0,ReadingArea_rsl2-rcl69-esl100-rsm2-rcm11-esm29-rsr2-rcr2-esr100,exr/ReadingArea_rsl2-rcl69-esl100-rsm2-rcm11-esm29-rsr2-rcr2-esr100.exr,ReadingArea_rsl2-rcl69-esl100-rsm2-rcm11-esm29-rsr2-rcr2-esr100.npz,,,,,0,92,92,160,,right,red,1.44,430.69571900367737,431.0560519695282,2,,2,4,brightness,readingArea,realistic,75,2023-03-15_15h04.40.131,tripletExp_regina_11082022,2022.2.4,120.2181770237696,
2,4,10,2,0.25,0.298245614035088,2,0.694444444444444,0.298245614035088,2,0.694444444444444,1.0,ReadingArea_rsl2-rcl25-esl29-rsm2-rcm69-esm29-rsr2-rcr69-esr100,exr/ReadingArea_rsl2-rcl25-esl29-rsm2-rcm69-esm29-rsr2-rcr69-esr100.exr,ReadingArea_rsl2-rcl25-esl29-rsm2-rcm69-esm29-rsr2-rcr69-esr100.npz,,,,,0,93,93,174,,left,green,1.5,432.74327301979065,,2,,2,4,brightness,readingArea,realistic,75,2023-03-15_15h04.40.131,tripletExp_regina_11082022,2022.2.4,120.2181770237696,
12,4,9,2,0.027777777777778,3.10526315789474,2,0.694444444444444,0.298245614035088,2,0.444444444444444,1.0,ReadingArea_rsl2-rcl2-esl310-rsm2-rcm69-esm29-rsr2-rcr44-esr100,exr/ReadingArea_rsl2-rcl2-esl310-rsm2-rcm69-esm29-rsr2-rcr44-esr100.exr,ReadingArea_rsl2-rcl2-esl310-rsm2-rcm69-esm29-rsr2-rcr44-esr100.npz,,,,,0,94,94,380,,right,red,2.79,436.5892760753632,436.9546458721161,2,,2,4,brightness,readingArea,realistic,75,2023-03-15_15h04.40.131,tripletExp_regina_11082022,2022.2.4,120.2181770237696,
14,8,9,2,0.25,3.10526315789474,2,0.25,1.0,2,0.444444444444444,1.0,ReadingArea_rsl2-rcl25-esl310-rsm2-rcm25-esm100-rsr2-rcr44-esr100,exr/ReadingArea_rsl2-rcl25-esl310-rsm2-rcm25-esm100-rsr2-rcr44-esr100.exr,ReadingArea_rsl2-rcl25-esl310-rsm2-rcm25-esm100-rsr2-rcr44-esr100.npz,,,,,0,95,95,518,,right,red,1.77,438.6589920520783,438.9943490028381,2,,2,4,brightness,readingArea,realistic,75,2023-03-15_15h04.40.131,tripletExp_regina_11082022,2022.2.4,120.2181770237696,
8,9,2,2,0.25,1.0,2,0.444444444444444,1.0,2,0.25,0.298245614035088,ReadingArea_rsl2-rcl25-esl100-rsm2-rcm44-esm100-rsr2-rcr25-esr29,exr/ReadingArea_rsl2-rcl25-esl100-rsm2-rcm44-esm100-rsr2-rcr25-esr29.exr,ReadingArea_rsl2-rcl25-esl100-rsm2-rcm44-esm100-rsr2-rcr25-esr29.npz,,,,,0,96,96,559,,left,green,1.45,440.6964650154114,441.0640969276428,2,,2,4,brightness,readingArea,realistic,75,2023-03-15_15h04.40.131,tripletExp_regina_11082022,2022.2.4,120.2181770237696,
7,10,13,2,0.111111111111111,1.0,2,0.694444444444444,1.0,2,0.111111111111111,3.10526315789474,ReadingArea_rsl2-rcl11-esl100-rsm2-rcm69-esm100-rsr2-rcr11-esr310,exr/ReadingArea_rsl2-rcl11-esl100-rsm2-rcm69-esm100-rsr2-rcr11-esr310.exr,ReadingArea_rsl2-rcl11-esl100-rsm2-rcm69-esm100-rsr2-rcr11-esr310.npz,,,,,0,97,97,446,,right,red,1.48,442.75553798675537,443.0955100059509,2,,2,4,brightness,readingArea,realistic,75,2023-03-15_15h04.40.131,tripletExp_regina_11082022,2022.2.4,120.2181770237696,
9,12,11,2,0.444444444444444,1.0,2,0.027777777777778,3.10526315789474,2,1.0,1.0,ReadingArea_rsl2-rcl44-esl100-rsm2-rcm2-esm310-rsr2-rcr100-esr100,exr/ReadingArea_rsl2-rcl44-esl100-rsm2-rcm2-esm310-rsr2-rcr100-esr100.exr,ReadingArea_rsl2-rcl44-esl100-rsm2-rcm2-esm310-rsr2-rcr100-esr100.npz,,,,,0,98,98,144,,left,green,1.12,444.78478503227234,445.1309759616852,2,,2,4,brightness,readingArea,realistic,75,2023-03-15_15h04.40.131,tripletExp_regina_11082022,2022.2.4,120.2181770237696,
4,1,3,2,0.694444444444444,0.298245614035088,2,0.111111111111111,0.298245614035088,2,0.444444444444444,0.298245614035088,ReadingArea_rsl2-rcl69-esl29-rsm2-rcm11-esm29-rsr2-rcr44-esr29,exr/ReadingArea_rsl2-rcl69-esl29-rsm2-rcm11-esm29-rsr2-rcr44-esr29.exr,ReadingArea_rsl2-rcl69-esl29-rsm2-rcm11-esm29-rsr2-rcr44-esr29.npz,,,,,0,99,99,70,,right,red,1.63,446.8306350708008,447.19900703430176,2,,2,4,brightness,readingArea,realistic,75,2023-03-15_15h04.40.131,tripletExp_regina_11082022,2022.2.4,120.2181770237696,
7,13,12,2,0.111111111111111,1.0,2,0.111111111111111,3.10526315789474,2,0.027777777777778,3.10526315789474,ReadingArea_rsl2-rcl11-esl100-rsm2-rcm11-esm310-rsr2-rcr2-esr310,exr/ReadingArea_rsl2-rcl11-esl100-rsm2-rcm11-esm310-rsr2-rcr2-esr310.exr,ReadingArea_rsl2-rcl11-esl100-rsm2-rcm11-esm310-rsr2-rcr2-esr310.npz,,,,,0,100,100,438,,right,red,1.38,448.9107480049133,449.27086997032166,2,,2,4,brightness,readingArea,realistic,75,2023-03-15_15h04.40.131,tripletExp_regina_11082022,2022.2.4,120.2181770237696,
12,3,13,2,0.027777777777778,3.10526315789474,2,0.444444444444444,0.298245614035088,2,0.111111111111111,3.10526315789474,ReadingArea_rsl2-rcl2-esl310-rsm2-rcm44-esm29-rsr2-rcr11-esr310,exr/ReadingArea_rsl2-rcl2-esl310-rsm2-rcm44-esm29-rsr2-rcr11-esr310.exr,ReadingArea_rsl2-rcl2-esl310-rsm2-rcm44-esm29-rsr2-rcr11-esr310.npz,,,,,0,101,101,383,,left,green,1.71,450.9640939235687,451.3276019096375,2,,2,4,brightness,readingArea,realistic,75,2023-03-15_15h04.40.131,tripletExp_regina_11082022,2022.2.4,120.2181770237696,
13,6,12,2,0.111111111111111,3.10526315789474,2,0.027777777777778,1.0,2,0.027777777777778,3.10526315789474,ReadingArea_rsl2-rcl11-esl310-rsm2-rcm2-esm100-rsr2-rcr2-esr310,exr/ReadingArea_rsl2-rcl11-esl310-rsm2-rcm2-esm100-rsr2-rcr2-esr310.exr,ReadingArea_rsl2-rcl11-esl310-rsm2-rcm2-esm100-rsr2-rcr2-esr310.npz,,,,,0,102,102,147,,right,red,1.32,453.0447731018066,453.3895900249481,2,,2,4,brightness,readingArea,realistic,75,2023-03-15_15h04.40.131,tripletExp_regina_11082022,2022.2.4,120.2181770237696,
10,0,14,2,0.694444444444444,1.0,2,0.027777777777778,0.298245614035088,2,0.25,3.10526315789474,ReadingArea_rsl2-rcl69-esl100-rsm2-rcm2-esm29-rsr2-rcr25-esr310,exr/ReadingArea_rsl2-rcl69-esl100-rsm2-rcm2-esm29-rsr2-rcr25-esr310.exr,ReadingArea_rsl2-rcl69-esl100-rsm2-rcm2-esm29-rsr2-rcr25-esr310.npz,,,,,0,103,103,95,,left,green,1.24,455.0747458934784,455.4289748668671,2,,2,4,brightness,readingArea,realistic,75,2023-03-15_15h04.40.131,tripletExp_regina_11082022,2022.2.4,120.2181770237696,
2,6,0,2,0.25,0.298245614035088,2,0.027777777777778,1.0,2,0.027777777777778,0.298245614035088,ReadingArea_rsl2-rcl25-esl29-rsm2-rcm2-esm100-rsr2-rcr2-esr29,exr/ReadingArea_rsl2-rcl25-esl29-rsm2-rcm2-esm100-rsr2-rcr2-esr29.exr,ReadingArea_rsl2-rcl25-esl29-rsm2-rcm2-esm100-rsr2-rcr2-esr29.npz,,,,,0,104,104,525,,right,red,1.63,457.1507771015167,457.4926640987396,2,,2,4,brightness,readingArea,realistic,75,2023-03-15_15h04.40.131,tripletExp_regina_11082022,2022.2.4,120.2181770237696,
7,8,12,2,0.111111111111111,1.0,2,0.25,1.0,2,0.027777777777778,3.10526315789474,ReadingArea_rsl2-rcl11-esl100-rsm2-rcm25-esm100-rsr2-rcr2-esr310,exr/ReadingArea_rsl2-rcl11-esl100-rsm2-rcm25-esm100-rsr2-rcr2-esr310.exr,ReadingArea_rsl2-rcl11-esl100-rsm2-rcm25-esm100-rsr2-rcr2-esr310.npz,,,,,0,105,105,271,,left,green,1.03,459.1977460384369,,2,,2,4,brightness,readingArea,realistic,75,2023-03-15_15h04.40.131,tripletExp_regina_11082022,2022.2.4,120.2181770237696,
0,9,11,2,0.027777777777778,0.298245614035088,2,0.444444444444444,1.0,2,1.0,1.0,ReadingArea_rsl2-rcl2-esl29-rsm2-rcm44-esm100-rsr2-rcr100-esr100,exr/ReadingArea_rsl2-rcl2-esl29-rsm2-rcm44-esm100-rsr2-rcr100-esr100.exr,ReadingArea_rsl2-rcl2-esl29-rsm2-rcm44-esm100-rsr2-rcr100-esr100.npz,,,,,0,106,106,448,,right,red,1.81,463.0298910140991,463.3871750831604,2,,2,4,brightness,readingArea,realistic,75,2023-03-15_15h04.40.131,tripletExp_regina_11082022,2022.2.4,120.2181770237696,
12,1,2,2,0.027777777777778,3.10526315789474,2,0.111111111111111,0.298245614035088,2,0.25,0.298245614035088,ReadingArea_rsl2-rcl2-esl310-rsm2-rcm11-esm29-rsr2-rcr25-esr29,exr/ReadingArea_rsl2-rcl2-esl310-rsm2-rcm11-esm29-rsr2-rcr25-esr29.exr,ReadingArea_rsl2-rcl2-esl310-rsm2-rcm11-esm29-rsr2-rcr25-esr29.npz,,,,,0,107,107,231,,right,red,1.78,465.1116940975189,465.4477229118347,2,,2,4,brightness,readingArea,realistic,75,2023-03-15_15h04.40.131,tripletExp_regina_11082022,2022.2.4,120.2181770237696,
10,13,6,2,0.694444444444444,1.0,2,0.111111111111111,3.10526315789474,2,0.027777777777778,1.0,ReadingArea_rsl2-rcl69-esl100-rsm2-rcm11-esm310-rsr2-rcr2-esr100,exr/ReadingArea_rsl2-rcl69-esl100-rsm2-rcm11-esm310-rsr2-rcr2-esr100.exr,ReadingArea_rsl2-rcl69-esl100-rsm2-rcm11-esm310-rsr2-rcr2-esr100.npz,,,,,0,108,108,351,,left,green,4.41,470.6563038825989,471.0024020671845,2,,2,4,brightness,readingArea,realistic,75,2023-03-15_15h04.40.131,tripletExp_regina_11082022,2022.2.4,120.2181770237696,
3,10,4,2,0.444444444444444,0.298245614035088,2,0.694444444444444,1.0,2,0.694444444444444,0.298245614035088,ReadingArea_rsl2-rcl44-esl29-rsm2-rcm69-esm100-rsr2-rcr69-esr29,exr/ReadingArea_rsl2-rcl44-esl29-rsm2-rcm69-esm100-rsr2-rcr69-esr29.exr,ReadingArea_rsl2-rcl44-esl29-rsm2-rcm69-esm100-rsr2-rcr69-esr29.npz,,,,,0,109,109,435,,right,red,2.69,474.4664449691773,,2,,2,4,brightness,readingArea,realistic,75,2023-03-15_15h04.40.131,tripletExp_regina_11082022,2022.2.4,120.2181770237696,
0,11,9,2,0.027777777777778,0.298245614035088,2,1.0,1.0,2,0.444444444444444,1.0,ReadingArea_rsl2-rcl2-esl29-rsm2-rcm100-esm100-rsr2-rcr44-esr100,exr/ReadingArea_rsl2-rcl2-esl29-rsm2-rcm100-esm100-rsr2-rcr44-esr100.exr,ReadingArea_rsl2-rcl2-esl29-rsm2-rcm100-esm100-rsr2-rcr44-esr100.npz,,,,,0,110,110,32,,right,red,1.31,476.5525279045105,476.8917229175568,2,,2,4,brightness,readingArea,realistic,75,2023-03-15_15h04.40.131,tripletExp_regina_11082022,2022.2.4,120.2181770237696,
4,8,7,2,0.694444444444444,0.298245614035088,2,0.25,1.0,2,0.111111111111111,1.0,ReadingArea_rsl2-rcl69-esl29-rsm2-rcm25-esm100-rsr2-rcr11-esr100,exr/ReadingArea_rsl2-rcl69-esl29-rsm2-rcm25-esm100-rsr2-rcr11-esr100.exr,ReadingArea_rsl2-rcl69-esl29-rsm2-rcm25-esm100-rsr2-rcr11-esr100.npz,,,,,0,111,111,461,,right,red,3.09,480.3598530292511,480.7251949310303,2,,2,4,brightness,readingArea,realistic,75,2023-03-15_15h04.40.131,tripletExp_regina_11082022,2022.2.4,120.2181770237696,
13,3,5,2,0.111111111111111,3.10526315789474,2,0.444444444444444,0.298245614035088,2,1.0,0.298245614035088,ReadingArea_rsl2-rcl11-esl310-rsm2-rcm44-esm29-rsr2-rcr100-esr29,exr/ReadingArea_rsl2-rcl11-esl310-rsm2-rcm44-esm29-rsr2-rcr100-esr29.exr,ReadingArea_rsl2-rcl11-esl310-rsm2-rcm44-esm29-rsr2-rcr100-esr29.npz,,,,,0,112,112,398,,left,green,4.02,485.9743731021881,486.33544993400574,2,,2,4,brightness,readingArea,realistic,75,2023-03-15_15h04.40.131,tripletExp_regina_11082022,2022.2.4,120.2181770237696,
11,7,9,2,1.0,1.0,2,0.111111111111111,1.0,2,0.444444444444444,1.0,ReadingArea_rsl2-rcl100-esl100-rsm2-rcm11-esm100-rsr2-rcr44-esr100,exr/ReadingArea_rsl2-rcl100-esl100-rsm2-rcm11-esm100-rsr2-rcr44-esr100.exr,ReadingArea_rsl2-rcl100-esl100-rsm2-rcm11-esm100-rsr2-rcr44-esr100.npz,,,,,0,113,113,521,,right,red,2.37,489.8047859668732,490.169312953949,2,,2,4,brightness,readingArea,realistic,75,2023-03-15_15h04.40.131,tripletExp_regina_11082022,2022.2.4,120.2181770237696,
5,4,12,2,1.0,0.298245614035088,2,0.694444444444444,0.298245614035088,2,0.027777777777778,3.10526315789474,ReadingArea_rsl2-rcl100-esl29-rsm2-rcm69-esm29-rsr2-rcr2-esr310,exr/ReadingArea_rsl2-rcl100-esl29-rsm2-rcm69-esm29-rsr2-rcr2-esr310.exr,ReadingArea_rsl2-rcl100-esl29-rsm2-rcm69-esm29-rsr2-rcr2-esr310.npz,,,,,0,114,114,82,,left,green,4.15,495.3839020729065,495.7633559703827,2,,2,4,brightness,readingArea,realistic,75,2023-03-15_15h04.40.131,tripletExp_regina_11082022,2022.2.4,120.2181770237696,
13,1,3,2,0.111111111111111,3.10526315789474,2,0.111111111111111,0.298245614035088,2,0.444444444444444,0.298245614035088,ReadingArea_rsl2-rcl11-esl310-rsm2-rcm11-esm29-rsr2-rcr44-esr29,exr/ReadingArea_rsl2-rcl11-esl310-rsm2-rcm11-esm29-rsr2-rcr44-esr29.exr,ReadingArea_rsl2-rcl11-esl310-rsm2-rcm11-esm29-rsr2-rcr44-esr29.npz,,,,,0,115,115,588,,right,red,3.05,499.2541868686676,,2,,2,4,brightness,readingArea,realistic,75,2023-03-15_15h04.40.131,tripletExp_regina_11082022,2022.2.4,120.2181770237696,
12,8,3,2,0.027777777777778,3.10526315789474,2,0.25,1.0,2,0.444444444444444,0.298245614035088,ReadingArea_rsl2-rcl2-esl310-rsm2-rcm25-esm100-rsr2-rcr44-esr29,exr/ReadingArea_rsl2-rcl2-esl310-rsm2-rcm25-esm100-rsr2-rcr44-esr29.exr,ReadingArea_rsl2-rcl2-esl310-rsm2-rcm25-esm100-rsr2-rcr44-esr29.npz,,,,,0,116,116,386,,right,red,4.41,504.86658906936646,505.22483801841736,2,,2,4,brightness,readingArea,realistic,75,2023-03-15_15h04.40.131,tripletExp_regina_11082022,2022.2.4,120.2181770237696,
12,3,11,2,0.027777777777778,3.10526315789474,2,0.444444444444444,0.298245614035088,2,1.0,1.0,ReadingArea_rsl2-rcl2-esl310-rsm2-rcm44-esm29-rsr2-rcr100-esr100,exr/ReadingArea_rsl2-rcl2-esl310-rsm2-rcm44-esm29-rsr2-rcr100-esr100.exr,ReadingArea_rsl2-rcl2-esl310-rsm2-rcm44-esm29-rsr2-rcr100-esr100.npz,,,,,0,117,117,83,,left,green,1.06,506.9496350288391,507.313845872879,2,,2,4,brightness,readingArea,realistic,75,2023-03-15_15h04.40.131,tripletExp_regina_11082022,2022.2.4,120.2181770237696,
13,0,14,2,0.111111111111111,3.10526315789474,2,0.027777777777778,0.298245614035088,2,0.25,3.10526315789474,ReadingArea_rsl2-rcl11-esl310-rsm2-rcm2-esm29-rsr2-rcr25-esr310,exr/ReadingArea_rsl2-rcl11-esl310-rsm2-rcm2-esm29-rsr2-rcr25-esr310.exr,ReadingArea_rsl2-rcl11-esl310-rsm2-rcm2-esm29-rsr2-rcr25-esr310.npz,,,,,0,118,118,278,,left,green,1.31,509.0250070095062,509.3630340099335,2,,2,4,brightness,readingArea,realistic,75,2023-03-15_15h04.40.131,tripletExp_regina_11082022,2022.2.4,120.2181770237696,
11,2,8,2,1.0,1.0,2,0.25,0.298245614035088,2,0.25,1.0,ReadingArea_rsl2-rcl100-esl100-rsm2-rcm25-esm29-rsr2-rcr25-esr100,exr/ReadingArea_rsl2-rcl100-esl100-rsm2-rcm25-esm29-rsr2-rcr25-esr100.exr,ReadingArea_rsl2-rcl100-esl100-rsm2-rcm25-esm29-rsr2-rcr25-esr100.npz,,,,,0,119,119,214,,right,red,1.02,511.0532619953156,511.40003299713135,2,,2,4,brightness,readingArea,realistic,75,2023-03-15_15h04.40.131,tripletExp_regina_11082022,2022.2.4,120.2181770237696,
4,5,1,2,0.694444444444444,0.298245614035088,2,1.0,0.298245614035088,2,0.111111111111111,0.298245614035088,ReadingArea_rsl2-rcl69-esl29-rsm2-rcm100-esm29-rsr2-rcr11-esr29,exr/ReadingArea_rsl2-rcl69-esl29-rsm2-rcm100-esm29-rsr2-rcr11-esr29.exr,ReadingArea_rsl2-rcl69-esl29-rsm2-rcm100-esm29-rsr2-rcr11-esr29.npz,,,,,0,120,120,240,,left,green,1.02,513.1045699119568,513.4738409519196,2,,2,4,brightness,readingArea,realistic,75,2023-03-15_15h04.40.131,tripletExp_regina_11082022,2022.2.4,120.2181770237696,
2,11,5,2,0.25,0.298245614035088,2,1.0,1.0,2,1.0,0.298245614035088,ReadingArea_rsl2-rcl25-esl29-rsm2-rcm100-esm100-rsr2-rcr100-esr29,exr/ReadingArea_rsl2-rcl25-esl29-rsm2-rcm100-esm100-rsr2-rcr100-esr29.exr,ReadingArea_rsl2-rcl25-esl29-rsm2-rcm100-esm100-rsr2-rcr100-esr29.npz,,,,,0,121,121,491,,right,red,1.0,515.1839320659637,515.5630779266357,2,,2,4,brightness,readingArea,realistic,75,2023-03-15_15h04.40.131,tripletExp_regina_11082022,2022.2.4,120.2181770237696,
10,3,0,2,0.694444444444444,1.0,2,0.444444444444444,0.298245614035088,2,0.027777777777778,0.298245614035088,ReadingArea_rsl2-rcl69-esl100-rsm2-rcm44-esm29-rsr2-rcr2-esr29,exr/ReadingArea_rsl2-rcl69-esl100-rsm2-rcm44-esm29-rsr2-rcr2-esr29.exr,ReadingArea_rsl2-rcl69-esl100-rsm2-rcm44-esm29-rsr2-rcr2-esr29.npz,,,,,0,122,122,203,,left,green,1.3,517.2611010074615,517.6098699569702,2,,2,4,brightness,readingArea,realistic,75,2023-03-15_15h04.40.131,tripletExp_regina_11082022,2022.2.4,120.2181770237696,
4,10,11,2,0.694444444444444,0.298245614035088,2,0.694444444444444,1.0,2,1.0,1.0,ReadingArea_rsl2-rcl69-esl29-rsm2-rcm69-esm100-rsr2-rcr100-esr100,exr/ReadingArea_rsl2-rcl69-esl29-rsm2-rcm69-esm100-rsr2-rcr100-esr100.exr,ReadingArea_rsl2-rcl69-esl29-rsm2-rcm69-esm100-rsr2-rcr100-esr100.npz,,,,,0,123,123,180,,right,red,1.09,519.3198380470276,519.7051160335541,2,,2,4,brightness,readingArea,realistic,75,2023-03-15_15h04.40.131,tripletExp_regina_11082022,2022.2.4,120.2181770237696,
14,13,3,2,0.25,3.10526315789474,2,0.111111111111111,3.10526315789474,2,0.444444444444444,0.298245614035088,ReadingArea_rsl2-rcl25-esl310-rsm2-rcm11-esm310-rsr2-rcr44-esr29,exr/ReadingArea_rsl2-rcl25-esl310-rsm2-rcm11-esm310-rsr2-rcr44-esr29.exr,ReadingArea_rsl2-rcl25-esl310-rsm2-rcm11-esm310-rsr2-rcr44-esr29.npz,,,,,0,124,124,256,,right,red,1.31,521.39524102211,521.7545590400696,2,,2,4,brightness,readingArea,realistic,75,2023-03-15_15h04.40.131,tripletExp_regina_11082022,2022.2.4,120.2181770237696,
5,14,8,2,1.0,0.298245614035088,2,0.25,3.10526315789474,2,0.25,1.0,ReadingArea_rsl2-rcl100-esl29-rsm2-rcm25-esm310-rsr2-rcr25-esr100,exr/ReadingArea_rsl2-rcl100-esl29-rsm2-rcm25-esm310-rsr2-rcr25-esr100.exr,ReadingArea_rsl2-rcl100-esl29-rsm2-rcm25-esm310-rsr2-rcr25-esr100.npz,,,,,0,125,125,14,,left,green,2.97,525.2238340377808,525.5885229110718,2,,2,4,brightness,readingArea,realistic,75,2023-03-15_15h04.40.131,tripletExp_regina_11082022,2022.2.4,120.2181770237696,
14,8,3,2,0.25,3.10526315789474,2,0.25,1.0,2,0.444444444444444,0.298245614035088,ReadingArea_rsl2-rcl25-esl310-rsm2-rcm25-esm100-rsr2-rcr44-esr29,exr/ReadingArea_rsl2-rcl25-esl310-rsm2-rcm25-esm100-rsr2-rcr44-esr29.exr,ReadingArea_rsl2-rcl25-esl310-rsm2-rcm25-esm100-rsr2-rcr44-esr29.npz,,,,,0,126,126,100,,right,red,1.24,527.2938170433044,527.6632759571075,2,,2,4,brightness,readingArea,realistic,75,2023-03-15_15h04.40.131,tripletExp_regina_11082022,2022.2.4,120.2181770237696,
12,8,10,2,0.027777777777778,3.10526315789474,2,0.25,1.0,2,0.694444444444444,1.0,ReadingArea_rsl2-rcl2-esl310-rsm2-rcm25-esm100-rsr2-rcr69-esr100,exr/ReadingArea_rsl2-rcl2-esl310-rsm2-rcm25-esm100-rsr2-rcr69-esr100.exr,ReadingArea_rsl2-rcl2-esl310-rsm2-rcm25-esm100-rsr2-rcr69-esr100.npz,,,,,0,127,127,216,,left,green,2.28,531.1383728981018,531.500247001648,2,,2,4,brightness,readingArea,realistic,75,2023-03-15_15h04.40.131,tripletExp_regina_11082022,2022.2.4,120.2181770237696,
13,10,9,2,0.111111111111111,3.10526315789474,2,0.694444444444444,1.0,2,0.444444444444444,1.0,ReadingArea_rsl2-rcl11-esl310-rsm2-rcm69-esm100-rsr2-rcr44-esr100,exr/ReadingArea_rsl2-rcl11-esl310-rsm2-rcm69-esm100-rsr2-rcr44-esr100.exr,ReadingArea_rsl2-rcl11-esl310-rsm2-rcm69-esm100-rsr2-rcr44-esr100.npz,,,,,0,128,128,330,,left,green,2.94,534.9754979610443,535.3390939235687,2,,2,4,brightness,readingArea,realistic,75,2023-03-15_15h04.40.131,tripletExp_regina_11082022,2022.2.4,120.2181770237696,
11,5,1,2,1.0,1.0,2,1.0,0.298245614035088,2,0.111111111111111,0.298245614035088,ReadingArea_rsl2-rcl100-esl100-rsm2-rcm100-esm29-rsr2-rcr11-esr29,exr/ReadingArea_rsl2-rcl100-esl100-rsm2-rcm100-esm29-rsr2-rcr11-esr29.exr,ReadingArea_rsl2-rcl100-esl100-rsm2-rcm100-esm29-rsr2-rcr11-esr29.npz,,,,,0,129,129,48,,left,green,4.66,540.5744409561157,540.9332249164581,2,,2,4,brightness,readingArea,realistic,75,2023-03-15_15h04.40.131,tripletExp_regina_11082022,2022.2.4,120.2181770237696,
2,4,13,2,0.25,0.298245614035088,2,0.694444444444444,0.298245614035088,2,0.111111111111111,3.10526315789474,ReadingArea_rsl2-rcl25-esl29-rsm2-rcm69-esm29-rsr2-rcr11-esr310,exr/ReadingArea_rsl2-rcl25-esl29-rsm2-rcm69-esm29-rsr2-rcr11-esr310.exr,ReadingArea_rsl2-rcl25-esl29-rsm2-rcm69-esm29-rsr2-rcr11-esr310.npz,,,,,0,130,130,325,,right,red,1.96,544.3988320827484,544.767914056778,2,,2,4,brightness,readingArea,realistic,75,2023-03-15_15h04.40.131,tripletExp_regina_11082022,2022.2.4,120.2181770237696,
13,0,10,2,0.111111111111111,3.10526315789474,2,0.027777777777778,0.298245614035088,2,0.694444444444444,1.0,ReadingArea_rsl2-rcl11-esl310-rsm2-rcm2-esm29-rsr2-rcr69-esr100,exr/ReadingArea_rsl2-rcl11-esl310-rsm2-rcm2-esm29-rsr2-rcr69-esr100.exr,ReadingArea_rsl2-rcl11-esl310-rsm2-rcm2-esm29-rsr2-rcr69-esr100.npz,,,,,0,131,131,505,,left,green,3.28,548.226096868515,548.5693900585175,2,,2,4,brightness,readingArea,realistic,75,2023-03-15_15h04.40.131,tripletExp_regina_11082022,2022.2.4,120.2181770237696,
2,14,8,2,0.25,0.298245614035088,2,0.25,3.10526315789474,2,0.25,1.0,ReadingArea_rsl2-rcl25-esl29-rsm2-rcm25-esm310-rsr2-rcr25-esr100,exr/ReadingArea_rsl2-rcl25-esl29-rsm2-rcm25-esm310-rsr2-rcr25-esr100.exr,ReadingArea_rsl2-rcl25-esl29-rsm2-rcm25-esm310-rsr2-rcr25-esr100.npz,,,,,0,132,132,255,,right,red,1.31,550.2763788700104,550.6380069255829,2,,2,4,brightness,readingArea,realistic,75,2023-03-15_15h04.40.131,tripletExp_regina_11082022,2022.2.4,120.2181770237696,
7,14,10,2,0.111111111111111,1.0,2,0.25,3.10526315789474,2,0.694444444444444,1.0,ReadingArea_rsl2-rcl11-esl100-rsm2-rcm25-esm310-rsr2-rcr69-esr100,exr/ReadingArea_rsl2-rcl11-esl100-rsm2-rcm25-esm310-rsr2-rcr69-esr100.exr,ReadingArea_rsl2-rcl11-esl100-rsm2-rcm25-esm310-rsr2-rcr69-esr100.npz,,,,,0,133,133,472,,right,red,1.11,552.3497960567474,552.7145919799805,2,,2,4,brightness,readingArea,realistic,75,2023-03-15_15h04.40.131,tripletExp_regina_11082022,2022.2.4,120.2181770237696,
9,11,2,2,0.444444444444444,1.0,2,1.0,1.0,2,0.25,0.298245614035088,ReadingArea_rsl2-rcl44-esl100-rsm2-rcm100-esm100-rsr2-rcr25-esr29,exr/ReadingArea_rsl2-rcl44-esl100-rsm2-rcm100-esm100-rsr2-rcr25-esr29.exr,ReadingArea_rsl2-rcl44-esl100-rsm2-rcm100-esm100-rsr2-rcr25-esr29.npz,,,,,0,134,134,329,,left,green,1.22,554.4183669090271,554.7789099216461,2,,2,4,brightness,readingArea,realistic,75,2023-03-15_15h04.40.131,tripletExp_regina_11082022,2022.2.4,120.2181770237696,
6,3,1,2,0.027777777777778,1.0,2,0.444444444444444,0.298245614035088,2,0.111111111111111,0.298245614035088,ReadingArea_rsl2-rcl2-esl100-rsm2-rcm44-esm29-rsr2-rcr11-esr29,exr/ReadingArea_rsl2-rcl2-esl100-rsm2-rcm44-esm29-rsr2-rcr11-esr29.exr,ReadingArea_rsl2-rcl2-esl100-rsm2-rcm44-esm29-rsr2-rcr11-esr29.npz,,,,,0,135,135,430,,right,red,2.67,558.2563309669495,558.6218109130859,2,,2,4,brightness,readingArea,realistic,75,2023-03-15_15h04.40.131,tripletExp_regina_11082022,2022.2.4,120.2181770237696,
1,2,12,2,0.111111111111111,0.298245614035088,2,0.25,0.298245614035088,2,0.027777777777778,3.10526315789474,ReadingArea_rsl2-rcl11-esl29-rsm2-rcm25-esm29-rsr2-rcr2-esr310,exr/ReadingArea_rsl2-rcl11-esl29-rsm2-rcm25-esm29-rsr2-rcr2-esr310.exr,ReadingArea_rsl2-rcl11-esl29-rsm2-rcm25-esm29-rsr2-rcr2-esr310.npz,,,,,0,136,136,229,,right,red,2.99,562.0947349071503,562.4617779254913,2,,2,4,brightness,readingArea,realistic,75,2023-03-15_15h04.40.131,tripletExp_regina_11082022,2022.2.4,120.2181770237696,
2,6,13,2,0.25,0.298245614035088,2,0.027777777777778,1.0,2,0.111111111111111,3.10526315789474,ReadingArea_rsl2-rcl25-esl29-rsm2-rcm2-esm100-rsr2-rcr11-esr310,exr/ReadingArea_rsl2-rcl25-esl29-rsm2-rcm2-esm100-rsr2-rcr11-esr310.exr,ReadingArea_rsl2-rcl25-esl29-rsm2-rcm2-esm100-rsr2-rcr11-esr310.npz,,,,,0,137,137,388,,left,green,4.45,567.7254951000214,568.0736930370331,2,,2,4,brightness,readingArea,realistic,75,2023-03-15_15h04.40.131,tripletExp_regina_11082022,2022.2.4,120.2181770237696,
4,2,13,2,0.694444444444444,0.298245614035088,2,0.25,0.298245614035088,2,0.111111111111111,3.10526315789474,ReadingArea_rsl2-rcl69-esl29-rsm2-rcm25-esm29-rsr2-rcr11-esr310,exr/ReadingArea_rsl2-rcl69-esl29-rsm2-rcm25-esm29-rsr2-rcr11-esr310.exr,ReadingArea_rsl2-rcl69-esl29-rsm2-rcm25-esm29-rsr2-rcr11-esr310.npz,,,,,0,138,138,304,,left,green,3.21,571.5440449714661,571.904706954956,2,,2,4,brightness,readingArea,realistic,75,2023-03-15_15h04.40.131,tripletExp_regina_11082022,2022.2.4,120.2181770237696,
11,12,1,2,1.0,1.0,2,0.027777777777778,3.10526315789474,2,0.111111111111111,0.298245614035088,ReadingArea_rsl2-rcl100-esl100-rsm2-rcm2-esm310-rsr2-rcr11-esr29,exr/ReadingArea_rsl2-rcl100-esl100-rsm2-rcm2-esm310-rsr2-rcr11-esr29.exr,ReadingArea_rsl2-rcl100-esl100-rsm2-rcm2-esm310-rsr2-rcr11-esr29.npz,,,,,0,139,139,140,,right,red,1.12,573.6147689819336,573.9735360145569,2,,2,4,brightness,readingArea,realistic,75,2023-03-15_15h04.40.131,tripletExp_regina_11082022,2022.2.4,120.2181770237696,
6,9,5,2,0.027777777777778,1.0,2,0.444444444444444,1.0,2,1.0,0.298245614035088,ReadingArea_rsl2-rcl2-esl100-rsm2-rcm44-esm100-rsr2-rcr100-esr29,exr/ReadingArea_rsl2-rcl2-esl100-rsm2-rcm44-esm100-rsr2-rcr100-esr29.exr,ReadingArea_rsl2-rcl2-esl100-rsm2-rcm44-esm100-rsr2-rcr100-esr29.npz,,,,,0,140,140,29,,right,red,1.21,575.6681320667267,576.0516650676727,2,,2,4,brightness,readingArea,realistic,75,2023-03-15_15h04.40.131,tripletExp_regina_11082022,2022.2.4,120.2181770237696,
3,12,6,2,0.444444444444444,0.298245614035088,2,0.027777777777778,3.10526315789474,2,0.027777777777778,1.0,ReadingArea_rsl2-rcl44-esl29-rsm2-rcm2-esm310-rsr2-rcr2-esr100,exr/ReadingArea_rsl2-rcl44-esl29-rsm2-rcm2-esm310-rsr2-rcr2-esr100.exr,ReadingArea_rsl2-rcl44-esl29-rsm2-rcm2-esm310-rsr2-rcr2-esr100.npz,,,,,0,141,141,353,,right,red,3.36,579.5251500606537,,2,,2,4,brightness,readingArea,realistic,75,2023-03-15_15h04.40.131,tripletExp_regina_11082022,2022.2.4,120.2181770237696,
11,13,8,2,1.0,1.0,2,0.111111111111111,3.10526315789474,2,0.25,1.0,ReadingArea_rsl2-rcl100-esl100-rsm2-rcm11-esm310-rsr2-rcr25-esr100,exr/ReadingArea_rsl2-rcl100-esl100-rsm2-rcm11-esm310-rsr2-rcr25-esr100.exr,ReadingArea_rsl2-rcl100-esl100-rsm2-rcm11-esm310-rsr2-rcr25-esr100.npz,,,,,0,142,142,198,,right,red,1.18,581.6044940948486,581.9454350471497,2,,2,4,brightness,readingArea,realistic,75,2023-03-15_15h04.40.131,tripletExp_regina_11082022,2022.2.4,120.2181770237696,
13,0,12,2,0.111111111111111,3.10526315789474,2,0.027777777777778,0.298245614035088,2,0.027777777777778,3.10526315789474,ReadingArea_rsl2-rcl11-esl310-rsm2-rcm2-esm29-rsr2-rcr2-esr310,exr/ReadingArea_rsl2-rcl11-esl310-rsm2-rcm2-esm29-rsr2-rcr2-esr310.exr,ReadingArea_rsl2-rcl11-esl310-rsm2-rcm2-esm29-rsr2-rcr2-esr310.npz,,,,,0,143,143,56,,right,red,1.12,583.6428959369659,584.0135009288788,2,,2,4,brightness,readingArea,realistic,75,2023-03-15_15h04.40.131,tripletExp_regina_11082022,2022.2.4,120.2181770237696,
2,14,1,2,0.25,0.298245614035088,2,0.25,3.10526315789474,2,0.111111111111111,0.298245614035088,ReadingArea_rsl2-rcl25-esl29-rsm2-rcm25-esm310-rsr2-rcr11-esr29,exr/ReadingArea_rsl2-rcl25-esl29-rsm2-rcm25-esm310-rsr2-rcr11-esr29.exr,ReadingArea_rsl2-rcl25-esl29-rsm2-rcm25-esm310-rsr2-rcr11-esr29.npz,,,,,0,144,144,579,,left,green,1.35,585.7368779182434,586.1007509231567,2,,2,4,brightness,readingArea,realistic,75,2023-03-15_15h04.40.131,tripletExp_regina_11082022,2022.2.4,120.2181770237696,
13,4,0,2,0.111111111111111,3.10526315789474,2,0.694444444444444,0.298245614035088,2,0.027777777777778,0.298245614035088,ReadingArea_rsl2-rcl11-esl310-rsm2-rcm69-esm29-rsr2-rcr2-esr29,exr/ReadingArea_rsl2-rcl11-esl310-rsm2-rcm69-esm29-rsr2-rcr2-esr29.exr,ReadingArea_rsl2-rcl11-esl310-rsm2-rcm69-esm29-rsr2-rcr2-esr29.npz,,,,,0,145,145,269,,left,green,1.37,587.8134059906006,588.1796400547028,2,,2,4,brightness,readingArea,realistic,75,2023-03-15_15h04.40.131,tripletExp_regina_11082022,2022.2.4,120.2181770237696,
2,5,14,2,0.25,0.298245614035088,2,1.0,0.298245614035088,2,0.25,3.10526315789474,ReadingArea_rsl2-rcl25-esl29-rsm2-rcm100-esm29-rsr2-rcr25-esr310,exr/ReadingArea_rsl2-rcl25-esl29-rsm2-rcm100-esm29-rsr2-rcr25-esr310.exr,ReadingArea_rsl2-rcl25-esl29-rsm2-rcm100-esm29-rsr2-rcr25-esr310.npz,,,,,0,146,146,390,,right,red,1.49,589.892462015152,590.2483019828796,2,,2,4,brightness,readingArea,realistic,75,2023-03-15_15h04.40.131,tripletExp_regina_11082022,2022.2.4,120.2181770237696,
12,7,1,2,0.027777777777778,3.10526315789474,2,0.111111111111111,1.0,2,0.111111111111111,0.298245614035088,ReadingArea_rsl2-rcl2-esl310-rsm2-rcm11-esm100-rsr2-rcr11-esr29,exr/ReadingArea_rsl2-rcl2-esl310-rsm2-rcm11-esm100-rsr2-rcr11-esr29.exr,ReadingArea_rsl2-rcl2-esl310-rsm2-rcm11-esm100-rsr2-rcr11-esr29.npz,,,,,0,147,147,264,,left,green,3.11,593.7269508838654,,2,,2,4,brightness,readingArea,realistic,75,2023-03-15_15h04.40.131,tripletExp_regina_11082022,2022.2.4,120.2181770237696,
12,5,14,2,0.027777777777778,3.10526315789474,2,1.0,0.298245614035088,2,0.25,3.10526315789474,ReadingArea_rsl2-rcl2-esl310-rsm2-rcm100-esm29-rsr2-rcr25-esr310,exr/ReadingArea_rsl2-rcl2-esl310-rsm2-rcm100-esm29-rsr2-rcr25-esr310.exr,ReadingArea_rsl2-rcl2-esl310-rsm2-rcm100-esm29-rsr2-rcr25-esr310.npz,,,,,0,148,148,193,,left,green,1.49,595.7861108779907,,2,,2,4,brightness,readingArea,realistic,75,2023-03-15_15h04.40.131,tripletExp_regina_11082022,2022.2.4,120.2181770237696,
4,5,9,2,0.694444444444444,0.298245614035088,2,1.0,0.298245614035088,2,0.444444444444444,1.0,ReadingArea_rsl2-rcl69-esl29-rsm2-rcm100-esm29-rsr2-rcr44-esr100,exr/ReadingArea_rsl2-rcl69-esl29-rsm2-rcm100-esm29-rsr2-rcr44-esr100.exr,ReadingArea_rsl2-rcl69-esl29-rsm2-rcm100-esm29-rsr2-rcr44-esr100.npz,,,,,0,149,149,211,,right,red,3.35,599.7135288715363,599.9184770584106,2,,2,4,brightness,readingArea,realistic,75,2023-03-15_15h04.40.131,tripletExp_regina_11082022,2022.2.4,120.2181770237696,
11,1,4,2,1.0,1.0,2,0.111111111111111,0.298245614035088,2,0.694444444444444,0.298245614035088,ReadingArea_rsl2-rcl100-esl100-rsm2-rcm11-esm29-rsr2-rcr69-esr29,exr/ReadingArea_rsl2-rcl100-esl100-rsm2-rcm11-esm29-rsr2-rcr69-esr29.exr,ReadingArea_rsl2-rcl100-esl100-rsm2-rcm11-esm29-rsr2-rcr69-esr29.npz,,,,,0,150,150,110,,right,red,2.53,697.5435590744019,,3,,2,4,brightness,readingArea,realistic,75,2023-03-15_15h04.40.131,tripletExp_regina_11082022,2022.2.4,120.2181770237696,
0,14,11,2,0.027777777777778,0.298245614035088,2,0.25,3.10526315789474,2,1.0,1.0,ReadingArea_rsl2-rcl2-esl29-rsm2-rcm25-esm310-rsr2-rcr100-esr100,exr/ReadingArea_rsl2-rcl2-esl29-rsm2-rcm25-esm310-rsr2-rcr100-esr100.exr,ReadingArea_rsl2-rcl2-esl29-rsm2-rcm25-esm310-rsr2-rcr100-esr100.npz,,,,,0,151,151,557,,right,red,2.99,701.4010689258575,701.7481610774994,3,,2,4,brightness,readingArea,realistic,75,2023-03-15_15h04.40.131,tripletExp_regina_11082022,2022.2.4,120.2181770237696,
10,4,13,2,0.694444444444444,1.0,2,0.694444444444444,0.298245614035088,2,0.111111111111111,3.10526315789474,ReadingArea_rsl2-rcl69-esl100-rsm2-rcm69-esm29-rsr2-rcr11-esr310,exr/ReadingArea_rsl2-rcl69-esl100-rsm2-rcm69-esm29-rsr2-rcr11-esr310.exr,ReadingArea_rsl2-rcl69-esl100-rsm2-rcm69-esm29-rsr2-rcr11-esr310.npz,,,,,0,152,152,24,,right,red,1.28,703.4706709384918,703.8422470092773,3,,2,4,brightness,readingArea,realistic,75,2023-03-15_15h04.40.131,tripletExp_regina_11082022,2022.2.4,120.2181770237696,
2,11,7,2,0.25,0.298245614035088,2,1.0,1.0,2,0.111111111111111,1.0,ReadingArea_rsl2-rcl25-esl29-rsm2-rcm100-esm100-rsr2-rcr11-esr100,exr/ReadingArea_rsl2-rcl25-esl29-rsm2-rcm100-esm100-rsr2-rcr11-esr100.exr,ReadingArea_rsl2-rcl25-esl29-rsm2-rcm100-esm100-rsr2-rcr11-esr100.npz,,,,,0,153,153,576,,right,red,1.42,705.5616629123688,,3,,2,4,brightness,readingArea,realistic,75,2023-03-15_15h04.40.131,tripletExp_regina_11082022,2022.2.4,120.2181770237696,
0,8,3,2,0.027777777777778,0.298245614035088,2,0.25,1.0,2,0.444444444444444,0.298245614035088,ReadingArea_rsl2-rcl2-esl29-rsm2-rcm25-esm100-rsr2-rcr44-esr29,exr/ReadingArea_rsl2-rcl2-esl29-rsm2-rcm25-esm100-rsr2-rcr44-esr29.exr,ReadingArea_rsl2-rcl2-esl29-rsm2-rcm25-esm100-rsr2-rcr44-esr29.npz,,,,,0,154,154,301,,right,red,1.18,707.6548120975494,708.0247540473938,3,,2,4,brightness,readingArea,realistic,75,2023-03-15_15h04.40.131,tripletExp_regina_11082022,2022.2.4,120.2181770237696,
4,7,5,2,0.694444444444444,0.298245614035088,2,0.111111111111111,1.0,2,1.0,0.298245614035088,ReadingArea_rsl2-rcl69-esl29-rsm2-rcm11-esm100-rsr2-rcr100-esr29,exr/ReadingArea_rsl2-rcl69-esl29-rsm2-rcm11-esm100-rsr2-rcr100-esr29.exr,ReadingArea_rsl2-rcl69-esl29-rsm2-rcm11-esm100-rsr2-rcr100-esr29.npz,,,,,0,155,155,195,,left,green,1.97,711.5045700073242,711.8764569759369,3,,2,4,brightness,readingArea,realistic,75,2023-03-15_15h04.40.131,tripletExp_regina_11082022,2022.2.4,120.2181770237696,
13,12,5,2,0.111111111111111,3.10526315789474,2,0.027777777777778,3.10526315789474,2,1.0,0.298245614035088,ReadingArea_rsl2-rcl11-esl310-rsm2-rcm2-esm310-rsr2-rcr100-esr29,exr/ReadingArea_rsl2-rcl11-esl310-rsm2-rcm2-esm310-rsr2-rcr100-esr29.exr,ReadingArea_rsl2-rcl11-esl310-rsm2-rcm2-esm310-rsr2-rcr100-esr29.npz,,,,,0,156,156,294,,,green,1.97,717.1531178951263,717.5136981010437,3,716.8084912776947,2,4,brightness,readingArea,realistic,75,2023-03-15_15h04.40.131,tripletExp_regina_11082022,2022.2.4,120.2181770237696,
1,9,7,2,0.111111111111111,0.298245614035088,2,0.444444444444444,1.0,2,0.111111111111111,1.0,ReadingArea_rsl2-rcl11-esl29-rsm2-rcm44-esm100-rsr2-rcr11-esr100,exr/ReadingArea_rsl2-rcl11-esl29-rsm2-rcm44-esm100-rsr2-rcr11-esr100.exr,ReadingArea_rsl2-rcl11-esl29-rsm2-rcm44-esm100-rsr2-rcr11-esr100.npz,,,,,0,157,157,397,,right,red,1.4,719.2159740924835,719.5572528839111,3,,2,4,brightness,readingArea,realistic,75,2023-03-15_15h04.40.131,tripletExp_regina_11082022,2022.2.4,120.2181770237696,
14,0,3,2,0.25,3.10526315789474,2,0.027777777777778,0.298245614035088,2,0.444444444444444,0.298245614035088,ReadingArea_rsl2-rcl25-esl310-rsm2-rcm2-esm29-rsr2-rcr44-esr29,exr/ReadingArea_rsl2-rcl25-esl310-rsm2-rcm2-esm29-rsr2-rcr44-esr29.exr,ReadingArea_rsl2-rcl25-esl310-rsm2-rcm2-esm29-rsr2-rcr44-esr29.npz,,,,,0,158,158,75,,right,red,1.29,721.2675280570984,721.6118640899658,3,,2,4,brightness,readingArea,realistic,75,2023-03-15_15h04.40.131,tripletExp_regina_11082022,2022.2.4,120.2181770237696,
2,3,4,2,0.25,0.298245614035088,2,0.444444444444444,0.298245614035088,2,0.694444444444444,0.298245614035088,ReadingArea_rsl2-rcl25-esl29-rsm2-rcm44-esm29-rsr2-rcr69-esr29,exr/ReadingArea_rsl2-rcl25-esl29-rsm2-rcm44-esm29-rsr2-rcr69-esr29.exr,ReadingArea_rsl2-rcl25-esl29-rsm2-rcm44-esm29-rsr2-rcr69-esr29.npz,,,,,0,159,159,61,,right,red,1.42,723.3062829971313,,3,,2,4,brightness,readingArea,realistic,75,2023-03-15_15h04.40.131,tripletExp_regina_11082022,2022.2.4,120.2181770237696,
11,8,2,2,1.0,1.0,2,0.25,1.0,2,0.25,0.298245614035088,ReadingArea_rsl2-rcl100-esl100-rsm2-rcm25-esm100-rsr2-rcr25-esr29,exr/ReadingArea_rsl2-rcl100-esl100-rsm2-rcm25-esm100-rsr2-rcr25-esr29.exr,ReadingArea_rsl2-rcl100-esl100-rsm2-rcm25-esm100-rsr2-rcr25-esr29.npz,,,,,0,160,160,406,,right,red,2.4,727.1899089813232,,3,,2,4,brightness,readingArea,realistic,75,2023-03-15_15h04.40.131,tripletExp_regina_11082022,2022.2.4,120.2181770237696,
7,12,3,2,0.111111111111111,1.0,2,0.027777777777778,3.10526315789474,2,0.444444444444444,0.298245614035088,ReadingArea_rsl2-rcl11-esl100-rsm2-rcm2-esm310-rsr2-rcr44-esr29,exr/ReadingArea_rsl2-rcl11-esl100-rsm2-rcm2-esm310-rsr2-rcr44-esr29.exr,ReadingArea_rsl2-rcl11-esl100-rsm2-rcm2-esm310-rsr2-rcr44-esr29.npz,,,,,0,161,161,584,,left,green,1.68,729.258367061615,729.614343881607,3,,2,4,brightness,readingArea,realistic,75,2023-03-15_15h04.40.131,tripletExp_regina_11082022,2022.2.4,120.2181770237696,
2,3,13,2,0.25,0.298245614035088,2,0.444444444444444,0.298245614035088,2,0.111111111111111,3.10526315789474,ReadingArea_rsl2-rcl25-esl29-rsm2-rcm44-esm29-rsr2-rcr11-esr310,exr/ReadingArea_rsl2-rcl25-esl29-rsm2-rcm44-esm29-rsr2-rcr11-esr310.exr,ReadingArea_rsl2-rcl25-esl29-rsm2-rcm44-esm29-rsr2-rcr11-esr310.npz,,,,,0,162,162,498,,left,green,0.87,731.3383910655975,731.6820819377899,3,,2,4,brightness,readingArea,realistic,75,2023-03-15_15h04.40.131,tripletExp_regina_11082022,2022.2.4,120.2181770237696,
0,14,6,2,0.027777777777778,0.298245614035088,2,0.25,3.10526315789474,2,0.027777777777778,1.0,ReadingArea_rsl2-rcl2-esl29-rsm2-rcm25-esm310-rsr2-rcr2-esr100,exr/ReadingArea_rsl2-rcl2-esl29-rsm2-rcm25-esm310-rsr2-rcr2-esr100.exr,ReadingArea_rsl2-rcl2-esl29-rsm2-rcm25-esm310-rsr2-rcr2-esr100.npz,,,,,0,163,163,499,,right,red,1.46,733.3876690864563,733.7524790763855,3,,2,4,brightness,readingArea,realistic,75,2023-03-15_15h04.40.131,tripletExp_regina_11082022,2022.2.4,120.2181770237696,
8,4,1,2,0.25,1.0,2,0.694444444444444,0.298245614035088,2,0.111111111111111,0.298245614035088,ReadingArea_rsl2-rcl25-esl100-rsm2-rcm69-esm29-rsr2-rcr11-esr29,exr/ReadingArea_rsl2-rcl25-esl100-rsm2-rcm69-esm29-rsr2-rcr11-esr29.exr,ReadingArea_rsl2-rcl25-esl100-rsm2-rcm69-esm29-rsr2-rcr11-esr29.npz,,,,,0,164,164,286,,left,green,3.01,737.2330310344696,,3,,2,4,brightness,readingArea,realistic,75,2023-03-15_15h04.40.131,tripletExp_regina_11082022,2022.2.4,120.2181770237696,
9,4,14,2,0.444444444444444,1.0,2,0.694444444444444,0.298245614035088,2,0.25,3.10526315789474,ReadingArea_rsl2-rcl44-esl100-rsm2-rcm69-esm29-rsr2-rcr25-esr310,exr/ReadingArea_rsl2-rcl44-esl100-rsm2-rcm69-esm29-rsr2-rcr25-esr310.exr,ReadingArea_rsl2-rcl44-esl100-rsm2-rcm69-esm29-rsr2-rcr25-esr310.npz,,,,,0,165,165,104,,left,green,1.2,739.2753250598907,739.6360070705414,3,,2,4,brightness,readingArea,realistic,75,2023-03-15_15h04.40.131,tripletExp_regina_11082022,2022.2.4,120.2181770237696,
9,6,13,2,0.444444444444444,1.0,2,0.027777777777778,1.0,2,0.111111111111111,3.10526315789474,ReadingArea_rsl2-rcl44-esl100-rsm2-rcm2-esm100-rsr2-rcr11-esr310,exr/ReadingArea_rsl2-rcl44-esl100-rsm2-rcm2-esm100-rsr2-rcr11-esr310.exr,ReadingArea_rsl2-rcl44-esl100-rsm2-rcm2-esm100-rsr2-rcr11-esr310.npz,,,,,0,166,166,285,,left,green,4.42,744.8758618831635,,3,,2,4,brightness,readingArea,realistic,75,2023-03-15_15h04.40.131,tripletExp_regina_11082022,2022.2.4,120.2181770237696,
12,3,5,2,0.027777777777778,3.10526315789474,2,0.444444444444444,0.298245614035088,2,1.0,0.298245614035088,ReadingArea_rsl2-rcl2-esl310-rsm2-rcm44-esm29-rsr2-rcr100-esr29,exr/ReadingArea_rsl2-rcl2-esl310-rsm2-rcm44-esm29-rsr2-rcr100-esr29.exr,ReadingArea_rsl2-rcl2-esl310-rsm2-rcm44-esm29-rsr2-rcr100-esr29.npz,,,,,0,167,167,188,,right,red,1.15,746.9294800758362,747.2878758907318,3,,2,4,brightness,readingArea,realistic,75,2023-03-15_15h04.40.131,tripletExp_regina_11082022,2022.2.4,120.2181770237696,
10,14,13,2,0.694444444444444,1.0,2,0.25,3.10526315789474,2,0.111111111111111,3.10526315789474,ReadingArea_rsl2-rcl69-esl100-rsm2-rcm25-esm310-rsr2-rcr11-esr310,exr/ReadingArea_rsl2-rcl69-esl100-rsm2-rcm25-esm310-rsr2-rcr11-esr310.exr,ReadingArea_rsl2-rcl69-esl100-rsm2-rcm25-esm310-rsr2-rcr11-esr310.npz,,,,,0,168,168,168,,left,green,2.8,750.7611510753632,751.2267549037933,3,,2,4,brightness,readingArea,realistic,75,2023-03-15_15h04.40.131,tripletExp_regina_11082022,2022.2.4,120.2181770237696,
5,11,8,2,1.0,0.298245614035088,2,1.0,1.0,2,0.25,1.0,ReadingArea_rsl2-rcl100-esl29-rsm2-rcm100-esm100-rsr2-rcr25-esr100,exr/ReadingArea_rsl2-rcl100-esl29-rsm2-rcm100-esm100-rsr2-rcr25-esr100.exr,ReadingArea_rsl2-rcl100-esl29-rsm2-rcm100-esm100-rsr2-rcr25-esr100.npz,,,,,0,169,169,548,,left,green,3.03,754.6856379508972,,3,,2,4,brightness,readingArea,realistic,75,2023-03-15_15h04.40.131,tripletExp_regina_11082022,2022.2.4,120.2181770237696,
0,8,6,2,0.027777777777778,0.298245614035088,2,0.25,1.0,2,0.027777777777778,1.0,ReadingArea_rsl2-rcl2-esl29-rsm2-rcm25-esm100-rsr2-rcr2-esr100,exr/ReadingArea_rsl2-rcl2-esl29-rsm2-rcm25-esm100-rsr2-rcr2-esr100.exr,ReadingArea_rsl2-rcl2-esl29-rsm2-rcm25-esm100-rsr2-rcr2-esr100.npz,,,,,0,170,170,92,,right,red,1.26,756.7994759082794,757.1653618812561,3,,2,4,brightness,readingArea,realistic,75,2023-03-15_15h04.40.131,tripletExp_regina_11082022,2022.2.4,120.2181770237696,
13,11,7,2,0.111111111111111,3.10526315789474,2,1.0,1.0,2,0.111111111111111,1.0,ReadingArea_rsl2-rcl11-esl310-rsm2-rcm100-esm100-rsr2-rcr11-esr100,exr/ReadingArea_rsl2-rcl11-esl310-rsm2-rcm100-esm100-rsr2-rcr11-esr100.exr,ReadingArea_rsl2-rcl11-esl310-rsm2-rcm100-esm100-rsr2-rcr11-esr100.npz,,,,,0,171,171,590,,left,green,1.3,758.885204076767,759.2348470687866,3,,2,4,brightness,readingArea,realistic,75,2023-03-15_15h04.40.131,tripletExp_regina_11082022,2022.2.4,120.2181770237696,
3,4,0,2,0.444444444444444,0.298245614035088,2,0.694444444444444,0.298245614035088,2,0.027777777777778,0.298245614035088,ReadingArea_rsl2-rcl44-esl29-rsm2-rcm69-esm29-rsr2-rcr2-esr29,exr/ReadingArea_rsl2-rcl44-esl29-rsm2-rcm69-esm29-rsr2-rcr2-esr29.exr,ReadingArea_rsl2-rcl44-esl29-rsm2-rcm69-esm29-rsr2-rcr2-esr29.npz,,,,,0,172,172,130,,left,green,1.1,760.9299039840698,761.2944619655609,3,,2,4,brightness,readingArea,realistic,75,2023-03-15_15h04.40.131,tripletExp_regina_11082022,2022.2.4,120.2181770237696,
14,12,10,2,0.25,3.10526315789474,2,0.027777777777778,3.10526315789474,2,0.694444444444444,1.0,ReadingArea_rsl2-rcl25-esl310-rsm2-rcm2-esm310-rsr2-rcr69-esr100,exr/ReadingArea_rsl2-rcl25-esl310-rsm2-rcm2-esm310-rsr2-rcr69-esr100.exr,ReadingArea_rsl2-rcl25-esl310-rsm2-rcm2-esm310-rsr2-rcr69-esr100.npz,,,,,0,173,173,331,,left,green,1.15,762.9808058738708,763.3531289100647,3,,2,4,brightness,readingArea,realistic,75,2023-03-15_15h04.40.131,tripletExp_regina_11082022,2022.2.4,120.2181770237696,
11,4,0,2,1.0,1.0,2,0.694444444444444,0.298245614035088,2,0.027777777777778,0.298245614035088,ReadingArea_rsl2-rcl100-esl100-rsm2-rcm69-esm29-rsr2-rcr2-esr29,exr/ReadingArea_rsl2-rcl100-esl100-rsm2-rcm69-esm29-rsr2-rcr2-esr29.exr,ReadingArea_rsl2-rcl100-esl100-rsm2-rcm69-esm29-rsr2-rcr2-esr29.npz,,,,,0,174,174,219,,left,green,2.36,766.8550229072571,767.2484610080719,3,,2,4,brightness,readingArea,realistic,75,2023-03-15_15h04.40.131,tripletExp_regina_11082022,2022.2.4,120.2181770237696,
0,13,12,2,0.027777777777778,0.298245614035088,2,0.111111111111111,3.10526315789474,2,0.027777777777778,3.10526315789474,ReadingArea_rsl2-rcl2-esl29-rsm2-rcm11-esm310-rsr2-rcr2-esr310,exr/ReadingArea_rsl2-rcl2-esl29-rsm2-rcm11-esm310-rsr2-rcr2-esr310.exr,ReadingArea_rsl2-rcl2-esl29-rsm2-rcm11-esm310-rsr2-rcr2-esr310.npz,,,,,0,175,175,501,,right,red,1.17,768.9451611042023,769.2971079349518,3,,2,4,brightness,readingArea,realistic,75,2023-03-15_15h04.40.131,tripletExp_regina_11082022,2022.2.4,120.2181770237696,
4,8,14,2,0.694444444444444,0.298245614035088,2,0.25,1.0,2,0.25,3.10526315789474,ReadingArea_rsl2-rcl69-esl29-rsm2-rcm25-esm100-rsr2-rcr25-esr310,exr/ReadingArea_rsl2-rcl69-esl29-rsm2-rcm25-esm100-rsr2-rcr25-esr310.exr,ReadingArea_rsl2-rcl69-esl29-rsm2-rcm25-esm100-rsr2-rcr25-esr310.npz,,,,,0,176,176,234,,left,green,1.11,771.0090320110321,771.371747970581,3,,2,4,brightness,readingArea,realistic,75,2023-03-15_15h04.40.131,tripletExp_regina_11082022,2022.2.4,120.2181770237696,
8,10,6,2,0.25,1.0,2,0.694444444444444,1.0,2,0.027777777777778,1.0,ReadingArea_rsl2-rcl25-esl100-rsm2-rcm69-esm100-rsr2-rcr2-esr100,exr/ReadingArea_rsl2-rcl25-esl100-rsm2-rcm69-esm100-rsr2-rcr2-esr100.exr,ReadingArea_rsl2-rcl25-esl100-rsm2-rcm69-esm100-rsr2-rcr2-esr100.npz,,,,,0,177,177,129,,left,green,1.11,773.0778470039368,773.4458870887756,3,,2,4,brightness,readingArea,realistic,75,2023-03-15_15h04.40.131,tripletExp_regina_11082022,2022.2.4,120.2181770237696,
3,0,4,2,0.444444444444444,0.298245614035088,2,0.027777777777778,0.298245614035088,2,0.694444444444444,0.298245614035088,ReadingArea_rsl2-rcl44-esl29-rsm2-rcm2-esm29-rsr2-rcr69-esr29,exr/ReadingArea_rsl2-rcl44-esl29-rsm2-rcm2-esm29-rsr2-rcr69-esr29.exr,ReadingArea_rsl2-rcl44-esl29-rsm2-rcm2-esm29-rsr2-rcr69-esr29.npz,,,,,0,178,178,111,,left,green,1.57,775.1583890914917,775.5271999835968,3,,2,4,brightness,readingArea,realistic,75,2023-03-15_15h04.40.131,tripletExp_regina_11082022,2022.2.4,120.2181770237696,
13,6,4,2,0.111111111111111,3.10526315789474,2,0.027777777777778,1.0,2,0.694444444444444,0.298245614035088,ReadingArea_rsl2-rcl11-esl310-rsm2-rcm2-esm100-rsr2-rcr69-esr29,exr/ReadingArea_rsl2-rcl11-esl310-rsm2-rcm2-esm100-rsr2-rcr69-esr29.exr,ReadingArea_rsl2-rcl11-esl310-rsm2-rcm2-esm100-rsr2-rcr69-esr29.npz,,,,,0,179,179,328,,right,red,3.13,779.0244488716125,779.3953540325165,3,,2,4,brightness,readingArea,realistic,75,2023-03-15_15h04.40.131,tripletExp_regina_11082022,2022.2.4,120.2181770237696,
6,11,14,2,0.027777777777778,1.0,2,1.0,1.0,2,0.25,3.10526315789474,ReadingArea_rsl2-rcl2-esl100-rsm2-rcm100-esm100-rsr2-rcr25-esr310,exr/ReadingArea_rsl2-rcl2-esl100-rsm2-rcm100-esm100-rsr2-rcr25-esr310.exr,ReadingArea_rsl2-rcl2-esl100-rsm2-rcm100-esm100-rsr2-rcr25-esr310.npz,,,,,0,180,180,262,,right,red,1.07,781.1017849445343,781.470300912857,3,,2,4,brightness,readingArea,realistic,75,2023-03-15_15h04.40.131,tripletExp_regina_11082022,2022.2.4,120.2181770237696,
2,3,6,2,0.25,0.298245614035088,2,0.444444444444444,0.298245614035088,2,0.027777777777778,1.0,ReadingArea_rsl2-rcl25-esl29-rsm2-rcm44-esm29-rsr2-rcr2-esr100,exr/ReadingArea_rsl2-rcl25-esl29-rsm2-rcm44-esm29-rsr2-rcr2-esr100.exr,ReadingArea_rsl2-rcl25-esl29-rsm2-rcm44-esm29-rsr2-rcr2-esr100.npz,,,,,0,181,181,357,,left,green,1.32,783.1588389873505,783.5278050899506,3,,2,4,brightness,readingArea,realistic,75,2023-03-15_15h04.40.131,tripletExp_regina_11082022,2022.2.4,120.2181770237696,
13,3,14,2,0.111111111111111,3.10526315789474,2,0.444444444444444,0.298245614035088,2,0.25,3.10526315789474,ReadingArea_rsl2-rcl11-esl310-rsm2-rcm44-esm29-rsr2-rcr25-esr310,exr/ReadingArea_rsl2-rcl11-esl310-rsm2-rcm44-esm29-rsr2-rcr25-esr310.exr,ReadingArea_rsl2-rcl11-esl310-rsm2-rcm44-esm29-rsr2-rcr25-esr310.npz,,,,,0,182,182,38,,left,green,1.48,785.23353099823,785.60484790802,3,,2,4,brightness,readingArea,realistic,75,2023-03-15_15h04.40.131,tripletExp_regina_11082022,2022.2.4,120.2181770237696,
9,8,0,2,0.444444444444444,1.0,2,0.25,1.0,2,0.027777777777778,0.298245614035088,ReadingArea_rsl2-rcl44-esl100-rsm2-rcm25-esm100-rsr2-rcr2-esr29,exr/ReadingArea_rsl2-rcl44-esl100-rsm2-rcm25-esm100-rsr2-rcr2-esr29.exr,ReadingArea_rsl2-rcl44-esl100-rsm2-rcm25-esm100-rsr2-rcr2-esr29.npz,,,,,0,183,183,66,,left,green,2.68,789.0590870380402,789.4343030452728,3,,2,4,brightness,readingArea,realistic,75,2023-03-15_15h04.40.131,tripletExp_regina_11082022,2022.2.4,120.2181770237696,
5,1,13,2,1.0,0.298245614035088,2,0.111111111111111,0.298245614035088,2,0.111111111111111,3.10526315789474,ReadingArea_rsl2-rcl100-esl29-rsm2-rcm11-esm29-rsr2-rcr11-esr310,exr/ReadingArea_rsl2-rcl100-esl29-rsm2-rcm11-esm29-rsr2-rcr11-esr310.exr,ReadingArea_rsl2-rcl100-esl29-rsm2-rcm11-esm29-rsr2-rcr11-esr310.npz,,,,,0,184,184,594,,left,green,1.19,791.1496028900146,,3,,2,4,brightness,readingArea,realistic,75,2023-03-15_15h04.40.131,tripletExp_regina_11082022,2022.2.4,120.2181770237696,
0,5,1,2,0.027777777777778,0.298245614035088,2,1.0,0.298245614035088,2,0.111111111111111,0.298245614035088,ReadingArea_rsl2-rcl2-esl29-rsm2-rcm100-esm29-rsr2-rcr11-esr29,exr/ReadingArea_rsl2-rcl2-esl29-rsm2-rcm100-esm29-rsr2-rcr11-esr29.exr,ReadingArea_rsl2-rcl2-esl29-rsm2-rcm100-esm29-rsr2-rcr11-esr29.npz,,,,,0,185,185,367,,right,red,1.57,793.2633969783783,793.6382858753204,3,,2,4,brightness,readingArea,realistic,75,2023-03-15_15h04.40.131,tripletExp_regina_11082022,2022.2.4,120.2181770237696,
13,6,10,2,0.111111111111111,3.10526315789474,2,0.027777777777778,1.0,2,0.694444444444444,1.0,ReadingArea_rsl2-rcl11-esl310-rsm2-rcm2-esm100-rsr2-rcr69-esr100,exr/ReadingArea_rsl2-rcl11-esl310-rsm2-rcm2-esm100-rsr2-rcr69-esr100.exr,ReadingArea_rsl2-rcl11-esl310-rsm2-rcm2-esm100-rsr2-rcr69-esr100.npz,,,,,0,186,186,593,,left,green,1.39,795.3502449989319,795.6930198669434,3,,2,4,brightness,readingArea,realistic,75,2023-03-15_15h04.40.131,tripletExp_regina_11082022,2022.2.4,120.2181770237696,
13,0,8,2,0.111111111111111,3.10526315789474,2,0.027777777777778,0.298245614035088,2,0.25,1.0,ReadingArea_rsl2-rcl11-esl310-rsm2-rcm2-esm29-rsr2-rcr25-esr100,exr/ReadingArea_rsl2-rcl11-esl310-rsm2-rcm2-esm29-rsr2-rcr25-esr100.exr,ReadingArea_rsl2-rcl11-esl310-rsm2-rcm2-esm29-rsr2-rcr25-esr100.npz,,,,,0,187,187,249,,right,red,2.87,799.168468952179,799.5468719005585,3,,2,4,brightness,readingArea,realistic,75,2023-03-15_15h04.40.131,tripletExp_regina_11082022,2022.2.4,120.2181770237696,
1,11,14,2,0.111111111111111,0.298245614035088,2,1.0,1.0,2,0.25,3.10526315789474,ReadingArea_rsl2-rcl11-esl29-rsm2-rcm100-esm100-rsr2-rcr25-esr310,exr/ReadingArea_rsl2-rcl11-esl29-rsm2-rcm100-esm100-rsr2-rcr25-esr310.exr,ReadingArea_rsl2-rcl11-esl29-rsm2-rcm100-esm100-rsr2-rcr25-esr310.npz,,,,,0,188,188,399,,right,red,1.15,801.257171869278,801.6242029666901,3,,2,4,brightness,readingArea,realistic,75,2023-03-15_15h04.40.131,tripletExp_regina_11082022,2022.2.4,120.2181770237696,
7,4,6,2,0.111111111111111,1.0,2,0.694444444444444,0.298245614035088,2,0.027777777777778,1.0,ReadingArea_rsl2-rcl11-esl100-rsm2-rcm69-esm29-rsr2-rcr2-esr100,exr/ReadingArea_rsl2-rcl11-esl100-rsm2-rcm69-esm29-rsr2-rcr2-esr100.exr,ReadingArea_rsl2-rcl11-esl100-rsm2-rcm69-esm29-rsr2-rcr2-esr100.npz,,,,,0,189,189,528,,left,green,1.31,803.3240180015564,803.6941289901733,3,,2,4,brightness,readingArea,realistic,75,2023-03-15_15h04.40.131,tripletExp_regina_11082022,2022.2.4,120.2181770237696,
1,0,4,2,0.111111111111111,0.298245614035088,2,0.027777777777778,0.298245614035088,2,0.694444444444444,0.298245614035088,ReadingArea_rsl2-rcl11-esl29-rsm2-rcm2-esm29-rsr2-rcr69-esr29,exr/ReadingArea_rsl2-rcl11-esl29-rsm2-rcm2-esm29-rsr2-rcr69-esr29.exr,ReadingArea_rsl2-rcl11-esl29-rsm2-rcm2-esm29-rsr2-rcr69-esr29.npz,,,,,0,190,190,494,,left,green,1.13,805.3851881027222,,3,,2,4,brightness,readingArea,realistic,75,2023-03-15_15h04.40.131,tripletExp_regina_11082022,2022.2.4,120.2181770237696,
2,10,6,2,0.25,0.298245614035088,2,0.694444444444444,1.0,2,0.027777777777778,1.0,ReadingArea_rsl2-rcl25-esl29-rsm2-rcm69-esm100-rsr2-rcr2-esr100,exr/ReadingArea_rsl2-rcl25-esl29-rsm2-rcm69-esm100-rsr2-rcr2-esr100.exr,ReadingArea_rsl2-rcl25-esl29-rsm2-rcm69-esm100-rsr2-rcr2-esr100.npz,,,,,0,191,191,4,,left,green,2.65,809.2127110958099,809.586128950119,3,,2,4,brightness,readingArea,realistic,75,2023-03-15_15h04.40.131,tripletExp_regina_11082022,2022.2.4,120.2181770237696,
6,0,4,2,0.027777777777778,1.0,2,0.027777777777778,0.298245614035088,2,0.694444444444444,0.298245614035088,ReadingArea_rsl2-rcl2-esl100-rsm2-rcm2-esm29-rsr2-rcr69-esr29,exr/ReadingArea_rsl2-rcl2-esl100-rsm2-rcm2-esm29-rsr2-rcr69-esr29.exr,ReadingArea_rsl2-rcl2-esl100-rsm2-rcm2-esm29-rsr2-rcr69-esr29.npz,,,,,0,192,192,555,,left,green,1.32,811.3033390045166,811.6770389080048,3,,2,4,brightness,readingArea,realistic,75,2023-03-15_15h04.40.131,tripletExp_regina_11082022,2022.2.4,120.2181770237696,
0,14,10,2,0.027777777777778,0.298245614035088,2,0.25,3.10526315789474,2,0.694444444444444,1.0,ReadingArea_rsl2-rcl2-esl29-rsm2-rcm25-esm310-rsr2-rcr69-esr100,exr/ReadingArea_rsl2-rcl2-esl29-rsm2-rcm25-esm310-rsr2-rcr69-esr100.exr,ReadingArea_rsl2-rcl2-esl29-rsm2-rcm25-esm310-rsr2-rcr69-esr100.npz,,,,,0,193,193,128,,right,red,1.02,813.3642830848694,813.7234718799591,3,,2,4,brightness,readingArea,realistic,75,2023-03-15_15h04.40.131,tripletExp_regina_11082022,2022.2.4,120.2181770237696,
10,13,1,2,0.694444444444444,1.0,2,0.111111111111111,3.10526315789474,2,0.111111111111111,0.298245614035088,ReadingArea_rsl2-rcl69-esl100-rsm2-rcm11-esm310-rsr2-rcr11-esr29,exr/ReadingArea_rsl2-rcl69-esl100-rsm2-rcm11-esm310-rsr2-rcr11-esr29.exr,ReadingArea_rsl2-rcl69-esl100-rsm2-rcm11-esm310-rsr2-rcr11-esr29.npz,,,,,0,194,194,149,,right,red,1.35,815.4288499355316,,3,,2,4,brightness,readingArea,realistic,75,2023-03-15_15h04.40.131,tripletExp_regina_11082022,2022.2.4,120.2181770237696,
14,2,1,2,0.25,3.10526315789474,2,0.25,0.298245614035088,2,0.111111111111111,0.298245614035088,ReadingArea_rsl2-rcl25-esl310-rsm2-rcm25-esm29-rsr2-rcr11-esr29,exr/ReadingArea_rsl2-rcl25-esl310-rsm2-rcm25-esm29-rsr2-rcr11-esr29.exr,ReadingArea_rsl2-rcl25-esl310-rsm2-rcm25-esm29-rsr2-rcr11-esr29.npz,,,,,0,195,195,321,,right,red,0.96,817.5162019729614,817.8920209407806,3,,2,4,brightness,readingArea,realistic,75,2023-03-15_15h04.40.131,tripletExp_regina_11082022,2022.2.4,120.2181770237696,
13,11,2,2,0.111111111111111,3.10526315789474,2,1.0,1.0,2,0.25,0.298245614035088,ReadingArea_rsl2-rcl11-esl310-rsm2-rcm100-esm100-rsr2-rcr25-esr29,exr/ReadingArea_rsl2-rcl11-esl310-rsm2-rcm100-esm100-rsr2-rcr25-esr29.exr,ReadingArea_rsl2-rcl11-esl310-rsm2-rcm100-esm100-rsr2-rcr25-esr29.npz,,,,,0,196,196,55,,left,green,1.55,819.6058249473572,819.9789800643921,3,,2,4,brightness,readingArea,realistic,75,2023-03-15_15h04.40.131,tripletExp_regina_11082022,2022.2.4,120.2181770237696,
13,10,7,2,0.111111111111111,3.10526315789474,2,0.694444444444444,1.0,2,0.111111111111111,1.0,ReadingArea_rsl2-rcl11-esl310-rsm2-rcm69-esm100-rsr2-rcr11-esr100,exr/ReadingArea_rsl2-rcl11-esl310-rsm2-rcm69-esm100-rsr2-rcr11-esr100.exr,ReadingArea_rsl2-rcl11-esl310-rsm2-rcm69-esm100-rsr2-rcr11-esr100.npz,,,,,0,197,197,385,,left,green,1.4,821.6873850822449,822.0316979885101,3,,2,4,brightness,readingArea,realistic,75,2023-03-15_15h04.40.131,tripletExp_regina_11082022,2022.2.4,120.2181770237696,
1,12,6,2,0.111111111111111,0.298245614035088,2,0.027777777777778,3.10526315789474,2,0.027777777777778,1.0,ReadingArea_rsl2-rcl11-esl29-rsm2-rcm2-esm310-rsr2-rcr2-esr100,exr/ReadingArea_rsl2-rcl11-esl29-rsm2-rcm2-esm310-rsr2-rcr2-esr100.exr,ReadingArea_rsl2-rcl11-esl29-rsm2-rcm2-esm310-rsr2-rcr2-esr100.npz,,,,,0,198,198,277,,left,green,3.12,825.5279669761658,825.8983469009399,3,,2,4,brightness,readingArea,realistic,75,2023-03-15_15h04.40.131,tripletExp_regina_11082022,2022.2.4,120.2181770237696,
11,1,12,2,1.0,1.0,2,0.111111111111111,0.298245614035088,2,0.027777777777778,3.10526315789474,ReadingArea_rsl2-rcl100-esl100-rsm2-rcm11-esm29-rsr2-rcr2-esr310,exr/ReadingArea_rsl2-rcl100-esl100-rsm2-rcm11-esm29-rsr2-rcr2-esr310.exr,ReadingArea_rsl2-rcl100-esl100-rsm2-rcm11-esm29-rsr2-rcr2-esr310.npz,,,,,0,199,199,339,,right,red,3.34,829.3591558933258,829.7312068939209,3,,2,4,brightness,readingArea,realistic,75,2023-03-15_15h04.40.131,tripletExp_regina_11082022,2022.2.4,120.2181770237696,
7,13,6,2,0.111111111111111,1.0,2,0.111111111111111,3.10526315789474,2,0.027777777777778,1.0,ReadingArea_rsl2-rcl11-esl100-rsm2-rcm11-esm310-rsr2-rcr2-esr100,exr/ReadingArea_rsl2-rcl11-esl100-rsm2-rcm11-esm310-rsr2-rcr2-esr100.exr,ReadingArea_rsl2-rcl11-esl100-rsm2-rcm11-esm310-rsr2-rcr2-esr100.npz,,,,,0,200,200,73,,left,green,1.33,831.4230809211731,831.7996850013733,3,,2,4,brightness,readingArea,realistic,75,2023-03-15_15h04.40.131,tripletExp_regina_11082022,2022.2.4,120.2181770237696,
11,5,3,2,1.0,1.0,2,1.0,0.298245614035088,2,0.444444444444444,0.298245614035088,ReadingArea_rsl2-rcl100-esl100-rsm2-rcm100-esm29-rsr2-rcr44-esr29,exr/ReadingArea_rsl2-rcl100-esl100-rsm2-rcm100-esm29-rsr2-rcr44-esr29.exr,ReadingArea_rsl2-rcl100-esl100-rsm2-rcm100-esm29-rsr2-rcr44-esr29.npz,,,,,0,201,201,172,,right,red,1.02,833.5071609020233,833.8553509712219,3,,2,4,brightness,readingArea,realistic,75,2023-03-15_15h04.40.131,tripletExp_regina_11082022,2022.2.4,120.2181770237696,
14,5,10,2,0.25,3.10526315789474,2,1.0,0.298245614035088,2,0.694444444444444,1.0,ReadingArea_rsl2-rcl25-esl310-rsm2-rcm100-esm29-rsr2-rcr69-esr100,exr/ReadingArea_rsl2-rcl25-esl310-rsm2-rcm100-esm29-rsr2-rcr69-esr100.exr,ReadingArea_rsl2-rcl25-esl310-rsm2-rcm100-esm29-rsr2-rcr69-esr100.npz,,,,,0,202,202,170,,left,green,3.22,837.3108968734741,837.7186920642853,3,,2,4,brightness,readingArea,realistic,75,2023-03-15_15h04.40.131,tripletExp_regina_11082022,2022.2.4,120.2181770237696,
2,9,12,2,0.25,0.298245614035088,2,0.444444444444444,1.0,2,0.027777777777778,3.10526315789474,ReadingArea_rsl2-rcl25-esl29-rsm2-rcm44-esm100-rsr2-rcr2-esr310,exr/ReadingArea_rsl2-rcl25-esl29-rsm2-rcm44-esm100-rsr2-rcr2-esr310.exr,ReadingArea_rsl2-rcl25-esl29-rsm2-rcm44-esm100-rsr2-rcr2-esr310.npz,,,,,0,203,203,354,,left,green,2.97,841.1712980270386,841.5301840305328,3,,2,4,brightness,readingArea,realistic,75,2023-03-15_15h04.40.131,tripletExp_regina_11082022,2022.2.4,120.2181770237696,
