index_left,index_middle,index_right,reflectance_surround_left,reflectance_center_left,emission_spot_left,reflectance_surround_middle,reflectance_center_middle,emission_spot_middle,reflectance_surround_right,reflectance_center_right,emission_spot_right,ImageName,ImageExr,ImageNpy,trials_2.thisRepN,trials_2.thisTrialN,trials_2.thisN,trials_2.thisIndex,trials.thisRepN,trials.thisTrialN,trials.thisN,trials.thisIndex,sound_1.started,BB_Trial.resp,BB_Trial.color,BB_Trial.rt,text.started,text.stopped,sound_2.started,block,sound_4.started,participant,session,L/B,scene,condition,nTrialsPerBlock,date,expName,psychopyVersion,frameRate,Unnamed: 42
14,2,0,0,0.25,3.10526315789474,0,0.25,0.298245614035088,0,0.027777777777778,0.298245614035088,ReadingArea_rsl0-rcl25-esl310-rsm0-rcm25-esm29-rsr0-rcr2-esr29,exr/ReadingArea_rsl0-rcl25-esl310-rsm0-rcm25-esm29-rsr0-rcr2-esr29.exr,ReadingArea_rsl0-rcl25-esl310-rsm0-rcm25-esm29-rsr0-rcr2-esr29.npz,,,,,0,0,0,460,197.7768858194351,right,red,1.59,215.5724220275879,216.1440770626068,162.56894977092742,1,,2,5,lightness,readingArea,realistic,75,2023-03-21_10h03.48.110,tripletExp_regina_11082022,2022.2.4,120.44567989156656,
13,8,5,0,0.111111111111111,3.10526315789474,0,0.25,1.0,0,1.0,0.298245614035088,ReadingArea_rsl0-rcl11-esl310-rsm0-rcm25-esm100-rsr0-rcr100-esr29,exr/ReadingArea_rsl0-rcl11-esl310-rsm0-rcm25-esm100-rsr0-rcr100-esr29.exr,ReadingArea_rsl0-rcl11-esl310-rsm0-rcm25-esm100-rsr0-rcr100-esr29.npz,,,,,0,1,1,209,,left,green,1.39,217.8612711429596,221.95276308059687,,1,,2,5,lightness,readingArea,realistic,75,2023-03-21_10h03.48.110,tripletExp_regina_11082022,2022.2.4,120.44567989156656,
10,5,1,0,0.694444444444444,1.0,0,1.0,0.298245614035088,0,0.111111111111111,0.298245614035088,ReadingArea_rsl0-rcl69-esl100-rsm0-rcm100-esm29-rsr0-rcr11-esr29,exr/ReadingArea_rsl0-rcl69-esl100-rsm0-rcm100-esm29-rsr0-rcr11-esr29.exr,ReadingArea_rsl0-rcl69-esl100-rsm0-rcm100-esm29-rsr0-rcr11-esr29.npz,,,,,0,2,2,152,,left,green,1.48,223.6415719985962,,,1,,2,5,lightness,readingArea,realistic,75,2023-03-21_10h03.48.110,tripletExp_regina_11082022,2022.2.4,120.44567989156656,
4,7,5,0,0.694444444444444,0.298245614035088,0,0.111111111111111,1.0,0,1.0,0.298245614035088,ReadingArea_rsl0-rcl69-esl29-rsm0-rcm11-esm100-rsr0-rcr100-esr29,exr/ReadingArea_rsl0-rcl69-esl29-rsm0-rcm11-esm100-rsr0-rcr100-esr29.exr,ReadingArea_rsl0-rcl69-esl29-rsm0-rcm11-esm100-rsr0-rcr100-esr29.npz,,,,,0,3,3,195,,left,green,1.64,225.77202701568604,226.2310950756073,,1,,2,5,lightness,readingArea,realistic,75,2023-03-21_10h03.48.110,tripletExp_regina_11082022,2022.2.4,120.44567989156656,
6,12,8,0,0.027777777777778,1.0,0,0.027777777777778,3.10526315789474,0,0.25,1.0,ReadingArea_rsl0-rcl2-esl100-rsm0-rcm2-esm310-rsr0-rcr25-esr100,exr/ReadingArea_rsl0-rcl2-esl100-rsm0-rcm2-esm310-rsr0-rcr25-esr100.exr,ReadingArea_rsl0-rcl2-esl100-rsm0-rcm2-esm310-rsr0-rcr25-esr100.npz,,,,,0,4,4,186,,left,green,1.47,227.93543410301208,228.39971494674683,,1,,2,5,lightness,readingArea,realistic,75,2023-03-21_10h03.48.110,tripletExp_regina_11082022,2022.2.4,120.44567989156656,
11,0,10,0,1.0,1.0,0,0.027777777777778,0.298245614035088,0,0.694444444444444,1.0,ReadingArea_rsl0-rcl100-esl100-rsm0-rcm2-esm29-rsr0-rcr69-esr100,exr/ReadingArea_rsl0-rcl100-esl100-rsm0-rcm2-esm29-rsr0-rcr69-esr100.exr,ReadingArea_rsl0-rcl100-esl100-rsm0-rcm2-esm29-rsr0-rcr69-esr100.npz,,,,,0,5,5,259,,right,red,2.89,231.86783695220947,,,1,,2,5,lightness,readingArea,realistic,75,2023-03-21_10h03.48.110,tripletExp_regina_11082022,2022.2.4,120.44567989156656,
0,10,12,0,0.027777777777778,0.298245614035088,0,0.694444444444444,1.0,0,0.027777777777778,3.10526315789474,ReadingArea_rsl0-rcl2-esl29-rsm0-rcm69-esm100-rsr0-rcr2-esr310,exr/ReadingArea_rsl0-rcl2-esl29-rsm0-rcm69-esm100-rsr0-rcr2-esr310.exr,ReadingArea_rsl0-rcl2-esl29-rsm0-rcm69-esm100-rsr0-rcr2-esr310.npz,,,,,0,6,6,531,,right,red,1.3,234.0245361328125,234.5085389614105,,1,,2,5,lightness,readingArea,realistic,75,2023-03-21_10h03.48.110,tripletExp_regina_11082022,2022.2.4,120.44567989156656,
2,14,7,0,0.25,0.298245614035088,0,0.25,3.10526315789474,0,0.111111111111111,1.0,ReadingArea_rsl0-rcl25-esl29-rsm0-rcm25-esm310-rsr0-rcr11-esr100,exr/ReadingArea_rsl0-rcl25-esl29-rsm0-rcm25-esm310-rsr0-rcr11-esr100.exr,ReadingArea_rsl0-rcl25-esl29-rsm0-rcm25-esm310-rsr0-rcr11-esr100.npz,,,,,0,7,7,310,,right,red,2.79,237.980672121048,238.46603798866272,,1,,2,5,lightness,readingArea,realistic,75,2023-03-21_10h03.48.110,tripletExp_regina_11082022,2022.2.4,120.44567989156656,
13,6,0,0,0.111111111111111,3.10526315789474,0,0.027777777777778,1.0,0,0.027777777777778,0.298245614035088,ReadingArea_rsl0-rcl11-esl310-rsm0-rcm2-esm100-rsr0-rcr2-esr29,exr/ReadingArea_rsl0-rcl11-esl310-rsm0-rcm2-esm100-rsr0-rcr2-esr29.exr,ReadingArea_rsl0-rcl11-esl310-rsm0-rcm2-esm100-rsr0-rcr2-esr29.npz,,,,,0,8,8,309,,right,red,3.11,241.9183931350708,242.3434951305389,,1,,2,5,lightness,readingArea,realistic,75,2023-03-21_10h03.48.110,tripletExp_regina_11082022,2022.2.4,120.44567989156656,
3,0,8,0,0.444444444444444,0.298245614035088,0,0.027777777777778,0.298245614035088,0,0.25,1.0,ReadingArea_rsl0-rcl44-esl29-rsm0-rcm2-esm29-rsr0-rcr25-esr100,exr/ReadingArea_rsl0-rcl44-esl29-rsm0-rcm2-esm29-rsr0-rcr25-esr100.exr,ReadingArea_rsl0-rcl44-esl29-rsm0-rcm2-esm29-rsr0-rcr25-esr100.npz,,,,,0,9,9,510,,left,green,2.89,245.85686707496643,246.4012830257416,,1,,2,5,lightness,readingArea,realistic,75,2023-03-21_10h03.48.110,tripletExp_regina_11082022,2022.2.4,120.44567989156656,
10,13,1,0,0.694444444444444,1.0,0,0.111111111111111,3.10526315789474,0,0.111111111111111,0.298245614035088,ReadingArea_rsl0-rcl69-esl100-rsm0-rcm11-esm310-rsr0-rcr11-esr29,exr/ReadingArea_rsl0-rcl69-esl100-rsm0-rcm11-esm310-rsr0-rcr11-esr29.exr,ReadingArea_rsl0-rcl69-esl100-rsm0-rcm11-esm310-rsr0-rcr11-esr29.npz,,,,,0,10,10,149,,right,red,1.64,248.0957510471344,,,1,,2,5,lightness,readingArea,realistic,75,2023-03-21_10h03.48.110,tripletExp_regina_11082022,2022.2.4,120.44567989156656,
10,9,6,0,0.694444444444444,1.0,0,0.444444444444444,1.0,0,0.027777777777778,1.0,ReadingArea_rsl0-rcl69-esl100-rsm0-rcm44-esm100-rsr0-rcr2-esr100,exr/ReadingArea_rsl0-rcl69-esl100-rsm0-rcm44-esm100-rsr0-rcr2-esr100.exr,ReadingArea_rsl0-rcl69-esl100-rsm0-rcm44-esm100-rsr0-rcr2-esr100.npz,,,,,0,11,11,35,,left,green,2.76,252.06545495986936,,,1,,2,5,lightness,readingArea,realistic,75,2023-03-21_10h03.48.110,tripletExp_regina_11082022,2022.2.4,120.44567989156656,
5,0,6,0,1.0,0.298245614035088,0,0.027777777777778,0.298245614035088,0,0.027777777777778,1.0,ReadingArea_rsl0-rcl100-esl29-rsm0-rcm2-esm29-rsr0-rcr2-esr100,exr/ReadingArea_rsl0-rcl100-esl29-rsm0-rcm2-esm29-rsr0-rcr2-esr100.exr,ReadingArea_rsl0-rcl100-esl29-rsm0-rcm2-esm29-rsr0-rcr2-esr100.npz,,,,,0,12,12,1,,right,red,1.0,254.3074300289154,254.7580070495605,,1,,2,5,lightness,readingArea,realistic,75,2023-03-21_10h03.48.110,tripletExp_regina_11082022,2022.2.4,120.44567989156656,
1,12,0,0,0.111111111111111,0.298245614035088,0,0.027777777777778,3.10526315789474,0,0.027777777777778,0.298245614035088,ReadingArea_rsl0-rcl11-esl29-rsm0-rcm2-esm310-rsr0-rcr2-esr29,exr/ReadingArea_rsl0-rcl11-esl29-rsm0-rcm2-esm310-rsr0-rcr2-esr29.exr,ReadingArea_rsl0-rcl11-esl29-rsm0-rcm2-esm310-rsr0-rcr2-esr29.npz,,,,,0,13,13,113,,left,green,1.24,256.4459381103516,256.9200510978699,,1,,2,5,lightness,readingArea,realistic,75,2023-03-21_10h03.48.110,tripletExp_regina_11082022,2022.2.4,120.44567989156656,
6,2,5,0,0.027777777777778,1.0,0,0.25,0.298245614035088,0,1.0,0.298245614035088,ReadingArea_rsl0-rcl2-esl100-rsm0-rcm25-esm29-rsr0-rcr100-esr29,exr/ReadingArea_rsl0-rcl2-esl100-rsm0-rcm25-esm29-rsr0-rcr100-esr29.exr,ReadingArea_rsl0-rcl2-esl100-rsm0-rcm25-esm29-rsr0-rcr100-esr29.npz,,,,,0,14,14,504,,left,green,1.3,258.634733915329,259.06708312034607,,1,,2,5,lightness,readingArea,realistic,75,2023-03-21_10h03.48.110,tripletExp_regina_11082022,2022.2.4,120.44567989156656,
14,12,0,0,0.25,3.10526315789474,0,0.027777777777778,3.10526315789474,0,0.027777777777778,0.298245614035088,ReadingArea_rsl0-rcl25-esl310-rsm0-rcm2-esm310-rsr0-rcr2-esr29,exr/ReadingArea_rsl0-rcl25-esl310-rsm0-rcm2-esm310-rsr0-rcr2-esr29.exr,ReadingArea_rsl0-rcl25-esl310-rsm0-rcm2-esm310-rsr0-rcr2-esr29.npz,,,,,0,15,15,409,,right,red,2.36,262.5429639816284,263.0513300895691,,1,,2,5,lightness,readingArea,realistic,75,2023-03-21_10h03.48.110,tripletExp_regina_11082022,2022.2.4,120.44567989156656,
10,8,1,0,0.694444444444444,1.0,0,0.25,1.0,0,0.111111111111111,0.298245614035088,ReadingArea_rsl0-rcl69-esl100-rsm0-rcm25-esm100-rsr0-rcr11-esr29,exr/ReadingArea_rsl0-rcl69-esl100-rsm0-rcm25-esm100-rsr0-rcr11-esr29.exr,ReadingArea_rsl0-rcl69-esl100-rsm0-rcm25-esm100-rsr0-rcr11-esr29.npz,,,,,0,16,16,247,,right,red,3.45,266.5391459465027,266.99597692489624,,1,,2,5,lightness,readingArea,realistic,75,2023-03-21_10h03.48.110,tripletExp_regina_11082022,2022.2.4,120.44567989156656,
13,4,0,0,0.111111111111111,3.10526315789474,0,0.694444444444444,0.298245614035088,0,0.027777777777778,0.298245614035088,ReadingArea_rsl0-rcl11-esl310-rsm0-rcm69-esm29-rsr0-rcr2-esr29,exr/ReadingArea_rsl0-rcl11-esl310-rsm0-rcm69-esm29-rsr0-rcr2-esr29.exr,ReadingArea_rsl0-rcl11-esl310-rsm0-rcm69-esm29-rsr0-rcr2-esr29.npz,,,,,0,17,17,269,,left,green,4.47,272.2481060028076,272.76989912986755,,1,,2,5,lightness,readingArea,realistic,75,2023-03-21_10h03.48.110,tripletExp_regina_11082022,2022.2.4,120.44567989156656,
2,11,7,0,0.25,0.298245614035088,0,1.0,1.0,0,0.111111111111111,1.0,ReadingArea_rsl0-rcl25-esl29-rsm0-rcm100-esm100-rsr0-rcr11-esr100,exr/ReadingArea_rsl0-rcl25-esl29-rsm0-rcm100-esm100-rsr0-rcr11-esr100.exr,ReadingArea_rsl0-rcl25-esl29-rsm0-rcm100-esm100-rsr0-rcr11-esr100.npz,,,,,0,18,18,576,,right,red,3.12,276.2138991355896,276.627298116684,,1,,2,5,lightness,readingArea,realistic,75,2023-03-21_10h03.48.110,tripletExp_regina_11082022,2022.2.4,120.44567989156656,
2,4,13,0,0.25,0.298245614035088,0,0.694444444444444,0.298245614035088,0,0.111111111111111,3.10526315789474,ReadingArea_rsl0-rcl25-esl29-rsm0-rcm69-esm29-rsr0-rcr11-esr310,exr/ReadingArea_rsl0-rcl25-esl29-rsm0-rcm69-esm29-rsr0-rcr11-esr310.exr,ReadingArea_rsl0-rcl25-esl29-rsm0-rcm69-esm29-rsr0-rcr11-esr310.npz,,,,,0,19,19,325,,right,red,3.58,280.0783770084381,280.51247215271,,1,,2,5,lightness,readingArea,realistic,75,2023-03-21_10h03.48.110,tripletExp_regina_11082022,2022.2.4,120.44567989156656,
14,12,5,0,0.25,3.10526315789474,0,0.027777777777778,3.10526315789474,0,1.0,0.298245614035088,ReadingArea_rsl0-rcl25-esl310-rsm0-rcm2-esm310-rsr0-rcr100-esr29,exr/ReadingArea_rsl0-rcl25-esl310-rsm0-rcm2-esm310-rsr0-rcr100-esr29.exr,ReadingArea_rsl0-rcl25-esl310-rsm0-rcm2-esm310-rsr0-rcr100-esr29.npz,,,,,0,20,20,335,,right,red,3.26,284.00356101989746,284.50838899612427,,1,,2,5,lightness,readingArea,realistic,75,2023-03-21_10h03.48.110,tripletExp_regina_11082022,2022.2.4,120.44567989156656,
5,8,2,0,1.0,0.298245614035088,0,0.25,1.0,0,0.25,0.298245614035088,ReadingArea_rsl0-rcl100-esl29-rsm0-rcm25-esm100-rsr0-rcr25-esr29,exr/ReadingArea_rsl0-rcl100-esl29-rsm0-rcm25-esm100-rsr0-rcr25-esr29.exr,ReadingArea_rsl0-rcl100-esl29-rsm0-rcm25-esm100-rsr0-rcr25-esr29.npz,,,,,0,21,21,65,,right,red,3.24,287.97767400741577,288.4331021308899,,1,,2,5,lightness,readingArea,realistic,75,2023-03-21_10h03.48.110,tripletExp_regina_11082022,2022.2.4,120.44567989156656,
1,2,12,0,0.111111111111111,0.298245614035088,0,0.25,0.298245614035088,0,0.027777777777778,3.10526315789474,ReadingArea_rsl0-rcl11-esl29-rsm0-rcm25-esm29-rsr0-rcr2-esr310,exr/ReadingArea_rsl0-rcl11-esl29-rsm0-rcm25-esm29-rsr0-rcr2-esr310.exr,ReadingArea_rsl0-rcl11-esl29-rsm0-rcm25-esm29-rsr0-rcr2-esr310.npz,,,,,0,22,22,229,,left,green,3.34,291.8804831504822,292.3340151309967,,1,,2,5,lightness,readingArea,realistic,75,2023-03-21_10h03.48.110,tripletExp_regina_11082022,2022.2.4,120.44567989156656,
0,9,11,0,0.027777777777778,0.298245614035088,0,0.444444444444444,1.0,0,1.0,1.0,ReadingArea_rsl0-rcl2-esl29-rsm0-rcm44-esm100-rsr0-rcr100-esr100,exr/ReadingArea_rsl0-rcl2-esl29-rsm0-rcm44-esm100-rsr0-rcr100-esr100.exr,ReadingArea_rsl0-rcl2-esl29-rsm0-rcm44-esm100-rsr0-rcr100-esr100.npz,,,,,0,23,23,448,,right,red,4.56,297.5889019966125,298.06561613082886,,1,,2,5,lightness,readingArea,realistic,75,2023-03-21_10h03.48.110,tripletExp_regina_11082022,2022.2.4,120.44567989156656,
6,13,0,0,0.027777777777778,1.0,0,0.111111111111111,3.10526315789474,0,0.027777777777778,0.298245614035088,ReadingArea_rsl0-rcl2-esl100-rsm0-rcm11-esm310-rsr0-rcr2-esr29,exr/ReadingArea_rsl0-rcl2-esl100-rsm0-rcm11-esm310-rsr0-rcr2-esr29.exr,ReadingArea_rsl0-rcl2-esl100-rsm0-rcm11-esm310-rsr0-rcr2-esr29.npz,,,,,0,24,24,580,,left,green,2.85,301.53099298477173,302.0634701251984,,1,,2,5,lightness,readingArea,realistic,75,2023-03-21_10h03.48.110,tripletExp_regina_11082022,2022.2.4,120.44567989156656,
12,10,6,0,0.027777777777778,3.10526315789474,0,0.694444444444444,1.0,0,0.027777777777778,1.0,ReadingArea_rsl0-rcl2-esl310-rsm0-rcm69-esm100-rsr0-rcr2-esr100,exr/ReadingArea_rsl0-rcl2-esl310-rsm0-rcm69-esm100-rsr0-rcr2-esr100.exr,ReadingArea_rsl0-rcl2-esl310-rsm0-rcm69-esm100-rsr0-rcr2-esr100.npz,,,,,0,25,25,273,,left,green,3.22,305.5394010543823,305.98083996772766,,1,,2,5,lightness,readingArea,realistic,75,2023-03-21_10h03.48.110,tripletExp_regina_11082022,2022.2.4,120.44567989156656,
10,4,8,0,0.694444444444444,1.0,0,0.694444444444444,0.298245614035088,0,0.25,1.0,ReadingArea_rsl0-rcl69-esl100-rsm0-rcm69-esm29-rsr0-rcr25-esr100,exr/ReadingArea_rsl0-rcl69-esl100-rsm0-rcm69-esm29-rsr0-rcr25-esr100.exr,ReadingArea_rsl0-rcl69-esl100-rsm0-rcm69-esm29-rsr0-rcr25-esr100.npz,,,,,0,26,26,562,,right,red,2.89,309.47603392601013,309.9153039455414,,1,,2,5,lightness,readingArea,realistic,75,2023-03-21_10h03.48.110,tripletExp_regina_11082022,2022.2.4,120.44567989156656,
8,1,10,0,0.25,1.0,0,0.111111111111111,0.298245614035088,0,0.694444444444444,1.0,ReadingArea_rsl0-rcl25-esl100-rsm0-rcm11-esm29-rsr0-rcr69-esr100,exr/ReadingArea_rsl0-rcl25-esl100-rsm0-rcm11-esm29-rsr0-rcr69-esr100.exr,ReadingArea_rsl0-rcl25-esl100-rsm0-rcm11-esm29-rsr0-rcr69-esr100.npz,,,,,0,27,27,442,,left,green,2.87,313.3996160030365,313.975399017334,,1,,2,5,lightness,readingArea,realistic,75,2023-03-21_10h03.48.110,tripletExp_regina_11082022,2022.2.4,120.44567989156656,
2,4,10,0,0.25,0.298245614035088,0,0.694444444444444,0.298245614035088,0,0.694444444444444,1.0,ReadingArea_rsl0-rcl25-esl29-rsm0-rcm69-esm29-rsr0-rcr69-esr100,exr/ReadingArea_rsl0-rcl25-esl29-rsm0-rcm69-esm29-rsr0-rcr69-esr100.exr,ReadingArea_rsl0-rcl25-esl29-rsm0-rcm69-esm29-rsr0-rcr69-esr100.npz,,,,,0,28,28,174,,left,green,3.1,317.4257049560547,317.8876359462738,,1,,2,5,lightness,readingArea,realistic,75,2023-03-21_10h03.48.110,tripletExp_regina_11082022,2022.2.4,120.44567989156656,
1,8,5,0,0.111111111111111,0.298245614035088,0,0.25,1.0,0,1.0,0.298245614035088,ReadingArea_rsl0-rcl11-esl29-rsm0-rcm25-esm100-rsr0-rcr100-esr29,exr/ReadingArea_rsl0-rcl11-esl29-rsm0-rcm25-esm100-rsr0-rcr100-esr29.exr,ReadingArea_rsl0-rcl11-esl29-rsm0-rcm25-esm100-rsr0-rcr100-esr29.npz,,,,,0,29,29,445,,right,red,4.24,323.11759209632874,323.68024802207947,,1,,2,5,lightness,readingArea,realistic,75,2023-03-21_10h03.48.110,tripletExp_regina_11082022,2022.2.4,120.44567989156656,
1,5,13,0,0.111111111111111,0.298245614035088,0,1.0,0.298245614035088,0,0.111111111111111,3.10526315789474,ReadingArea_rsl0-rcl11-esl29-rsm0-rcm100-esm29-rsr0-rcr11-esr310,exr/ReadingArea_rsl0-rcl11-esl29-rsm0-rcm100-esm29-rsr0-rcr11-esr310.exr,ReadingArea_rsl0-rcl11-esl29-rsm0-rcm100-esm29-rsr0-rcr11-esr310.npz,,,,,0,30,30,598,,right,red,1.22,325.3685760498047,325.83037400245667,,1,,2,5,lightness,readingArea,realistic,75,2023-03-21_10h03.48.110,tripletExp_regina_11082022,2022.2.4,120.44567989156656,
8,9,6,0,0.25,1.0,0,0.444444444444444,1.0,0,0.027777777777778,1.0,ReadingArea_rsl0-rcl25-esl100-rsm0-rcm44-esm100-rsr0-rcr2-esr100,exr/ReadingArea_rsl0-rcl25-esl100-rsm0-rcm44-esm100-rsr0-rcr2-esr100.exr,ReadingArea_rsl0-rcl25-esl100-rsm0-rcm44-esm100-rsr0-rcr2-esr100.npz,,,,,0,31,31,3,,left,green,2.79,329.30803894996643,,,1,,2,5,lightness,readingArea,realistic,75,2023-03-21_10h03.48.110,tripletExp_regina_11082022,2022.2.4,120.44567989156656,
7,8,6,0,0.111111111111111,1.0,0,0.25,1.0,0,0.027777777777778,1.0,ReadingArea_rsl0-rcl11-esl100-rsm0-rcm25-esm100-rsr0-rcr2-esr100,exr/ReadingArea_rsl0-rcl11-esl100-rsm0-rcm25-esm100-rsr0-rcr2-esr100.exr,ReadingArea_rsl0-rcl11-esl100-rsm0-rcm25-esm100-rsr0-rcr2-esr100.npz,,,,,0,32,32,387,,left,green,1.06,331.5019950866699,332.1214621067047,,1,,2,5,lightness,readingArea,realistic,75,2023-03-21_10h03.48.110,tripletExp_regina_11082022,2022.2.4,120.44567989156656,
1,9,11,0,0.111111111111111,0.298245614035088,0,0.444444444444444,1.0,0,1.0,1.0,ReadingArea_rsl0-rcl11-esl29-rsm0-rcm44-esm100-rsr0-rcr100-esr100,exr/ReadingArea_rsl0-rcl11-esl29-rsm0-rcm44-esm100-rsr0-rcr100-esr100.exr,ReadingArea_rsl0-rcl11-esl29-rsm0-rcm44-esm100-rsr0-rcr100-esr100.npz,,,,,0,33,33,215,,right,red,3.08,335.5794680118561,336.02524304389954,,1,,2,5,lightness,readingArea,realistic,75,2023-03-21_10h03.48.110,tripletExp_regina_11082022,2022.2.4,120.44567989156656,
4,14,1,0,0.694444444444444,0.298245614035088,0,0.25,3.10526315789474,0,0.111111111111111,0.298245614035088,ReadingArea_rsl0-rcl69-esl29-rsm0-rcm25-esm310-rsr0-rcr11-esr29,exr/ReadingArea_rsl0-rcl69-esl29-rsm0-rcm25-esm310-rsr0-rcr11-esr29.exr,ReadingArea_rsl0-rcl69-esl29-rsm0-rcm25-esm310-rsr0-rcr11-esr29.npz,,,,,0,34,34,477,,left,green,1.09,337.7230279445648,338.1555061340332,,1,,2,5,lightness,readingArea,realistic,75,2023-03-21_10h03.48.110,tripletExp_regina_11082022,2022.2.4,120.44567989156656,
1,13,8,0,0.111111111111111,0.298245614035088,0,0.111111111111111,3.10526315789474,0,0.25,1.0,ReadingArea_rsl0-rcl11-esl29-rsm0-rcm11-esm310-rsr0-rcr25-esr100,exr/ReadingArea_rsl0-rcl11-esl29-rsm0-rcm11-esm310-rsr0-rcr25-esr100.exr,ReadingArea_rsl0-rcl11-esl29-rsm0-rcm11-esm310-rsr0-rcr25-esr100.npz,,,,,0,35,35,64,,right,red,0.94,339.8512029647827,340.2876501083374,,1,,2,5,lightness,readingArea,realistic,75,2023-03-21_10h03.48.110,tripletExp_regina_11082022,2022.2.4,120.44567989156656,
2,6,0,0,0.25,0.298245614035088,0,0.027777777777778,1.0,0,0.027777777777778,0.298245614035088,ReadingArea_rsl0-rcl25-esl29-rsm0-rcm2-esm100-rsr0-rcr2-esr29,exr/ReadingArea_rsl0-rcl25-esl29-rsm0-rcm2-esm100-rsr0-rcr2-esr29.exr,ReadingArea_rsl0-rcl25-esl29-rsm0-rcm2-esm100-rsr0-rcr2-esr29.npz,,,,,0,36,36,525,,right,red,1.18,342.005243062973,342.4239039421081,,1,,2,5,lightness,readingArea,realistic,75,2023-03-21_10h03.48.110,tripletExp_regina_11082022,2022.2.4,120.44567989156656,
4,3,11,0,0.694444444444444,0.298245614035088,0,0.444444444444444,0.298245614035088,0,1.0,1.0,ReadingArea_rsl0-rcl69-esl29-rsm0-rcm44-esm29-rsr0-rcr100-esr100,exr/ReadingArea_rsl0-rcl69-esl29-rsm0-rcm44-esm29-rsr0-rcr100-esr100.exr,ReadingArea_rsl0-rcl69-esl29-rsm0-rcm44-esm29-rsr0-rcr100-esr100.npz,,,,,0,37,37,439,,left,green,1.32,344.13934993743896,344.77221512794495,,1,,2,5,lightness,readingArea,realistic,75,2023-03-21_10h03.48.110,tripletExp_regina_11082022,2022.2.4,120.44567989156656,
11,4,0,0,1.0,1.0,0,0.694444444444444,0.298245614035088,0,0.027777777777778,0.298245614035088,ReadingArea_rsl0-rcl100-esl100-rsm0-rcm69-esm29-rsr0-rcr2-esr29,exr/ReadingArea_rsl0-rcl100-esl100-rsm0-rcm69-esm29-rsr0-rcr2-esr29.exr,ReadingArea_rsl0-rcl100-esl100-rsm0-rcm69-esm29-rsr0-rcr2-esr29.npz,,,,,0,38,38,219,,left,green,3.34,348.2354099750519,348.678827047348,,1,,2,5,lightness,readingArea,realistic,75,2023-03-21_10h03.48.110,tripletExp_regina_11082022,2022.2.4,120.44567989156656,
3,4,0,0,0.444444444444444,0.298245614035088,0,0.694444444444444,0.298245614035088,0,0.027777777777778,0.298245614035088,ReadingArea_rsl0-rcl44-esl29-rsm0-rcm69-esm29-rsr0-rcr2-esr29,exr/ReadingArea_rsl0-rcl44-esl29-rsm0-rcm69-esm29-rsr0-rcr2-esr29.exr,ReadingArea_rsl0-rcl44-esl29-rsm0-rcm69-esm29-rsr0-rcr2-esr29.npz,,,,,0,39,39,130,,left,green,1.13,350.38320899009705,350.8134479522705,,1,,2,5,lightness,readingArea,realistic,75,2023-03-21_10h03.48.110,tripletExp_regina_11082022,2022.2.4,120.44567989156656,
2,13,3,0,0.25,0.298245614035088,0,0.111111111111111,3.10526315789474,0,0.444444444444444,0.298245614035088,ReadingArea_rsl0-rcl25-esl29-rsm0-rcm11-esm310-rsr0-rcr44-esr29,exr/ReadingArea_rsl0-rcl25-esl29-rsm0-rcm11-esm310-rsr0-rcr44-esr29.exr,ReadingArea_rsl0-rcl25-esl29-rsm0-rcm11-esm310-rsr0-rcr44-esr29.npz,,,,,0,40,40,473,,left,green,3.94,356.0594959259033,356.5096061229706,,1,,2,5,lightness,readingArea,realistic,75,2023-03-21_10h03.48.110,tripletExp_regina_11082022,2022.2.4,120.44567989156656,
14,0,5,0,0.25,3.10526315789474,0,0.027777777777778,0.298245614035088,0,1.0,0.298245614035088,ReadingArea_rsl0-rcl25-esl310-rsm0-rcm2-esm29-rsr0-rcr100-esr29,exr/ReadingArea_rsl0-rcl25-esl310-rsm0-rcm2-esm29-rsr0-rcr100-esr29.exr,ReadingArea_rsl0-rcl25-esl310-rsm0-rcm2-esm29-rsr0-rcr100-esr29.npz,,,,,0,41,41,418,,right,red,2.7,359.9636039733887,,,1,,2,5,lightness,readingArea,realistic,75,2023-03-21_10h03.48.110,tripletExp_regina_11082022,2022.2.4,120.44567989156656,
0,8,12,0,0.027777777777778,0.298245614035088,0,0.25,1.0,0,0.027777777777778,3.10526315789474,ReadingArea_rsl0-rcl2-esl29-rsm0-rcm25-esm100-rsr0-rcr2-esr310,exr/ReadingArea_rsl0-rcl2-esl29-rsm0-rcm25-esm100-rsr0-rcr2-esr310.exr,ReadingArea_rsl0-rcl2-esl29-rsm0-rcm25-esm100-rsr0-rcr2-esr310.npz,,,,,0,42,42,314,,left,green,3.73,363.9904749393463,364.4239640235901,,1,,2,5,lightness,readingArea,realistic,75,2023-03-21_10h03.48.110,tripletExp_regina_11082022,2022.2.4,120.44567989156656,
5,13,12,0,1.0,0.298245614035088,0,0.111111111111111,3.10526315789474,0,0.027777777777778,3.10526315789474,ReadingArea_rsl0-rcl100-esl29-rsm0-rcm11-esm310-rsr0-rcr2-esr310,exr/ReadingArea_rsl0-rcl100-esl29-rsm0-rcm11-esm310-rsr0-rcr2-esr310.exr,ReadingArea_rsl0-rcl100-esl29-rsm0-rcm11-esm310-rsr0-rcr2-esr310.npz,,,,,0,43,43,389,,left,green,2.8,367.87776708602905,368.3559899330139,,1,,2,5,lightness,readingArea,realistic,75,2023-03-21_10h03.48.110,tripletExp_regina_11082022,2022.2.4,120.44567989156656,
0,7,13,0,0.027777777777778,0.298245614035088,0,0.111111111111111,1.0,0,0.111111111111111,3.10526315789474,ReadingArea_rsl0-rcl2-esl29-rsm0-rcm11-esm100-rsr0-rcr11-esr310,exr/ReadingArea_rsl0-rcl2-esl29-rsm0-rcm11-esm100-rsr0-rcr11-esr310.exr,ReadingArea_rsl0-rcl2-esl29-rsm0-rcm11-esm100-rsr0-rcr11-esr310.npz,,,,,0,44,44,159,,right,red,1.97,371.8118641376496,372.2577509880066,,1,,2,5,lightness,readingArea,realistic,75,2023-03-21_10h03.48.110,tripletExp_regina_11082022,2022.2.4,120.44567989156656,
14,9,0,0,0.25,3.10526315789474,0,0.444444444444444,1.0,0,0.027777777777778,0.298245614035088,ReadingArea_rsl0-rcl25-esl310-rsm0-rcm44-esm100-rsr0-rcr2-esr29,exr/ReadingArea_rsl0-rcl25-esl310-rsm0-rcm44-esm100-rsr0-rcr2-esr29.exr,ReadingArea_rsl0-rcl25-esl310-rsm0-rcm44-esm100-rsr0-rcr2-esr29.npz,,,,,0,45,45,313,,left,green,1.12,373.9543480873108,374.4243030548096,,1,,2,5,lightness,readingArea,realistic,75,2023-03-21_10h03.48.110,tripletExp_regina_11082022,2022.2.4,120.44567989156656,
0,10,14,0,0.027777777777778,0.298245614035088,0,0.694444444444444,1.0,0,0.25,3.10526315789474,ReadingArea_rsl0-rcl2-esl29-rsm0-rcm69-esm100-rsr0-rcr25-esr310,exr/ReadingArea_rsl0-rcl2-esl29-rsm0-rcm69-esm100-rsr0-rcr25-esr310.exr,ReadingArea_rsl0-rcl2-esl29-rsm0-rcm69-esm100-rsr0-rcr25-esr310.npz,,,,,0,46,46,31,,right,red,1.13,376.1373119354248,376.5514221191406,,1,,2,5,lightness,readingArea,realistic,75,2023-03-21_10h03.48.110,tripletExp_regina_11082022,2022.2.4,120.44567989156656,
11,3,12,0,1.0,1.0,0,0.444444444444444,0.298245614035088,0,0.027777777777778,3.10526315789474,ReadingArea_rsl0-rcl100-esl100-rsm0-rcm44-esm29-rsr0-rcr2-esr310,exr/ReadingArea_rsl0-rcl100-esl100-rsm0-rcm44-esm29-rsr0-rcr2-esr310.exr,ReadingArea_rsl0-rcl100-esl100-rsm0-rcm44-esm29-rsr0-rcr2-esr310.npz,,,,,0,47,47,355,,right,red,1.48,378.2510650157929,378.7442400455475,,1,,2,5,lightness,readingArea,realistic,75,2023-03-21_10h03.48.110,tripletExp_regina_11082022,2022.2.4,120.44567989156656,
13,1,4,0,0.111111111111111,3.10526315789474,0,0.111111111111111,0.298245614035088,0,0.694444444444444,0.298245614035088,ReadingArea_rsl0-rcl11-esl310-rsm0-rcm11-esm29-rsr0-rcr69-esr29,exr/ReadingArea_rsl0-rcl11-esl310-rsm0-rcm11-esm29-rsr0-rcr69-esr29.exr,ReadingArea_rsl0-rcl11-esl310-rsm0-rcm11-esm29-rsr0-rcr69-esr29.npz,,,,,0,48,48,396,,left,green,4.85,383.98920702934265,384.4520540237427,,1,,2,5,lightness,readingArea,realistic,75,2023-03-21_10h03.48.110,tripletExp_regina_11082022,2022.2.4,120.44567989156656,
0,9,10,0,0.027777777777778,0.298245614035088,0,0.444444444444444,1.0,0,0.694444444444444,1.0,ReadingArea_rsl0-rcl2-esl29-rsm0-rcm44-esm100-rsr0-rcr69-esr100,exr/ReadingArea_rsl0-rcl2-esl29-rsm0-rcm44-esm100-rsr0-rcr69-esr100.exr,ReadingArea_rsl0-rcl2-esl29-rsm0-rcm44-esm100-rsr0-rcr69-esr100.npz,,,,,0,49,49,434,,right,red,1.55,386.16921210289,386.6273369789124,,1,,2,5,lightness,readingArea,realistic,75,2023-03-21_10h03.48.110,tripletExp_regina_11082022,2022.2.4,120.44567989156656,
4,12,7,0,0.694444444444444,0.298245614035088,0,0.027777777777778,3.10526315789474,0,0.111111111111111,1.0,ReadingArea_rsl0-rcl69-esl29-rsm0-rcm2-esm310-rsr0-rcr11-esr100,exr/ReadingArea_rsl0-rcl69-esl29-rsm0-rcm2-esm310-rsr0-rcr11-esr100.exr,ReadingArea_rsl0-rcl69-esl29-rsm0-rcm2-esm310-rsr0-rcr11-esr100.npz,,,,,0,50,50,112,,right,red,1.14,388.3486721515656,388.794958114624,,1,,2,5,lightness,readingArea,realistic,75,2023-03-21_10h03.48.110,tripletExp_regina_11082022,2022.2.4,120.44567989156656,
5,12,7,0,1.0,0.298245614035088,0,0.027777777777778,3.10526315789474,0,0.111111111111111,1.0,ReadingArea_rsl0-rcl100-esl29-rsm0-rcm2-esm310-rsr0-rcr11-esr100,exr/ReadingArea_rsl0-rcl100-esl29-rsm0-rcm2-esm310-rsr0-rcr11-esr100.exr,ReadingArea_rsl0-rcl100-esl29-rsm0-rcm2-esm310-rsr0-rcr11-esr100.npz,,,,,0,51,51,447,,right,red,0.81,390.51905703544617,391.05336713790894,,1,,2,5,lightness,readingArea,realistic,75,2023-03-21_10h03.48.110,tripletExp_regina_11082022,2022.2.4,120.44567989156656,
2,8,11,0,0.25,0.298245614035088,0,0.25,1.0,0,1.0,1.0,ReadingArea_rsl0-rcl25-esl29-rsm0-rcm25-esm100-rsr0-rcr100-esr100,exr/ReadingArea_rsl0-rcl25-esl29-rsm0-rcm25-esm100-rsr0-rcr100-esr100.exr,ReadingArea_rsl0-rcl25-esl29-rsm0-rcm25-esm100-rsr0-rcr100-esr100.npz,,,,,0,52,52,225,,left,green,1.31,392.75062108039856,393.20020604133606,,1,,2,5,lightness,readingArea,realistic,75,2023-03-21_10h03.48.110,tripletExp_regina_11082022,2022.2.4,120.44567989156656,
12,7,9,0,0.027777777777778,3.10526315789474,0,0.111111111111111,1.0,0,0.444444444444444,1.0,ReadingArea_rsl0-rcl2-esl310-rsm0-rcm11-esm100-rsr0-rcr44-esr100,exr/ReadingArea_rsl0-rcl2-esl310-rsm0-rcm11-esm100-rsr0-rcr44-esr100.exr,ReadingArea_rsl0-rcl2-esl310-rsm0-rcm11-esm100-rsr0-rcr44-esr100.npz,,,,,0,53,53,124,,left,green,1.15,394.8930909633637,395.3519620895386,,1,,2,5,lightness,readingArea,realistic,75,2023-03-21_10h03.48.110,tripletExp_regina_11082022,2022.2.4,120.44567989156656,
11,6,14,0,1.0,1.0,0,0.027777777777778,1.0,0,0.25,3.10526315789474,ReadingArea_rsl0-rcl100-esl100-rsm0-rcm2-esm100-rsr0-rcr25-esr310,exr/ReadingArea_rsl0-rcl100-esl100-rsm0-rcm2-esm100-rsr0-rcr25-esr310.exr,ReadingArea_rsl0-rcl100-esl100-rsm0-rcm2-esm100-rsr0-rcr25-esr310.npz,,,,,0,54,54,305,,right,red,1.37,397.03994512557983,397.4635241031647,,1,,2,5,lightness,readingArea,realistic,75,2023-03-21_10h03.48.110,tripletExp_regina_11082022,2022.2.4,120.44567989156656,
3,5,7,0,0.444444444444444,0.298245614035088,0,1.0,0.298245614035088,0,0.111111111111111,1.0,ReadingArea_rsl0-rcl44-esl29-rsm0-rcm100-esm29-rsr0-rcr11-esr100,exr/ReadingArea_rsl0-rcl44-esl29-rsm0-rcm100-esm29-rsr0-rcr11-esr100.exr,ReadingArea_rsl0-rcl44-esl29-rsm0-rcm100-esm29-rsr0-rcr11-esr100.npz,,,,,0,55,55,474,,left,green,1.77,399.1638150215149,399.6092600822449,,1,,2,5,lightness,readingArea,realistic,75,2023-03-21_10h03.48.110,tripletExp_regina_11082022,2022.2.4,120.44567989156656,
4,10,9,0,0.694444444444444,0.298245614035088,0,0.694444444444444,1.0,0,0.444444444444444,1.0,ReadingArea_rsl0-rcl69-esl29-rsm0-rcm69-esm100-rsr0-rcr44-esr100,exr/ReadingArea_rsl0-rcl69-esl29-rsm0-rcm69-esm100-rsr0-rcr44-esr100.exr,ReadingArea_rsl0-rcl69-esl29-rsm0-rcm69-esm100-rsr0-rcr44-esr100.npz,,,,,0,56,56,516,,right,red,1.61,401.3256950378418,401.7624161243439,,1,,2,5,lightness,readingArea,realistic,75,2023-03-21_10h03.48.110,tripletExp_regina_11082022,2022.2.4,120.44567989156656,
11,12,10,0,1.0,1.0,0,0.027777777777778,3.10526315789474,0,0.694444444444444,1.0,ReadingArea_rsl0-rcl100-esl100-rsm0-rcm2-esm310-rsr0-rcr69-esr100,exr/ReadingArea_rsl0-rcl100-esl100-rsm0-rcm2-esm310-rsr0-rcr69-esr100.exr,ReadingArea_rsl0-rcl100-esl100-rsm0-rcm2-esm310-rsr0-rcr69-esr100.npz,,,,,0,57,57,465,,right,red,1.67,403.4742429256439,403.92795610427856,,1,,2,5,lightness,readingArea,realistic,75,2023-03-21_10h03.48.110,tripletExp_regina_11082022,2022.2.4,120.44567989156656,
9,8,0,0,0.444444444444444,1.0,0,0.25,1.0,0,0.027777777777778,0.298245614035088,ReadingArea_rsl0-rcl44-esl100-rsm0-rcm25-esm100-rsr0-rcr2-esr29,exr/ReadingArea_rsl0-rcl44-esl100-rsm0-rcm25-esm100-rsr0-rcr2-esr29.exr,ReadingArea_rsl0-rcl44-esl100-rsm0-rcm25-esm100-rsr0-rcr2-esr29.npz,,,,,0,58,58,66,,left,green,1.43,405.6312551498413,406.0988209247589,,1,,2,5,lightness,readingArea,realistic,75,2023-03-21_10h03.48.110,tripletExp_regina_11082022,2022.2.4,120.44567989156656,
0,14,6,0,0.027777777777778,0.298245614035088,0,0.25,3.10526315789474,0,0.027777777777778,1.0,ReadingArea_rsl0-rcl2-esl29-rsm0-rcm25-esm310-rsr0-rcr2-esr100,exr/ReadingArea_rsl0-rcl2-esl29-rsm0-rcm25-esm310-rsr0-rcr2-esr100.exr,ReadingArea_rsl0-rcl2-esl29-rsm0-rcm25-esm310-rsr0-rcr2-esr100.npz,,,,,0,59,59,499,,right,red,1.65,407.7891900539398,408.2312760353088,,1,,2,5,lightness,readingArea,realistic,75,2023-03-21_10h03.48.110,tripletExp_regina_11082022,2022.2.4,120.44567989156656,
5,0,10,0,1.0,0.298245614035088,0,0.027777777777778,0.298245614035088,0,0.694444444444444,1.0,ReadingArea_rsl0-rcl100-esl29-rsm0-rcm2-esm29-rsr0-rcr69-esr100,exr/ReadingArea_rsl0-rcl100-esl29-rsm0-rcm2-esm29-rsr0-rcr69-esr100.exr,ReadingArea_rsl0-rcl100-esl29-rsm0-rcm2-esm29-rsr0-rcr69-esr100.npz,,,,,0,60,60,361,,left,green,3.41,411.711503982544,412.144259929657,,1,,2,5,lightness,readingArea,realistic,75,2023-03-21_10h03.48.110,tripletExp_regina_11082022,2022.2.4,120.44567989156656,
9,11,13,0,0.444444444444444,1.0,0,1.0,1.0,0,0.111111111111111,3.10526315789474,ReadingArea_rsl0-rcl44-esl100-rsm0-rcm100-esm100-rsr0-rcr11-esr310,exr/ReadingArea_rsl0-rcl44-esl100-rsm0-rcm100-esm100-rsr0-rcr11-esr310.exr,ReadingArea_rsl0-rcl44-esl100-rsm0-rcm100-esm100-rsr0-rcr11-esr310.npz,,,,,0,61,61,254,,left,green,2.19,415.6103191375733,416.11619806289673,,1,,2,5,lightness,readingArea,realistic,75,2023-03-21_10h03.48.110,tripletExp_regina_11082022,2022.2.4,120.44567989156656,
2,11,14,0,0.25,0.298245614035088,0,1.0,1.0,0,0.25,3.10526315789474,ReadingArea_rsl0-rcl25-esl29-rsm0-rcm100-esm100-rsr0-rcr25-esr310,exr/ReadingArea_rsl0-rcl25-esl29-rsm0-rcm100-esm100-rsr0-rcr25-esr310.exr,ReadingArea_rsl0-rcl25-esl29-rsm0-rcm100-esm100-rsr0-rcr25-esr310.npz,,,,,0,62,62,534,,right,red,2.64,419.58433508872986,420.007453918457,,1,,2,5,lightness,readingArea,realistic,75,2023-03-21_10h03.48.110,tripletExp_regina_11082022,2022.2.4,120.44567989156656,
11,7,14,0,1.0,1.0,0,0.111111111111111,1.0,0,0.25,3.10526315789474,ReadingArea_rsl0-rcl100-esl100-rsm0-rcm11-esm100-rsr0-rcr25-esr310,exr/ReadingArea_rsl0-rcl100-esl100-rsm0-rcm11-esm100-rsr0-rcr25-esr310.exr,ReadingArea_rsl0-rcl100-esl100-rsm0-rcm11-esm100-rsr0-rcr25-esr310.npz,,,,,0,63,63,119,,right,red,1.82,421.69890904426575,422.2061519622803,,1,,2,5,lightness,readingArea,realistic,75,2023-03-21_10h03.48.110,tripletExp_regina_11082022,2022.2.4,120.44567989156656,
1,5,7,0,0.111111111111111,0.298245614035088,0,1.0,0.298245614035088,0,0.111111111111111,1.0,ReadingArea_rsl0-rcl11-esl29-rsm0-rcm100-esm29-rsr0-rcr11-esr100,exr/ReadingArea_rsl0-rcl11-esl29-rsm0-rcm100-esm29-rsr0-rcr11-esr100.exr,ReadingArea_rsl0-rcl11-esl29-rsm0-rcm100-esm29-rsr0-rcr11-esr100.npz,,,,,0,64,64,197,,right,red,2.61,425.6739721298218,426.14402508735657,,1,,2,5,lightness,readingArea,realistic,75,2023-03-21_10h03.48.110,tripletExp_regina_11082022,2022.2.4,120.44567989156656,
7,2,6,0,0.111111111111111,1.0,0,0.25,0.298245614035088,0,0.027777777777778,1.0,ReadingArea_rsl0-rcl11-esl100-rsm0-rcm25-esm29-rsr0-rcr2-esr100,exr/ReadingArea_rsl0-rcl11-esl100-rsm0-rcm25-esm29-rsr0-rcr2-esr100.exr,ReadingArea_rsl0-rcl11-esl100-rsm0-rcm25-esm29-rsr0-rcr2-esr100.npz,,,,,0,65,65,506,,left,green,1.59,427.84528708457947,428.4687559604645,,1,,2,5,lightness,readingArea,realistic,75,2023-03-21_10h03.48.110,tripletExp_regina_11082022,2022.2.4,120.44567989156656,
10,8,11,0,0.694444444444444,1.0,0,0.25,1.0,0,1.0,1.0,ReadingArea_rsl0-rcl69-esl100-rsm0-rcm25-esm100-rsr0-rcr100-esr100,exr/ReadingArea_rsl0-rcl69-esl100-rsm0-rcm25-esm100-rsr0-rcr100-esr100.exr,ReadingArea_rsl0-rcl69-esl100-rsm0-rcm25-esm100-rsr0-rcr100-esr100.npz,,,,,0,66,66,578,,left,green,3.0,431.9451460838318,432.3867390155792,,1,,2,5,lightness,readingArea,realistic,75,2023-03-21_10h03.48.110,tripletExp_regina_11082022,2022.2.4,120.44567989156656,
1,11,14,0,0.111111111111111,0.298245614035088,0,1.0,1.0,0,0.25,3.10526315789474,ReadingArea_rsl0-rcl11-esl29-rsm0-rcm100-esm100-rsr0-rcr25-esr310,exr/ReadingArea_rsl0-rcl11-esl29-rsm0-rcm100-esm100-rsr0-rcr25-esr310.exr,ReadingArea_rsl0-rcl11-esl29-rsm0-rcm100-esm100-rsr0-rcr25-esr310.npz,,,,,0,67,67,399,,right,red,2.81,435.8410661220551,436.28747510910034,,1,,2,5,lightness,readingArea,realistic,75,2023-03-21_10h03.48.110,tripletExp_regina_11082022,2022.2.4,120.44567989156656,
10,3,11,0,0.694444444444444,1.0,0,0.444444444444444,0.298245614035088,0,1.0,1.0,ReadingArea_rsl0-rcl69-esl100-rsm0-rcm44-esm29-rsr0-rcr100-esr100,exr/ReadingArea_rsl0-rcl69-esl100-rsm0-rcm44-esm29-rsr0-rcr100-esr100.exr,ReadingArea_rsl0-rcl69-esl100-rsm0-rcm44-esm29-rsr0-rcr100-esr100.npz,,,,,0,68,68,485,,left,green,4.04,441.5088751316071,,,1,,2,5,lightness,readingArea,realistic,75,2023-03-21_10h03.48.110,tripletExp_regina_11082022,2022.2.4,120.44567989156656,
12,9,11,0,0.027777777777778,3.10526315789474,0,0.444444444444444,1.0,0,1.0,1.0,ReadingArea_rsl0-rcl2-esl310-rsm0-rcm44-esm100-rsr0-rcr100-esr100,exr/ReadingArea_rsl0-rcl2-esl310-rsm0-rcm44-esm100-rsr0-rcr100-esr100.exr,ReadingArea_rsl0-rcl2-esl310-rsm0-rcm44-esm100-rsr0-rcr100-esr100.npz,,,,,0,69,69,18,,left,green,3.34,445.442372083664,445.8916900157929,,1,,2,5,lightness,readingArea,realistic,75,2023-03-21_10h03.48.110,tripletExp_regina_11082022,2022.2.4,120.44567989156656,
1,12,11,0,0.111111111111111,0.298245614035088,0,0.027777777777778,3.10526315789474,0,1.0,1.0,ReadingArea_rsl0-rcl11-esl29-rsm0-rcm2-esm310-rsr0-rcr100-esr100,exr/ReadingArea_rsl0-rcl11-esl29-rsm0-rcm2-esm310-rsr0-rcr100-esr100.exr,ReadingArea_rsl0-rcl11-esl29-rsm0-rcm2-esm310-rsr0-rcr100-esr100.npz,,,,,0,70,70,178,,left,green,1.19,447.58855509758,448.0642719268799,,1,,2,5,lightness,readingArea,realistic,75,2023-03-21_10h03.48.110,tripletExp_regina_11082022,2022.2.4,120.44567989156656,
14,12,9,0,0.25,3.10526315789474,0,0.027777777777778,3.10526315789474,0,0.444444444444444,1.0,ReadingArea_rsl0-rcl25-esl310-rsm0-rcm2-esm310-rsr0-rcr44-esr100,exr/ReadingArea_rsl0-rcl25-esl310-rsm0-rcm2-esm310-rsr0-rcr44-esr100.exr,ReadingArea_rsl0-rcl25-esl310-rsm0-rcm2-esm310-rsr0-rcr44-esr100.npz,,,,,0,71,71,40,,right,red,3.17,451.54970693588257,451.9857199192047,,1,,2,5,lightness,readingArea,realistic,75,2023-03-21_10h03.48.110,tripletExp_regina_11082022,2022.2.4,120.44567989156656,
10,13,6,0,0.694444444444444,1.0,0,0.111111111111111,3.10526315789474,0,0.027777777777778,1.0,ReadingArea_rsl0-rcl69-esl100-rsm0-rcm11-esm310-rsr0-rcr2-esr100,exr/ReadingArea_rsl0-rcl69-esl100-rsm0-rcm11-esm310-rsr0-rcr2-esr100.exr,ReadingArea_rsl0-rcl69-esl100-rsm0-rcm11-esm310-rsr0-rcr2-esr100.npz,,,,,0,72,72,351,,right,red,1.33,453.6810390949249,454.1374459266663,,1,,2,5,lightness,readingArea,realistic,75,2023-03-21_10h03.48.110,tripletExp_regina_11082022,2022.2.4,120.44567989156656,
5,8,7,0,1.0,0.298245614035088,0,0.25,1.0,0,0.111111111111111,1.0,ReadingArea_rsl0-rcl100-esl29-rsm0-rcm25-esm100-rsr0-rcr11-esr100,exr/ReadingArea_rsl0-rcl100-esl29-rsm0-rcm25-esm100-rsr0-rcr11-esr100.exr,ReadingArea_rsl0-rcl100-esl29-rsm0-rcm25-esm100-rsr0-rcr11-esr100.npz,,,,,0,73,73,36,,right,red,1.6,455.8563179969788,456.3904790878296,,1,,2,5,lightness,readingArea,realistic,75,2023-03-21_10h03.48.110,tripletExp_regina_11082022,2022.2.4,120.44567989156656,
12,10,9,0,0.027777777777778,3.10526315789474,0,0.694444444444444,1.0,0,0.444444444444444,1.0,ReadingArea_rsl0-rcl2-esl310-rsm0-rcm69-esm100-rsr0-rcr44-esr100,exr/ReadingArea_rsl0-rcl2-esl310-rsm0-rcm69-esm100-rsr0-rcr44-esr100.exr,ReadingArea_rsl0-rcl2-esl310-rsm0-rcm69-esm100-rsr0-rcr44-esr100.npz,,,,,0,74,74,126,,right,red,2.36,459.87281012535095,460.07750391960144,,1,,2,5,lightness,readingArea,realistic,75,2023-03-21_10h03.48.110,tripletExp_regina_11082022,2022.2.4,120.44567989156656,
9,6,11,0,0.444444444444444,1.0,0,0.027777777777778,1.0,0,1.0,1.0,ReadingArea_rsl0-rcl44-esl100-rsm0-rcm2-esm100-rsr0-rcr100-esr100,exr/ReadingArea_rsl0-rcl44-esl100-rsm0-rcm2-esm100-rsr0-rcr100-esr100.exr,ReadingArea_rsl0-rcl44-esl100-rsm0-rcm2-esm100-rsr0-rcr100-esr100.npz,,,,,0,75,75,572,,left,green,2.48,465.57746601104736,466.0698311328888,,2,,2,5,lightness,readingArea,realistic,75,2023-03-21_10h03.48.110,tripletExp_regina_11082022,2022.2.4,120.44567989156656,
6,9,5,0,0.027777777777778,1.0,0,0.444444444444444,1.0,0,1.0,0.298245614035088,ReadingArea_rsl0-rcl2-esl100-rsm0-rcm44-esm100-rsr0-rcr100-esr29,exr/ReadingArea_rsl0-rcl2-esl100-rsm0-rcm44-esm100-rsr0-rcr100-esr29.exr,ReadingArea_rsl0-rcl2-esl100-rsm0-rcm44-esm100-rsr0-rcr100-esr29.npz,,,,,0,76,76,29,,right,red,1.31,467.7722370624542,468.24130606651306,,2,,2,5,lightness,readingArea,realistic,75,2023-03-21_10h03.48.110,tripletExp_regina_11082022,2022.2.4,120.44567989156656,
10,2,0,0,0.694444444444444,1.0,0,0.25,0.298245614035088,0,0.027777777777778,0.298245614035088,ReadingArea_rsl0-rcl69-esl100-rsm0-rcm25-esm29-rsr0-rcr2-esr29,exr/ReadingArea_rsl0-rcl69-esl100-rsm0-rcm25-esm29-rsr0-rcr2-esr29.exr,ReadingArea_rsl0-rcl69-esl100-rsm0-rcm25-esm29-rsr0-rcr2-esr29.npz,,,,,0,77,77,427,,right,red,2.44,471.70811796188354,472.2780759334564,,2,,2,5,lightness,readingArea,realistic,75,2023-03-21_10h03.48.110,tripletExp_regina_11082022,2022.2.4,120.44567989156656,
8,6,11,0,0.25,1.0,0,0.027777777777778,1.0,0,1.0,1.0,ReadingArea_rsl0-rcl25-esl100-rsm0-rcm2-esm100-rsr0-rcr100-esr100,exr/ReadingArea_rsl0-rcl25-esl100-rsm0-rcm2-esm100-rsr0-rcr100-esr100.exr,ReadingArea_rsl0-rcl25-esl100-rsm0-rcm2-esm100-rsr0-rcr100-esr100.npz,,,,,0,78,78,236,,left,green,1.37,473.98147106170654,474.44205594062805,,2,,2,5,lightness,readingArea,realistic,75,2023-03-21_10h03.48.110,tripletExp_regina_11082022,2022.2.4,120.44567989156656,
10,3,0,0,0.694444444444444,1.0,0,0.444444444444444,0.298245614035088,0,0.027777777777778,0.298245614035088,ReadingArea_rsl0-rcl69-esl100-rsm0-rcm44-esm29-rsr0-rcr2-esr29,exr/ReadingArea_rsl0-rcl69-esl100-rsm0-rcm44-esm29-rsr0-rcr2-esr29.exr,ReadingArea_rsl0-rcl69-esl100-rsm0-rcm44-esm29-rsr0-rcr2-esr29.npz,,,,,0,79,79,203,,right,red,4.6,479.7073600292206,480.1636700630188,,2,,2,5,lightness,readingArea,realistic,75,2023-03-21_10h03.48.110,tripletExp_regina_11082022,2022.2.4,120.44567989156656,
3,6,4,0,0.444444444444444,0.298245614035088,0,0.027777777777778,1.0,0,0.694444444444444,0.298245614035088,ReadingArea_rsl0-rcl44-esl29-rsm0-rcm2-esm100-rsr0-rcr69-esr29,exr/ReadingArea_rsl0-rcl44-esl29-rsm0-rcm2-esm100-rsr0-rcr69-esr29.exr,ReadingArea_rsl0-rcl44-esl29-rsm0-rcm2-esm100-rsr0-rcr69-esr29.npz,,,,,0,80,80,154,,left,green,1.73,481.8816211223602,482.3168799877167,,2,,2,5,lightness,readingArea,realistic,75,2023-03-21_10h03.48.110,tripletExp_regina_11082022,2022.2.4,120.44567989156656,
10,1,13,0,0.694444444444444,1.0,0,0.111111111111111,0.298245614035088,0,0.111111111111111,3.10526315789474,ReadingArea_rsl0-rcl69-esl100-rsm0-rcm11-esm29-rsr0-rcr11-esr310,exr/ReadingArea_rsl0-rcl69-esl100-rsm0-rcm11-esm29-rsr0-rcr11-esr310.exr,ReadingArea_rsl0-rcl69-esl100-rsm0-rcm11-esm29-rsr0-rcr11-esr310.npz,,,,,0,81,81,45,,right,red,1.53,484.00734305381775,,,2,,2,5,lightness,readingArea,realistic,75,2023-03-21_10h03.48.110,tripletExp_regina_11082022,2022.2.4,120.44567989156656,
7,5,11,0,0.111111111111111,1.0,0,1.0,0.298245614035088,0,1.0,1.0,ReadingArea_rsl0-rcl11-esl100-rsm0-rcm100-esm29-rsr0-rcr100-esr100,exr/ReadingArea_rsl0-rcl11-esl100-rsm0-rcm100-esm29-rsr0-rcr100-esr100.exr,ReadingArea_rsl0-rcl11-esl100-rsm0-rcm100-esm29-rsr0-rcr100-esr100.npz,,,,,0,82,82,10,,left,green,2.92,487.9722080230713,488.4348130226135,,2,,2,5,lightness,readingArea,realistic,75,2023-03-21_10h03.48.110,tripletExp_regina_11082022,2022.2.4,120.44567989156656,
4,7,10,0,0.694444444444444,0.298245614035088,0,0.111111111111111,1.0,0,0.694444444444444,1.0,ReadingArea_rsl0-rcl69-esl29-rsm0-rcm11-esm100-rsr0-rcr69-esr100,exr/ReadingArea_rsl0-rcl69-esl29-rsm0-rcm11-esm100-rsr0-rcr69-esr100.exr,ReadingArea_rsl0-rcl69-esl29-rsm0-rcm11-esm100-rsr0-rcr69-esr100.npz,,,,,0,83,83,8,,left,green,0.97,490.1234331130981,490.5680780410767,,2,,2,5,lightness,readingArea,realistic,75,2023-03-21_10h03.48.110,tripletExp_regina_11082022,2022.2.4,120.44567989156656,
8,13,2,0,0.25,1.0,0,0.111111111111111,3.10526315789474,0,0.25,0.298245614035088,ReadingArea_rsl0-rcl25-esl100-rsm0-rcm11-esm310-rsr0-rcr25-esr29,exr/ReadingArea_rsl0-rcl25-esl100-rsm0-rcm11-esm310-rsr0-rcr25-esr29.exr,ReadingArea_rsl0-rcl25-esl100-rsm0-rcm11-esm310-rsr0-rcr25-esr29.npz,,,,,0,84,84,376,,right,red,3.37,494.0585150718689,494.4974899291992,,2,,2,5,lightness,readingArea,realistic,75,2023-03-21_10h03.48.110,tripletExp_regina_11082022,2022.2.4,120.44567989156656,
9,0,6,0,0.444444444444444,1.0,0,0.027777777777778,0.298245614035088,0,0.027777777777778,1.0,ReadingArea_rsl0-rcl44-esl100-rsm0-rcm2-esm29-rsr0-rcr2-esr100,exr/ReadingArea_rsl0-rcl44-esl100-rsm0-rcm2-esm29-rsr0-rcr2-esr100.exr,ReadingArea_rsl0-rcl44-esl100-rsm0-rcm2-esm29-rsr0-rcr2-esr100.npz,,,,,0,85,85,362,,right,red,1.64,496.1999900341034,496.7807800769806,,2,,2,5,lightness,readingArea,realistic,75,2023-03-21_10h03.48.110,tripletExp_regina_11082022,2022.2.4,120.44567989156656,
14,11,4,0,0.25,3.10526315789474,0,1.0,1.0,0,0.694444444444444,0.298245614035088,ReadingArea_rsl0-rcl25-esl310-rsm0-rcm100-esm100-rsr0-rcr69-esr29,exr/ReadingArea_rsl0-rcl25-esl310-rsm0-rcm100-esm100-rsr0-rcr69-esr29.exr,ReadingArea_rsl0-rcl25-esl310-rsm0-rcm100-esm100-rsr0-rcr69-esr29.npz,,,,,0,86,86,370,,left,green,3.5,500.2284059524536,500.67107701301575,,2,,2,5,lightness,readingArea,realistic,75,2023-03-21_10h03.48.110,tripletExp_regina_11082022,2022.2.4,120.44567989156656,
4,2,9,0,0.694444444444444,0.298245614035088,0,0.25,0.298245614035088,0,0.444444444444444,1.0,ReadingArea_rsl0-rcl69-esl29-rsm0-rcm25-esm29-rsr0-rcr44-esr100,exr/ReadingArea_rsl0-rcl69-esl29-rsm0-rcm25-esm29-rsr0-rcr44-esr100.exr,ReadingArea_rsl0-rcl69-esl29-rsm0-rcm25-esm29-rsr0-rcr44-esr100.npz,,,,,0,87,87,479,,left,green,2.94,504.148267030716,504.59456300735474,,2,,2,5,lightness,readingArea,realistic,75,2023-03-21_10h03.48.110,tripletExp_regina_11082022,2022.2.4,120.44567989156656,
9,4,14,0,0.444444444444444,1.0,0,0.694444444444444,0.298245614035088,0,0.25,3.10526315789474,ReadingArea_rsl0-rcl44-esl100-rsm0-rcm69-esm29-rsr0-rcr25-esr310,exr/ReadingArea_rsl0-rcl44-esl100-rsm0-rcm69-esm29-rsr0-rcr25-esr310.exr,ReadingArea_rsl0-rcl44-esl100-rsm0-rcm69-esm29-rsr0-rcr25-esr310.npz,,,,,0,88,88,104,,left,green,3.2,508.0705370903015,508.5127799510956,,2,,2,5,lightness,readingArea,realistic,75,2023-03-21_10h03.48.110,tripletExp_regina_11082022,2022.2.4,120.44567989156656,
1,10,7,0,0.111111111111111,0.298245614035088,0,0.694444444444444,1.0,0,0.111111111111111,1.0,ReadingArea_rsl0-rcl11-esl29-rsm0-rcm69-esm100-rsr0-rcr11-esr100,exr/ReadingArea_rsl0-rcl11-esl29-rsm0-rcm69-esm100-rsr0-rcr11-esr100.exr,ReadingArea_rsl0-rcl11-esl29-rsm0-rcm69-esm100-rsr0-rcr11-esr100.npz,,,,,0,89,89,94,,left,green,4.17,513.7517819404602,514.2817180156708,,2,,2,5,lightness,readingArea,realistic,75,2023-03-21_10h03.48.110,tripletExp_regina_11082022,2022.2.4,120.44567989156656,
10,11,13,0,0.694444444444444,1.0,0,1.0,1.0,0,0.111111111111111,3.10526315789474,ReadingArea_rsl0-rcl69-esl100-rsm0-rcm100-esm100-rsr0-rcr11-esr310,exr/ReadingArea_rsl0-rcl69-esl100-rsm0-rcm100-esm100-rsr0-rcr11-esr310.exr,ReadingArea_rsl0-rcl69-esl100-rsm0-rcm100-esm100-rsr0-rcr11-esr310.npz,,,,,0,90,90,79,,left,green,2.35,517.7398331165314,518.1969680786133,,2,,2,5,lightness,readingArea,realistic,75,2023-03-21_10h03.48.110,tripletExp_regina_11082022,2022.2.4,120.44567989156656,
11,5,8,0,1.0,1.0,0,1.0,0.298245614035088,0,0.25,1.0,ReadingArea_rsl0-rcl100-esl100-rsm0-rcm100-esm29-rsr0-rcr25-esr100,exr/ReadingArea_rsl0-rcl100-esl100-rsm0-rcm100-esm29-rsr0-rcr25-esr100.exr,ReadingArea_rsl0-rcl100-esl100-rsm0-rcm100-esm29-rsr0-rcr25-esr100.npz,,,,,0,91,91,86,,right,red,1.18,519.8879170417786,,,2,,2,5,lightness,readingArea,realistic,75,2023-03-21_10h03.48.110,tripletExp_regina_11082022,2022.2.4,120.44567989156656,
6,3,1,0,0.027777777777778,1.0,0,0.444444444444444,0.298245614035088,0,0.111111111111111,0.298245614035088,ReadingArea_rsl0-rcl2-esl100-rsm0-rcm44-esm29-rsr0-rcr11-esr29,exr/ReadingArea_rsl0-rcl2-esl100-rsm0-rcm44-esm29-rsr0-rcr11-esr29.exr,ReadingArea_rsl0-rcl2-esl100-rsm0-rcm44-esm29-rsr0-rcr11-esr29.npz,,,,,0,92,92,430,,left,green,4.57,525.6057550907135,,,2,,2,5,lightness,readingArea,realistic,75,2023-03-21_10h03.48.110,tripletExp_regina_11082022,2022.2.4,120.44567989156656,
8,2,0,0,0.25,1.0,0,0.25,0.298245614035088,0,0.027777777777778,0.298245614035088,ReadingArea_rsl0-rcl25-esl100-rsm0-rcm25-esm29-rsr0-rcr2-esr29,exr/ReadingArea_rsl0-rcl25-esl100-rsm0-rcm25-esm29-rsr0-rcr2-esr29.exr,ReadingArea_rsl0-rcl25-esl100-rsm0-rcm25-esm29-rsr0-rcr2-esr29.npz,,,,,0,93,93,574,,left,green,3.1,529.6128430366516,530.0583851337433,,2,,2,5,lightness,readingArea,realistic,75,2023-03-21_10h03.48.110,tripletExp_regina_11082022,2022.2.4,120.44567989156656,
11,7,9,0,1.0,1.0,0,0.111111111111111,1.0,0,0.444444444444444,1.0,ReadingArea_rsl0-rcl100-esl100-rsm0-rcm11-esm100-rsr0-rcr44-esr100,exr/ReadingArea_rsl0-rcl100-esl100-rsm0-rcm11-esm100-rsr0-rcr44-esr100.exr,ReadingArea_rsl0-rcl100-esl100-rsm0-rcm11-esm100-rsr0-rcr44-esr100.npz,,,,,0,94,94,521,,right,red,1.24,531.7441220283508,532.2728779315948,,2,,2,5,lightness,readingArea,realistic,75,2023-03-21_10h03.48.110,tripletExp_regina_11082022,2022.2.4,120.44567989156656,
8,10,7,0,0.25,1.0,0,0.694444444444444,1.0,0,0.111111111111111,1.0,ReadingArea_rsl0-rcl25-esl100-rsm0-rcm69-esm100-rsr0-rcr11-esr100,exr/ReadingArea_rsl0-rcl25-esl100-rsm0-rcm69-esm100-rsr0-rcr11-esr100.exr,ReadingArea_rsl0-rcl25-esl100-rsm0-rcm69-esm100-rsr0-rcr11-esr100.npz,,,,,0,95,95,424,,left,green,1.48,533.9810221195221,534.4400749206543,,2,,2,5,lightness,readingArea,realistic,75,2023-03-21_10h03.48.110,tripletExp_regina_11082022,2022.2.4,120.44567989156656,
1,5,8,0,0.111111111111111,0.298245614035088,0,1.0,0.298245614035088,0,0.25,1.0,ReadingArea_rsl0-rcl11-esl29-rsm0-rcm100-esm29-rsr0-rcr25-esr100,exr/ReadingArea_rsl0-rcl11-esl29-rsm0-rcm100-esm29-rsr0-rcr25-esr100.exr,ReadingArea_rsl0-rcl11-esl29-rsm0-rcm100-esm29-rsr0-rcr25-esr100.npz,,,,,0,96,96,238,,right,red,2.93,537.9059720039368,538.3686330318451,,2,,2,5,lightness,readingArea,realistic,75,2023-03-21_10h03.48.110,tripletExp_regina_11082022,2022.2.4,120.44567989156656,
13,9,4,0,0.111111111111111,3.10526315789474,0,0.444444444444444,1.0,0,0.694444444444444,0.298245614035088,ReadingArea_rsl0-rcl11-esl310-rsm0-rcm44-esm100-rsr0-rcr69-esr29,exr/ReadingArea_rsl0-rcl11-esl310-rsm0-rcm44-esm100-rsr0-rcr69-esr29.exr,ReadingArea_rsl0-rcl11-esl310-rsm0-rcm44-esm100-rsr0-rcr69-esr29.npz,,,,,0,97,97,444,,left,green,4.63,543.5859811306,544.0908501148224,,2,,2,5,lightness,readingArea,realistic,75,2023-03-21_10h03.48.110,tripletExp_regina_11082022,2022.2.4,120.44567989156656,
4,9,13,0,0.694444444444444,0.298245614035088,0,0.444444444444444,1.0,0,0.111111111111111,3.10526315789474,ReadingArea_rsl0-rcl69-esl29-rsm0-rcm44-esm100-rsr0-rcr11-esr310,exr/ReadingArea_rsl0-rcl69-esl29-rsm0-rcm44-esm100-rsr0-rcr11-esr310.exr,ReadingArea_rsl0-rcl69-esl29-rsm0-rcm44-esm100-rsr0-rcr11-esr310.npz,,,,,0,98,98,488,,right,red,2.92,547.567901134491,,,2,,2,5,lightness,readingArea,realistic,75,2023-03-21_10h03.48.110,tripletExp_regina_11082022,2022.2.4,120.44567989156656,
3,7,9,0,0.444444444444444,0.298245614035088,0,0.111111111111111,1.0,0,0.444444444444444,1.0,ReadingArea_rsl0-rcl44-esl29-rsm0-rcm11-esm100-rsr0-rcr44-esr100,exr/ReadingArea_rsl0-rcl44-esl29-rsm0-rcm11-esm100-rsr0-rcr44-esr100.exr,ReadingArea_rsl0-rcl44-esl29-rsm0-rcm11-esm100-rsr0-rcr44-esr100.npz,,,,,0,99,99,382,,left,green,1.19,549.7418310642242,550.2339010238647,,2,,2,5,lightness,readingArea,realistic,75,2023-03-21_10h03.48.110,tripletExp_regina_11082022,2022.2.4,120.44567989156656,
5,6,0,0,1.0,0.298245614035088,0,0.027777777777778,1.0,0,0.027777777777778,0.298245614035088,ReadingArea_rsl0-rcl100-esl29-rsm0-rcm2-esm100-rsr0-rcr2-esr29,exr/ReadingArea_rsl0-rcl100-esl29-rsm0-rcm2-esm100-rsr0-rcr2-esr29.exr,ReadingArea_rsl0-rcl100-esl29-rsm0-rcm2-esm100-rsr0-rcr2-esr29.npz,,,,,0,100,100,511,,right,red,1.0,551.9479279518127,552.4004349708557,,2,,2,5,lightness,readingArea,realistic,75,2023-03-21_10h03.48.110,tripletExp_regina_11082022,2022.2.4,120.44567989156656,
5,2,7,0,1.0,0.298245614035088,0,0.25,0.298245614035088,0,0.111111111111111,1.0,ReadingArea_rsl0-rcl100-esl29-rsm0-rcm25-esm29-rsr0-rcr11-esr100,exr/ReadingArea_rsl0-rcl100-esl29-rsm0-rcm25-esm29-rsr0-rcr11-esr100.exr,ReadingArea_rsl0-rcl100-esl29-rsm0-rcm25-esm29-rsr0-rcr11-esr100.npz,,,,,0,101,101,179,,right,red,2.44,555.9024889469147,,,2,,2,5,lightness,readingArea,realistic,75,2023-03-21_10h03.48.110,tripletExp_regina_11082022,2022.2.4,120.44567989156656,
0,12,7,0,0.027777777777778,0.298245614035088,0,0.027777777777778,3.10526315789474,0,0.111111111111111,1.0,ReadingArea_rsl0-rcl2-esl29-rsm0-rcm2-esm310-rsr0-rcr11-esr100,exr/ReadingArea_rsl0-rcl2-esl29-rsm0-rcm2-esm310-rsr0-rcr11-esr100.exr,ReadingArea_rsl0-rcl2-esl29-rsm0-rcm2-esm310-rsr0-rcr11-esr100.npz,,,,,0,102,102,481,,right,red,1.41,558.1122980117798,558.5597031116486,,2,,2,5,lightness,readingArea,realistic,75,2023-03-21_10h03.48.110,tripletExp_regina_11082022,2022.2.4,120.44567989156656,
1,3,4,0,0.111111111111111,0.298245614035088,0,0.444444444444444,0.298245614035088,0,0.694444444444444,0.298245614035088,ReadingArea_rsl0-rcl11-esl29-rsm0-rcm44-esm29-rsr0-rcr69-esr29,exr/ReadingArea_rsl0-rcl11-esl29-rsm0-rcm44-esm29-rsr0-rcr69-esr29.exr,ReadingArea_rsl0-rcl11-esl29-rsm0-rcm44-esm29-rsr0-rcr69-esr29.npz,,,,,0,103,103,153,,right,red,1.2,560.2624521255493,560.7104570865631,,2,,2,5,lightness,readingArea,realistic,75,2023-03-21_10h03.48.110,tripletExp_regina_11082022,2022.2.4,120.44567989156656,
14,7,13,0,0.25,3.10526315789474,0,0.111111111111111,1.0,0,0.111111111111111,3.10526315789474,ReadingArea_rsl0-rcl25-esl310-rsm0-rcm11-esm100-rsr0-rcr11-esr310,exr/ReadingArea_rsl0-rcl25-esl310-rsm0-rcm11-esm100-rsr0-rcr11-esr310.exr,ReadingArea_rsl0-rcl25-esl310-rsm0-rcm11-esm100-rsr0-rcr11-esr310.npz,,,,,0,104,104,358,,right,red,2.99,564.1966500282288,564.6350889205933,,2,,2,5,lightness,readingArea,realistic,75,2023-03-21_10h03.48.110,tripletExp_regina_11082022,2022.2.4,120.44567989156656,
5,7,14,0,1.0,0.298245614035088,0,0.111111111111111,1.0,0,0.25,3.10526315789474,ReadingArea_rsl0-rcl100-esl29-rsm0-rcm11-esm100-rsr0-rcr25-esr310,exr/ReadingArea_rsl0-rcl100-esl29-rsm0-rcm11-esm100-rsr0-rcr25-esr310.exr,ReadingArea_rsl0-rcl100-esl29-rsm0-rcm11-esm100-rsr0-rcr25-esr310.npz,,,,,0,105,105,210,,left,green,3.06,568.1076910495758,568.5915660858154,,2,,2,5,lightness,readingArea,realistic,75,2023-03-21_10h03.48.110,tripletExp_regina_11082022,2022.2.4,120.44567989156656,
6,1,14,0,0.027777777777778,1.0,0,0.111111111111111,0.298245614035088,0,0.25,3.10526315789474,ReadingArea_rsl0-rcl2-esl100-rsm0-rcm11-esm29-rsr0-rcr25-esr310,exr/ReadingArea_rsl0-rcl2-esl100-rsm0-rcm11-esm29-rsr0-rcr25-esr310.exr,ReadingArea_rsl0-rcl2-esl100-rsm0-rcm11-esm29-rsr0-rcr25-esr310.npz,,,,,0,106,106,381,,left,green,1.26,570.3125281333923,,,2,,2,5,lightness,readingArea,realistic,75,2023-03-21_10h03.48.110,tripletExp_regina_11082022,2022.2.4,120.44567989156656,
7,6,11,0,0.111111111111111,1.0,0,0.027777777777778,1.0,0,1.0,1.0,ReadingArea_rsl0-rcl11-esl100-rsm0-rcm2-esm100-rsr0-rcr100-esr100,exr/ReadingArea_rsl0-rcl11-esl100-rsm0-rcm2-esm100-rsr0-rcr100-esr100.exr,ReadingArea_rsl0-rcl11-esl100-rsm0-rcm2-esm100-rsr0-rcr100-esr100.npz,,,,,0,107,107,84,,left,green,1.22,572.562381029129,573.0106430053711,,2,,2,5,lightness,readingArea,realistic,75,2023-03-21_10h03.48.110,tripletExp_regina_11082022,2022.2.4,120.44567989156656,
9,6,1,0,0.444444444444444,1.0,0,0.027777777777778,1.0,0,0.111111111111111,0.298245614035088,ReadingArea_rsl0-rcl44-esl100-rsm0-rcm2-esm100-rsr0-rcr11-esr29,exr/ReadingArea_rsl0-rcl44-esl100-rsm0-rcm2-esm100-rsr0-rcr11-esr29.exr,ReadingArea_rsl0-rcl44-esl100-rsm0-rcm2-esm100-rsr0-rcr11-esr29.npz,,,,,0,108,108,526,,right,red,0.92,574.7043371200562,575.1769781112671,,2,,2,5,lightness,readingArea,realistic,75,2023-03-21_10h03.48.110,tripletExp_regina_11082022,2022.2.4,120.44567989156656,
6,2,12,0,0.027777777777778,1.0,0,0.25,0.298245614035088,0,0.027777777777778,3.10526315789474,ReadingArea_rsl0-rcl2-esl100-rsm0-rcm25-esm29-rsr0-rcr2-esr310,exr/ReadingArea_rsl0-rcl2-esl100-rsm0-rcm25-esm29-rsr0-rcr2-esr310.exr,ReadingArea_rsl0-rcl2-esl100-rsm0-rcm25-esm29-rsr0-rcr2-esr310.npz,,,,,0,109,109,480,,right,red,4.64,580.3995790481567,580.8890759944916,,2,,2,5,lightness,readingArea,realistic,75,2023-03-21_10h03.48.110,tripletExp_regina_11082022,2022.2.4,120.44567989156656,
9,12,6,0,0.444444444444444,1.0,0,0.027777777777778,3.10526315789474,0,0.027777777777778,1.0,ReadingArea_rsl0-rcl44-esl100-rsm0-rcm2-esm310-rsr0-rcr2-esr100,exr/ReadingArea_rsl0-rcl44-esl100-rsm0-rcm2-esm310-rsr0-rcr2-esr100.exr,ReadingArea_rsl0-rcl44-esl100-rsm0-rcm2-esm310-rsr0-rcr2-esr100.npz,,,,,0,110,110,5,,right,red,1.25,582.5983510017395,,,2,,2,5,lightness,readingArea,realistic,75,2023-03-21_10h03.48.110,tripletExp_regina_11082022,2022.2.4,120.44567989156656,
0,1,6,0,0.027777777777778,0.298245614035088,0,0.111111111111111,0.298245614035088,0,0.027777777777778,1.0,ReadingArea_rsl0-rcl2-esl29-rsm0-rcm11-esm29-rsr0-rcr2-esr100,exr/ReadingArea_rsl0-rcl2-esl29-rsm0-rcm11-esm29-rsr0-rcr2-esr100.exr,ReadingArea_rsl0-rcl2-esl29-rsm0-rcm11-esm29-rsr0-rcr2-esr100.npz,,,,,0,111,111,375,,right,red,3.01,586.535943031311,587.2076759338379,,2,,2,5,lightness,readingArea,realistic,75,2023-03-21_10h03.48.110,tripletExp_regina_11082022,2022.2.4,120.44567989156656,
5,3,2,0,1.0,0.298245614035088,0,0.444444444444444,0.298245614035088,0,0.25,0.298245614035088,ReadingArea_rsl0-rcl100-esl29-rsm0-rcm44-esm29-rsr0-rcr25-esr29,exr/ReadingArea_rsl0-rcl100-esl29-rsm0-rcm44-esm29-rsr0-rcr25-esr29.exr,ReadingArea_rsl0-rcl100-esl29-rsm0-rcm44-esm29-rsr0-rcr25-esr29.npz,,,,,0,112,112,143,,right,red,1.38,588.9030749797821,589.3808901309967,,2,,2,5,lightness,readingArea,realistic,75,2023-03-21_10h03.48.110,tripletExp_regina_11082022,2022.2.4,120.44567989156656,
12,6,8,0,0.027777777777778,3.10526315789474,0,0.027777777777778,1.0,0,0.25,1.0,ReadingArea_rsl0-rcl2-esl310-rsm0-rcm2-esm100-rsr0-rcr25-esr100,exr/ReadingArea_rsl0-rcl2-esl310-rsm0-rcm2-esm100-rsr0-rcr25-esr100.exr,ReadingArea_rsl0-rcl2-esl310-rsm0-rcm2-esm100-rsr0-rcr25-esr100.npz,,,,,0,113,113,540,,left,green,2.01,592.8298280239105,593.3033609390259,,2,,2,5,lightness,readingArea,realistic,75,2023-03-21_10h03.48.110,tripletExp_regina_11082022,2022.2.4,120.44567989156656,
3,4,13,0,0.444444444444444,0.298245614035088,0,0.694444444444444,0.298245614035088,0,0.111111111111111,3.10526315789474,ReadingArea_rsl0-rcl44-esl29-rsm0-rcm69-esm29-rsr0-rcr11-esr310,exr/ReadingArea_rsl0-rcl44-esl29-rsm0-rcm69-esm29-rsr0-rcr11-esr310.exr,ReadingArea_rsl0-rcl44-esl29-rsm0-rcm69-esm29-rsr0-rcr11-esr310.npz,,,,,0,114,114,63,,left,green,3.27,596.7816090583801,597.3183460235596,,2,,2,5,lightness,readingArea,realistic,75,2023-03-21_10h03.48.110,tripletExp_regina_11082022,2022.2.4,120.44567989156656,
1,12,6,0,0.111111111111111,0.298245614035088,0,0.027777777777778,3.10526315789474,0,0.027777777777778,1.0,ReadingArea_rsl0-rcl11-esl29-rsm0-rcm2-esm310-rsr0-rcr2-esr100,exr/ReadingArea_rsl0-rcl11-esl29-rsm0-rcm2-esm310-rsr0-rcr2-esr100.exr,ReadingArea_rsl0-rcl11-esl29-rsm0-rcm2-esm310-rsr0-rcr2-esr100.npz,,,,,0,115,115,277,,left,green,3.36,600.7927639484406,601.2334260940552,,2,,2,5,lightness,readingArea,realistic,75,2023-03-21_10h03.48.110,tripletExp_regina_11082022,2022.2.4,120.44567989156656,
2,3,4,0,0.25,0.298245614035088,0,0.444444444444444,0.298245614035088,0,0.694444444444444,0.298245614035088,ReadingArea_rsl0-rcl25-esl29-rsm0-rcm44-esm29-rsr0-rcr69-esr29,exr/ReadingArea_rsl0-rcl25-esl29-rsm0-rcm44-esm29-rsr0-rcr69-esr29.exr,ReadingArea_rsl0-rcl25-esl29-rsm0-rcm44-esm29-rsr0-rcr69-esr29.npz,,,,,0,116,116,61,,right,red,3.04,604.704097032547,605.1656560897827,,2,,2,5,lightness,readingArea,realistic,75,2023-03-21_10h03.48.110,tripletExp_regina_11082022,2022.2.4,120.44567989156656,
6,10,9,0,0.027777777777778,1.0,0,0.694444444444444,1.0,0,0.444444444444444,1.0,ReadingArea_rsl0-rcl2-esl100-rsm0-rcm69-esm100-rsr0-rcr44-esr100,exr/ReadingArea_rsl0-rcl2-esl100-rsm0-rcm69-esm100-rsr0-rcr44-esr100.exr,ReadingArea_rsl0-rcl2-esl100-rsm0-rcm69-esm100-rsr0-rcr44-esr100.npz,,,,,0,117,117,148,,right,red,2.25,608.6549890041351,609.1238610744476,,2,,2,5,lightness,readingArea,realistic,75,2023-03-21_10h03.48.110,tripletExp_regina_11082022,2022.2.4,120.44567989156656,
14,10,13,0,0.25,3.10526315789474,0,0.694444444444444,1.0,0,0.111111111111111,3.10526315789474,ReadingArea_rsl0-rcl25-esl310-rsm0-rcm69-esm100-rsr0-rcr11-esr310,exr/ReadingArea_rsl0-rcl25-esl310-rsm0-rcm69-esm100-rsr0-rcr11-esr310.exr,ReadingArea_rsl0-rcl25-esl310-rsm0-rcm69-esm100-rsr0-rcr11-esr310.npz,,,,,0,118,118,204,,left,green,4.62,614.3982889652252,614.8487160205841,,2,,2,5,lightness,readingArea,realistic,75,2023-03-21_10h03.48.110,tripletExp_regina_11082022,2022.2.4,120.44567989156656,
4,3,10,0,0.694444444444444,0.298245614035088,0,0.444444444444444,0.298245614035088,0,0.694444444444444,1.0,ReadingArea_rsl0-rcl69-esl29-rsm0-rcm44-esm29-rsr0-rcr69-esr100,exr/ReadingArea_rsl0-rcl69-esl29-rsm0-rcm44-esm29-rsr0-rcr69-esr100.exr,ReadingArea_rsl0-rcl69-esl29-rsm0-rcm44-esm29-rsr0-rcr69-esr100.npz,,,,,0,119,119,371,,left,green,2.72,618.3098149299622,618.7384679317474,,2,,2,5,lightness,readingArea,realistic,75,2023-03-21_10h03.48.110,tripletExp_regina_11082022,2022.2.4,120.44567989156656,
2,5,14,0,0.25,0.298245614035088,0,1.0,0.298245614035088,0,0.25,3.10526315789474,ReadingArea_rsl0-rcl25-esl29-rsm0-rcm100-esm29-rsr0-rcr25-esr310,exr/ReadingArea_rsl0-rcl25-esl29-rsm0-rcm100-esm29-rsr0-rcr25-esr310.exr,ReadingArea_rsl0-rcl25-esl29-rsm0-rcm100-esm29-rsr0-rcr25-esr310.npz,,,,,0,120,120,390,,left,green,3.24,622.192389011383,622.6515529155731,,2,,2,5,lightness,readingArea,realistic,75,2023-03-21_10h03.48.110,tripletExp_regina_11082022,2022.2.4,120.44567989156656,
3,13,1,0,0.444444444444444,0.298245614035088,0,0.111111111111111,3.10526315789474,0,0.111111111111111,0.298245614035088,ReadingArea_rsl0-rcl44-esl29-rsm0-rcm11-esm310-rsr0-rcr11-esr29,exr/ReadingArea_rsl0-rcl44-esl29-rsm0-rcm11-esm310-rsr0-rcr11-esr29.exr,ReadingArea_rsl0-rcl44-esl29-rsm0-rcm11-esm310-rsr0-rcr11-esr29.npz,,,,,0,121,121,421,,left,green,2.94,626.1265399456024,626.5555379390717,,2,,2,5,lightness,readingArea,realistic,75,2023-03-21_10h03.48.110,tripletExp_regina_11082022,2022.2.4,120.44567989156656,
14,7,1,0,0.25,3.10526315789474,0,0.111111111111111,1.0,0,0.111111111111111,0.298245614035088,ReadingArea_rsl0-rcl25-esl310-rsm0-rcm11-esm100-rsr0-rcr11-esr29,exr/ReadingArea_rsl0-rcl25-esl310-rsm0-rcm11-esm100-rsr0-rcr11-esr29.exr,ReadingArea_rsl0-rcl25-esl310-rsm0-rcm11-esm100-rsr0-rcr11-esr29.npz,,,,,0,122,122,298,,right,red,1.36,628.2566299438477,628.7330179214478,,2,,2,5,lightness,readingArea,realistic,75,2023-03-21_10h03.48.110,tripletExp_regina_11082022,2022.2.4,120.44567989156656,
13,6,1,0,0.111111111111111,3.10526315789474,0,0.027777777777778,1.0,0,0.111111111111111,0.298245614035088,ReadingArea_rsl0-rcl11-esl310-rsm0-rcm2-esm100-rsr0-rcr11-esr29,exr/ReadingArea_rsl0-rcl11-esl310-rsm0-rcm2-esm100-rsr0-rcr11-esr29.exr,ReadingArea_rsl0-rcl11-esl310-rsm0-rcm2-esm100-rsr0-rcr11-esr29.npz,,,,,0,123,123,486,,right,red,1.87,630.4517390727997,630.9119229316711,,2,,2,5,lightness,readingArea,realistic,75,2023-03-21_10h03.48.110,tripletExp_regina_11082022,2022.2.4,120.44567989156656,
5,10,12,0,1.0,0.298245614035088,0,0.694444444444444,1.0,0,0.027777777777778,3.10526315789474,ReadingArea_rsl0-rcl100-esl29-rsm0-rcm69-esm100-rsr0-rcr2-esr310,exr/ReadingArea_rsl0-rcl100-esl29-rsm0-rcm69-esm100-rsr0-rcr2-esr310.exr,ReadingArea_rsl0-rcl100-esl29-rsm0-rcm69-esm100-rsr0-rcr2-esr310.npz,,,,,0,124,124,587,,left,green,1.24,632.6258370876312,633.0846431255341,,2,,2,5,lightness,readingArea,realistic,75,2023-03-21_10h03.48.110,tripletExp_regina_11082022,2022.2.4,120.44567989156656,
4,1,13,0,0.694444444444444,0.298245614035088,0,0.111111111111111,0.298245614035088,0,0.111111111111111,3.10526315789474,ReadingArea_rsl0-rcl69-esl29-rsm0-rcm11-esm29-rsr0-rcr11-esr310,exr/ReadingArea_rsl0-rcl69-esl29-rsm0-rcm11-esm29-rsr0-rcr11-esr310.exr,ReadingArea_rsl0-rcl69-esl29-rsm0-rcm11-esm29-rsr0-rcr11-esr310.npz,,,,,0,125,125,565,,left,green,1.63,634.7916939258575,635.2489409446716,,2,,2,5,lightness,readingArea,realistic,75,2023-03-21_10h03.48.110,tripletExp_regina_11082022,2022.2.4,120.44567989156656,
14,10,5,0,0.25,3.10526315789474,0,0.694444444444444,1.0,0,1.0,0.298245614035088,ReadingArea_rsl0-rcl25-esl310-rsm0-rcm69-esm100-rsr0-rcr100-esr29,exr/ReadingArea_rsl0-rcl25-esl310-rsm0-rcm69-esm100-rsr0-rcr100-esr29.exr,ReadingArea_rsl0-rcl25-esl310-rsm0-rcm69-esm100-rsr0-rcr100-esr29.npz,,,,,0,126,126,96,,left,green,3.29,638.7084500789642,639.1755630970001,,2,,2,5,lightness,readingArea,realistic,75,2023-03-21_10h03.48.110,tripletExp_regina_11082022,2022.2.4,120.44567989156656,
3,9,10,0,0.444444444444444,0.298245614035088,0,0.444444444444444,1.0,0,0.694444444444444,1.0,ReadingArea_rsl0-rcl44-esl29-rsm0-rcm44-esm100-rsr0-rcr69-esr100,exr/ReadingArea_rsl0-rcl44-esl29-rsm0-rcm44-esm100-rsr0-rcr69-esr100.exr,ReadingArea_rsl0-rcl44-esl29-rsm0-rcm44-esm100-rsr0-rcr69-esr100.npz,,,,,0,127,127,581,,left,green,1.35,640.8912971019745,641.3568451404572,,2,,2,5,lightness,readingArea,realistic,75,2023-03-21_10h03.48.110,tripletExp_regina_11082022,2022.2.4,120.44567989156656,
14,1,13,0,0.25,3.10526315789474,0,0.111111111111111,0.298245614035088,0,0.111111111111111,3.10526315789474,ReadingArea_rsl0-rcl25-esl310-rsm0-rcm11-esm29-rsr0-rcr11-esr310,exr/ReadingArea_rsl0-rcl25-esl310-rsm0-rcm11-esm29-rsr0-rcr11-esr310.exr,ReadingArea_rsl0-rcl25-esl310-rsm0-rcm11-esm29-rsr0-rcr11-esr310.npz,,,,,0,128,128,265,,right,red,1.56,643.0766479969025,643.528783082962,,2,,2,5,lightness,readingArea,realistic,75,2023-03-21_10h03.48.110,tripletExp_regina_11082022,2022.2.4,120.44567989156656,
7,3,0,0,0.111111111111111,1.0,0,0.444444444444444,0.298245614035088,0,0.027777777777778,0.298245614035088,ReadingArea_rsl0-rcl11-esl100-rsm0-rcm44-esm29-rsr0-rcr2-esr29,exr/ReadingArea_rsl0-rcl11-esl100-rsm0-rcm44-esm29-rsr0-rcr2-esr29.exr,ReadingArea_rsl0-rcl11-esl100-rsm0-rcm44-esm29-rsr0-rcr2-esr29.npz,,,,,0,129,129,318,,left,green,1.19,645.2358160018921,645.6890330314636,,2,,2,5,lightness,readingArea,realistic,75,2023-03-21_10h03.48.110,tripletExp_regina_11082022,2022.2.4,120.44567989156656,
8,1,9,0,0.25,1.0,0,0.111111111111111,0.298245614035088,0,0.444444444444444,1.0,ReadingArea_rsl0-rcl25-esl100-rsm0-rcm11-esm29-rsr0-rcr44-esr100,exr/ReadingArea_rsl0-rcl25-esl100-rsm0-rcm11-esm29-rsr0-rcr44-esr100.exr,ReadingArea_rsl0-rcl25-esl100-rsm0-rcm11-esm29-rsr0-rcr44-esr100.npz,,,,,0,130,130,432,,left,green,1.85,647.4048161506653,647.8836381435394,,2,,2,5,lightness,readingArea,realistic,75,2023-03-21_10h03.48.110,tripletExp_regina_11082022,2022.2.4,120.44567989156656,
0,8,9,0,0.027777777777778,0.298245614035088,0,0.25,1.0,0,0.444444444444444,1.0,ReadingArea_rsl0-rcl2-esl29-rsm0-rcm25-esm100-rsr0-rcr44-esr100,exr/ReadingArea_rsl0-rcl2-esl29-rsm0-rcm25-esm100-rsr0-rcr44-esr100.exr,ReadingArea_rsl0-rcl2-esl29-rsm0-rcm25-esm100-rsr0-rcr44-esr100.npz,,,,,0,131,131,541,,right,red,2.91,651.355544090271,651.8603091239929,,2,,2,5,lightness,readingArea,realistic,75,2023-03-21_10h03.48.110,tripletExp_regina_11082022,2022.2.4,120.44567989156656,
13,6,12,0,0.111111111111111,3.10526315789474,0,0.027777777777778,1.0,0,0.027777777777778,3.10526315789474,ReadingArea_rsl0-rcl11-esl310-rsm0-rcm2-esm100-rsr0-rcr2-esr310,exr/ReadingArea_rsl0-rcl11-esl310-rsm0-rcm2-esm100-rsr0-rcr2-esr310.exr,ReadingArea_rsl0-rcl11-esl310-rsm0-rcm2-esm100-rsr0-rcr2-esr310.npz,,,,,0,132,132,147,,right,red,1.3,653.5688710212708,654.0463390350342,,2,,2,5,lightness,readingArea,realistic,75,2023-03-21_10h03.48.110,tripletExp_regina_11082022,2022.2.4,120.44567989156656,
12,9,13,0,0.027777777777778,3.10526315789474,0,0.444444444444444,1.0,0,0.111111111111111,3.10526315789474,ReadingArea_rsl0-rcl2-esl310-rsm0-rcm44-esm100-rsr0-rcr11-esr310,exr/ReadingArea_rsl0-rcl2-esl310-rsm0-rcm44-esm100-rsr0-rcr11-esr310.exr,ReadingArea_rsl0-rcl2-esl310-rsm0-rcm44-esm100-rsr0-rcr11-esr310.npz,,,,,0,133,133,529,,right,red,2.89,657.5084879398346,657.9663980007172,,2,,2,5,lightness,readingArea,realistic,75,2023-03-21_10h03.48.110,tripletExp_regina_11082022,2022.2.4,120.44567989156656,
6,1,9,0,0.027777777777778,1.0,0,0.111111111111111,0.298245614035088,0,0.444444444444444,1.0,ReadingArea_rsl0-rcl2-esl100-rsm0-rcm11-esm29-rsr0-rcr44-esr100,exr/ReadingArea_rsl0-rcl2-esl100-rsm0-rcm11-esm29-rsr0-rcr44-esr100.exr,ReadingArea_rsl0-rcl2-esl100-rsm0-rcm11-esm29-rsr0-rcr44-esr100.npz,,,,,0,134,134,74,,left,green,1.23,659.6579880714417,660.1680290699005,,2,,2,5,lightness,readingArea,realistic,75,2023-03-21_10h03.48.110,tripletExp_regina_11082022,2022.2.4,120.44567989156656,
4,11,14,0,0.694444444444444,0.298245614035088,0,1.0,1.0,0,0.25,3.10526315789474,ReadingArea_rsl0-rcl69-esl29-rsm0-rcm100-esm100-rsr0-rcr25-esr310,exr/ReadingArea_rsl0-rcl69-esl29-rsm0-rcm100-esm100-rsr0-rcr25-esr310.exr,ReadingArea_rsl0-rcl69-esl29-rsm0-rcm100-esm100-rsr0-rcr25-esr310.npz,,,,,0,135,135,165,,right,red,1.32,661.8848221302032,662.3422360420227,,2,,2,5,lightness,readingArea,realistic,75,2023-03-21_10h03.48.110,tripletExp_regina_11082022,2022.2.4,120.44567989156656,
7,13,4,0,0.111111111111111,1.0,0,0.111111111111111,3.10526315789474,0,0.694444444444444,0.298245614035088,ReadingArea_rsl0-rcl11-esl100-rsm0-rcm11-esm310-rsr0-rcr69-esr29,exr/ReadingArea_rsl0-rcl11-esl100-rsm0-rcm11-esm310-rsr0-rcr69-esr29.exr,ReadingArea_rsl0-rcl11-esl100-rsm0-rcm11-esm310-rsr0-rcr69-esr29.npz,,,,,0,136,136,456,,left,green,2.7,665.8117210865021,,,2,,2,5,lightness,readingArea,realistic,75,2023-03-21_10h03.48.110,tripletExp_regina_11082022,2022.2.4,120.44567989156656,
0,5,7,0,0.027777777777778,0.298245614035088,0,1.0,0.298245614035088,0,0.111111111111111,1.0,ReadingArea_rsl0-rcl2-esl29-rsm0-rcm100-esm29-rsr0-rcr11-esr100,exr/ReadingArea_rsl0-rcl2-esl29-rsm0-rcm100-esm29-rsr0-rcr11-esr100.exr,ReadingArea_rsl0-rcl2-esl29-rsm0-rcm100-esm29-rsr0-rcr11-esr100.npz,,,,,0,137,137,217,,right,red,3.59,669.8061609268188,670.2693660259247,,2,,2,5,lightness,readingArea,realistic,75,2023-03-21_10h03.48.110,tripletExp_regina_11082022,2022.2.4,120.44567989156656,
6,11,8,0,0.027777777777778,1.0,0,1.0,1.0,0,0.25,1.0,ReadingArea_rsl0-rcl2-esl100-rsm0-rcm100-esm100-rsr0-rcr25-esr100,exr/ReadingArea_rsl0-rcl2-esl100-rsm0-rcm100-esm100-rsr0-rcr25-esr100.exr,ReadingArea_rsl0-rcl2-esl100-rsm0-rcm100-esm100-rsr0-rcr25-esr100.npz,,,,,0,138,138,176,,right,red,1.59,671.9698760509491,672.4884879589081,,2,,2,5,lightness,readingArea,realistic,75,2023-03-21_10h03.48.110,tripletExp_regina_11082022,2022.2.4,120.44567989156656,
1,6,11,0,0.111111111111111,0.298245614035088,0,0.027777777777778,1.0,0,1.0,1.0,ReadingArea_rsl0-rcl11-esl29-rsm0-rcm2-esm100-rsr0-rcr100-esr100,exr/ReadingArea_rsl0-rcl11-esl29-rsm0-rcm2-esm100-rsr0-rcr100-esr100.exr,ReadingArea_rsl0-rcl11-esl29-rsm0-rcm2-esm100-rsr0-rcr100-esr100.npz,,,,,0,139,139,39,,left,green,1.37,674.194097995758,674.6612739562988,,2,,2,5,lightness,readingArea,realistic,75,2023-03-21_10h03.48.110,tripletExp_regina_11082022,2022.2.4,120.44567989156656,
10,14,13,0,0.694444444444444,1.0,0,0.25,3.10526315789474,0,0.111111111111111,3.10526315789474,ReadingArea_rsl0-rcl69-esl100-rsm0-rcm25-esm310-rsr0-rcr11-esr310,exr/ReadingArea_rsl0-rcl69-esl100-rsm0-rcm25-esm310-rsr0-rcr11-esr310.exr,ReadingArea_rsl0-rcl69-esl100-rsm0-rcm25-esm310-rsr0-rcr11-esr310.npz,,,,,0,140,140,168,,left,green,1.4,676.3610439300537,676.8637919425964,,2,,2,5,lightness,readingArea,realistic,75,2023-03-21_10h03.48.110,tripletExp_regina_11082022,2022.2.4,120.44567989156656,
0,8,14,0,0.027777777777778,0.298245614035088,0,0.25,1.0,0,0.25,3.10526315789474,ReadingArea_rsl0-rcl2-esl29-rsm0-rcm25-esm100-rsr0-rcr25-esr310,exr/ReadingArea_rsl0-rcl2-esl29-rsm0-rcm25-esm100-rsr0-rcr25-esr310.exr,ReadingArea_rsl0-rcl2-esl29-rsm0-rcm25-esm100-rsr0-rcr25-esr310.npz,,,,,0,141,141,114,,right,red,3.58,680.338485956192,,,2,,2,5,lightness,readingArea,realistic,75,2023-03-21_10h03.48.110,tripletExp_regina_11082022,2022.2.4,120.44567989156656,
5,3,10,0,1.0,0.298245614035088,0,0.444444444444444,0.298245614035088,0,0.694444444444444,1.0,ReadingArea_rsl0-rcl100-esl29-rsm0-rcm44-esm29-rsr0-rcr69-esr100,exr/ReadingArea_rsl0-rcl100-esl29-rsm0-rcm44-esm29-rsr0-rcr69-esr100.exr,ReadingArea_rsl0-rcl100-esl29-rsm0-rcm44-esm29-rsr0-rcr69-esr100.npz,,,,,0,142,142,546,,left,green,1.72,682.5634279251099,,,2,,2,5,lightness,readingArea,realistic,75,2023-03-21_10h03.48.110,tripletExp_regina_11082022,2022.2.4,120.44567989156656,
14,0,3,0,0.25,3.10526315789474,0,0.027777777777778,0.298245614035088,0,0.444444444444444,0.298245614035088,ReadingArea_rsl0-rcl25-esl310-rsm0-rcm2-esm29-rsr0-rcr44-esr29,exr/ReadingArea_rsl0-rcl25-esl310-rsm0-rcm2-esm29-rsr0-rcr44-esr29.exr,ReadingArea_rsl0-rcl25-esl310-rsm0-rcm2-esm29-rsr0-rcr44-esr29.npz,,,,,0,143,143,75,,right,red,2.0,686.4909999370575,686.9456610679626,,2,,2,5,lightness,readingArea,realistic,75,2023-03-21_10h03.48.110,tripletExp_regina_11082022,2022.2.4,120.44567989156656,
7,13,5,0,0.111111111111111,1.0,0,0.111111111111111,3.10526315789474,0,1.0,0.298245614035088,ReadingArea_rsl0-rcl11-esl100-rsm0-rcm11-esm310-rsr0-rcr100-esr29,exr/ReadingArea_rsl0-rcl11-esl100-rsm0-rcm11-esm310-rsr0-rcr100-esr29.exr,ReadingArea_rsl0-rcl11-esl100-rsm0-rcm11-esm310-rsr0-rcr100-esr29.npz,,,,,0,144,144,332,,right,red,4.65,692.1880970001221,692.5935599803925,,2,,2,5,lightness,readingArea,realistic,75,2023-03-21_10h03.48.110,tripletExp_regina_11082022,2022.2.4,120.44567989156656,
8,6,0,0,0.25,1.0,0,0.027777777777778,1.0,0,0.027777777777778,0.298245614035088,ReadingArea_rsl0-rcl25-esl100-rsm0-rcm2-esm100-rsr0-rcr2-esr29,exr/ReadingArea_rsl0-rcl25-esl100-rsm0-rcm2-esm100-rsr0-rcr2-esr29.exr,ReadingArea_rsl0-rcl25-esl100-rsm0-rcm2-esm100-rsr0-rcr2-esr29.npz,,,,,0,145,145,187,,right,red,2.8,696.0598080158234,696.5192000865936,,2,,2,5,lightness,readingArea,realistic,75,2023-03-21_10h03.48.110,tripletExp_regina_11082022,2022.2.4,120.44567989156656,
9,4,11,0,0.444444444444444,1.0,0,0.694444444444444,0.298245614035088,0,1.0,1.0,ReadingArea_rsl0-rcl44-esl100-rsm0-rcm69-esm29-rsr0-rcr100-esr100,exr/ReadingArea_rsl0-rcl44-esl100-rsm0-rcm69-esm29-rsr0-rcr100-esr100.exr,ReadingArea_rsl0-rcl44-esl100-rsm0-rcm69-esm29-rsr0-rcr100-esr100.npz,,,,,0,146,146,133,,left,green,1.38,698.2241740226746,698.6464910507202,,2,,2,5,lightness,readingArea,realistic,75,2023-03-21_10h03.48.110,tripletExp_regina_11082022,2022.2.4,120.44567989156656,
12,5,2,0,0.027777777777778,3.10526315789474,0,1.0,0.298245614035088,0,0.25,0.298245614035088,ReadingArea_rsl0-rcl2-esl310-rsm0-rcm100-esm29-rsr0-rcr25-esr29,exr/ReadingArea_rsl0-rcl2-esl310-rsm0-rcm100-esm29-rsr0-rcr25-esr29.exr,ReadingArea_rsl0-rcl2-esl310-rsm0-rcm100-esm29-rsr0-rcr25-esr29.npz,,,,,0,147,147,415,,right,red,4.38,703.9207351207733,704.4112360477448,,2,,2,5,lightness,readingArea,realistic,75,2023-03-21_10h03.48.110,tripletExp_regina_11082022,2022.2.4,120.44567989156656,
0,5,1,0,0.027777777777778,0.298245614035088,0,1.0,0.298245614035088,0,0.111111111111111,0.298245614035088,ReadingArea_rsl0-rcl2-esl29-rsm0-rcm100-esm29-rsr0-rcr11-esr29,exr/ReadingArea_rsl0-rcl2-esl29-rsm0-rcm100-esm29-rsr0-rcr11-esr29.exr,ReadingArea_rsl0-rcl2-esl29-rsm0-rcm100-esm29-rsr0-rcr11-esr29.npz,,,,,0,148,148,367,,right,red,1.23,706.097039937973,706.5549321174622,,2,,2,5,lightness,readingArea,realistic,75,2023-03-21_10h03.48.110,tripletExp_regina_11082022,2022.2.4,120.44567989156656,
5,0,11,0,1.0,0.298245614035088,0,0.027777777777778,0.298245614035088,0,1.0,1.0,ReadingArea_rsl0-rcl100-esl29-rsm0-rcm2-esm29-rsr0-rcr100-esr100,exr/ReadingArea_rsl0-rcl100-esl29-rsm0-rcm2-esm29-rsr0-rcr100-esr100.exr,ReadingArea_rsl0-rcl100-esl29-rsm0-rcm2-esm29-rsr0-rcr100-esr100.npz,,,,,0,149,149,547,,left,green,1.24,708.2769949436188,708.4830679893494,,2,,2,5,lightness,readingArea,realistic,75,2023-03-21_10h03.48.110,tripletExp_regina_11082022,2022.2.4,120.44567989156656,
12,0,2,0,0.027777777777778,3.10526315789474,0,0.027777777777778,0.298245614035088,0,0.25,0.298245614035088,ReadingArea_rsl0-rcl2-esl310-rsm0-rcm2-esm29-rsr0-rcr25-esr29,exr/ReadingArea_rsl0-rcl2-esl310-rsm0-rcm2-esm29-rsr0-rcr25-esr29.exr,ReadingArea_rsl0-rcl2-esl310-rsm0-rcm2-esm29-rsr0-rcr25-esr29.npz,,,,,0,150,150,77,,right,red,3.62,738.0769119262695,738.6983170509338,,3,,2,5,lightness,readingArea,realistic,75,2023-03-21_10h03.48.110,tripletExp_regina_11082022,2022.2.4,120.44567989156656,
6,11,1,0,0.027777777777778,1.0,0,1.0,1.0,0,0.111111111111111,0.298245614035088,ReadingArea_rsl0-rcl2-esl100-rsm0-rcm100-esm100-rsr0-rcr11-esr29,exr/ReadingArea_rsl0-rcl2-esl100-rsm0-rcm100-esm100-rsr0-rcr11-esr29.exr,ReadingArea_rsl0-rcl2-esl100-rsm0-rcm100-esm100-rsr0-rcr11-esr29.npz,,,,,0,151,151,436,,left,green,3.17,742.1773869991302,742.6210970878601,,3,,2,5,lightness,readingArea,realistic,75,2023-03-21_10h03.48.110,tripletExp_regina_11082022,2022.2.4,120.44567989156656,
9,13,5,0,0.444444444444444,1.0,0,0.111111111111111,3.10526315789474,0,1.0,0.298245614035088,ReadingArea_rsl0-rcl44-esl100-rsm0-rcm11-esm310-rsr0-rcr100-esr29,exr/ReadingArea_rsl0-rcl44-esl100-rsm0-rcm11-esm310-rsr0-rcr100-esr29.exr,ReadingArea_rsl0-rcl44-esl100-rsm0-rcm11-esm310-rsr0-rcr100-esr29.npz,,,,,0,152,152,349,,left,green,4.53,747.8879520893097,748.3902931213379,,3,,2,5,lightness,readingArea,realistic,75,2023-03-21_10h03.48.110,tripletExp_regina_11082022,2022.2.4,120.44567989156656,
13,1,3,0,0.111111111111111,3.10526315789474,0,0.111111111111111,0.298245614035088,0,0.444444444444444,0.298245614035088,ReadingArea_rsl0-rcl11-esl310-rsm0-rcm11-esm29-rsr0-rcr44-esr29,exr/ReadingArea_rsl0-rcl11-esl310-rsm0-rcm11-esm29-rsr0-rcr44-esr29.exr,ReadingArea_rsl0-rcl11-esl310-rsm0-rcm11-esm29-rsr0-rcr44-esr29.npz,,,,,0,153,153,588,,right,red,2.3,751.8866400718689,752.3636519908905,,3,,2,5,lightness,readingArea,realistic,75,2023-03-21_10h03.48.110,tripletExp_regina_11082022,2022.2.4,120.44567989156656,
0,7,9,0,0.027777777777778,0.298245614035088,0,0.111111111111111,1.0,0,0.444444444444444,1.0,ReadingArea_rsl0-rcl2-esl29-rsm0-rcm11-esm100-rsr0-rcr44-esr100,exr/ReadingArea_rsl0-rcl2-esl29-rsm0-rcm11-esm100-rsr0-rcr44-esr100.exr,ReadingArea_rsl0-rcl2-esl29-rsm0-rcm11-esm100-rsr0-rcr44-esr100.npz,,,,,0,154,154,463,,left,green,3.16,755.837867975235,756.2795600891113,,3,,2,5,lightness,readingArea,realistic,75,2023-03-21_10h03.48.110,tripletExp_regina_11082022,2022.2.4,120.44567989156656,
11,5,4,0,1.0,1.0,0,1.0,0.298245614035088,0,0.694444444444444,0.298245614035088,ReadingArea_rsl0-rcl100-esl100-rsm0-rcm100-esm29-rsr0-rcr69-esr29,exr/ReadingArea_rsl0-rcl100-esl100-rsm0-rcm100-esm29-rsr0-rcr69-esr29.exr,ReadingArea_rsl0-rcl100-esl100-rsm0-rcm100-esm29-rsr0-rcr69-esr29.npz,,,,,0,155,155,564,,right,red,2.48,759.7316009998322,760.1954910755157,,3,,2,5,lightness,readingArea,realistic,75,2023-03-21_10h03.48.110,tripletExp_regina_11082022,2022.2.4,120.44567989156656,
2,8,7,0,0.25,0.298245614035088,0,0.25,1.0,0,0.111111111111111,1.0,ReadingArea_rsl0-rcl25-esl29-rsm0-rcm25-esm100-rsr0-rcr11-esr100,exr/ReadingArea_rsl0-rcl25-esl29-rsm0-rcm25-esm100-rsr0-rcr11-esr100.exr,ReadingArea_rsl0-rcl25-esl29-rsm0-rcm25-esm100-rsr0-rcr11-esr100.npz,,,,,0,156,156,393,,right,red,3.12,763.6895310878754,764.1480059623718,,3,,2,5,lightness,readingArea,realistic,75,2023-03-21_10h03.48.110,tripletExp_regina_11082022,2022.2.4,120.44567989156656,
1,12,10,0,0.111111111111111,0.298245614035088,0,0.027777777777778,3.10526315789474,0,0.694444444444444,1.0,ReadingArea_rsl0-rcl11-esl29-rsm0-rcm2-esm310-rsr0-rcr69-esr100,exr/ReadingArea_rsl0-rcl11-esl29-rsm0-rcm2-esm310-rsr0-rcr69-esr100.exr,ReadingArea_rsl0-rcl11-esl29-rsm0-rcm2-esm310-rsr0-rcr69-esr100.npz,,,,,0,157,157,567,,left,green,1.18,765.8712561130524,766.35418009758,,3,,2,5,lightness,readingArea,realistic,75,2023-03-21_10h03.48.110,tripletExp_regina_11082022,2022.2.4,120.44567989156656,
8,3,12,0,0.25,1.0,0,0.444444444444444,0.298245614035088,0,0.027777777777778,3.10526315789474,ReadingArea_rsl0-rcl25-esl100-rsm0-rcm44-esm29-rsr0-rcr2-esr310,exr/ReadingArea_rsl0-rcl25-esl100-rsm0-rcm44-esm29-rsr0-rcr2-esr310.exr,ReadingArea_rsl0-rcl25-esl100-rsm0-rcm44-esm29-rsr0-rcr2-esr310.npz,,,,,0,158,158,22,,left,green,4.75,771.6213829517365,772.0861971378326,,3,,2,5,lightness,readingArea,realistic,75,2023-03-21_10h03.48.110,tripletExp_regina_11082022,2022.2.4,120.44567989156656,
1,14,8,0,0.111111111111111,0.298245614035088,0,0.25,3.10526315789474,0,0.25,1.0,ReadingArea_rsl0-rcl11-esl29-rsm0-rcm25-esm310-rsr0-rcr25-esr100,exr/ReadingArea_rsl0-rcl11-esl29-rsm0-rcm25-esm310-rsr0-rcr25-esr100.exr,ReadingArea_rsl0-rcl11-esl29-rsm0-rcm25-esm310-rsr0-rcr25-esr100.npz,,,,,0,159,159,108,,right,red,2.73,775.5578780174255,776.016844034195,,3,,2,5,lightness,readingArea,realistic,75,2023-03-21_10h03.48.110,tripletExp_regina_11082022,2022.2.4,120.44567989156656,
14,13,6,0,0.25,3.10526315789474,0,0.111111111111111,3.10526315789474,0,0.027777777777778,1.0,ReadingArea_rsl0-rcl25-esl310-rsm0-rcm11-esm310-rsr0-rcr2-esr100,exr/ReadingArea_rsl0-rcl25-esl310-rsm0-rcm11-esm310-rsr0-rcr2-esr100.exr,ReadingArea_rsl0-rcl25-esl310-rsm0-rcm11-esm310-rsr0-rcr2-esr100.npz,,,,,0,160,160,102,,left,green,3.23,779.5100529193878,779.9676370620728,,3,,2,5,lightness,readingArea,realistic,75,2023-03-21_10h03.48.110,tripletExp_regina_11082022,2022.2.4,120.44567989156656,
8,12,4,0,0.25,1.0,0,0.027777777777778,3.10526315789474,0,0.694444444444444,0.298245614035088,ReadingArea_rsl0-rcl25-esl100-rsm0-rcm2-esm310-rsr0-rcr69-esr29,exr/ReadingArea_rsl0-rcl25-esl100-rsm0-rcm2-esm310-rsr0-rcr69-esr29.exr,ReadingArea_rsl0-rcl25-esl100-rsm0-rcm2-esm310-rsr0-rcr69-esr29.npz,,,,,0,161,161,30,,right,red,3.58,783.4643831253052,783.9581959247589,,3,,2,5,lightness,readingArea,realistic,75,2023-03-21_10h03.48.110,tripletExp_regina_11082022,2022.2.4,120.44567989156656,
0,11,9,0,0.027777777777778,0.298245614035088,0,1.0,1.0,0,0.444444444444444,1.0,ReadingArea_rsl0-rcl2-esl29-rsm0-rcm100-esm100-rsr0-rcr44-esr100,exr/ReadingArea_rsl0-rcl2-esl29-rsm0-rcm100-esm100-rsr0-rcr44-esr100.exr,ReadingArea_rsl0-rcl2-esl29-rsm0-rcm100-esm100-rsr0-rcr44-esr100.npz,,,,,0,162,162,32,,right,red,1.68,785.670970916748,786.283744096756,,3,,2,5,lightness,readingArea,realistic,75,2023-03-21_10h03.48.110,tripletExp_regina_11082022,2022.2.4,120.44567989156656,
7,10,13,0,0.111111111111111,1.0,0,0.694444444444444,1.0,0,0.111111111111111,3.10526315789474,ReadingArea_rsl0-rcl11-esl100-rsm0-rcm69-esm100-rsr0-rcr11-esr310,exr/ReadingArea_rsl0-rcl11-esl100-rsm0-rcm69-esm100-rsr0-rcr11-esr310.exr,ReadingArea_rsl0-rcl11-esl100-rsm0-rcm69-esm100-rsr0-rcr11-esr310.npz,,,,,0,163,163,446,,right,red,1.88,787.9956929683685,788.4559049606323,,3,,2,5,lightness,readingArea,realistic,75,2023-03-21_10h03.48.110,tripletExp_regina_11082022,2022.2.4,120.44567989156656,
14,8,2,0,0.25,3.10526315789474,0,0.25,1.0,0,0.25,0.298245614035088,ReadingArea_rsl0-rcl25-esl310-rsm0-rcm25-esm100-rsr0-rcr25-esr29,exr/ReadingArea_rsl0-rcl25-esl310-rsm0-rcm25-esm100-rsr0-rcr25-esr29.exr,ReadingArea_rsl0-rcl25-esl310-rsm0-rcm25-esm100-rsr0-rcr25-esr29.npz,,,,,0,164,164,251,,right,red,3.1,791.9074211120605,792.464476108551,,3,,2,5,lightness,readingArea,realistic,75,2023-03-21_10h03.48.110,tripletExp_regina_11082022,2022.2.4,120.44567989156656,
8,9,2,0,0.25,1.0,0,0.444444444444444,1.0,0,0.25,0.298245614035088,ReadingArea_rsl0-rcl25-esl100-rsm0-rcm44-esm100-rsr0-rcr25-esr29,exr/ReadingArea_rsl0-rcl25-esl100-rsm0-rcm44-esm100-rsr0-rcr25-esr29.exr,ReadingArea_rsl0-rcl25-esl100-rsm0-rcm44-esm100-rsr0-rcr25-esr29.npz,,,,,0,165,165,559,,left,green,3.35,795.9282810688019,796.3741500377655,,3,,2,5,lightness,readingArea,realistic,75,2023-03-21_10h03.48.110,tripletExp_regina_11082022,2022.2.4,120.44567989156656,
11,5,1,0,1.0,1.0,0,1.0,0.298245614035088,0,0.111111111111111,0.298245614035088,ReadingArea_rsl0-rcl100-esl100-rsm0-rcm100-esm29-rsr0-rcr11-esr29,exr/ReadingArea_rsl0-rcl100-esl100-rsm0-rcm100-esm29-rsr0-rcr11-esr29.exr,ReadingArea_rsl0-rcl100-esl100-rsm0-rcm100-esm29-rsr0-rcr11-esr29.npz,,,,,0,166,166,48,,right,red,3.41,799.866574048996,800.3480169773102,,3,,2,5,lightness,readingArea,realistic,75,2023-03-21_10h03.48.110,tripletExp_regina_11082022,2022.2.4,120.44567989156656,
12,13,7,0,0.027777777777778,3.10526315789474,0,0.111111111111111,3.10526315789474,0,0.111111111111111,1.0,ReadingArea_rsl0-rcl2-esl310-rsm0-rcm11-esm310-rsr0-rcr11-esr100,exr/ReadingArea_rsl0-rcl2-esl310-rsm0-rcm11-esm310-rsr0-rcr11-esr100.exr,ReadingArea_rsl0-rcl2-esl310-rsm0-rcm11-esm310-rsr0-rcr11-esr100.npz,,,,,0,167,167,408,,right,red,4.47,805.5651061534882,806.0227360725403,,3,,2,5,lightness,readingArea,realistic,75,2023-03-21_10h03.48.110,tripletExp_regina_11082022,2022.2.4,120.44567989156656,
0,4,9,0,0.027777777777778,0.298245614035088,0,0.694444444444444,0.298245614035088,0,0.444444444444444,1.0,ReadingArea_rsl0-rcl2-esl29-rsm0-rcm69-esm29-rsr0-rcr44-esr100,exr/ReadingArea_rsl0-rcl2-esl29-rsm0-rcm69-esm29-rsr0-rcr44-esr100.exr,ReadingArea_rsl0-rcl2-esl29-rsm0-rcm69-esm29-rsr0-rcr44-esr100.npz,,,,,0,168,168,21,,right,red,1.49,807.7244410514832,808.2765300273895,,3,,2,5,lightness,readingArea,realistic,75,2023-03-21_10h03.48.110,tripletExp_regina_11082022,2022.2.4,120.44567989156656,
6,5,13,0,0.027777777777778,1.0,0,1.0,0.298245614035088,0,0.111111111111111,3.10526315789474,ReadingArea_rsl0-rcl2-esl100-rsm0-rcm100-esm29-rsr0-rcr11-esr310,exr/ReadingArea_rsl0-rcl2-esl100-rsm0-rcm100-esm29-rsr0-rcr11-esr310.exr,ReadingArea_rsl0-rcl2-esl100-rsm0-rcm100-esm29-rsr0-rcr11-esr310.npz,,,,,0,169,169,450,,right,red,2.15,811.7688839435577,812.2402729988098,,3,,2,5,lightness,readingArea,realistic,75,2023-03-21_10h03.48.110,tripletExp_regina_11082022,2022.2.4,120.44567989156656,
12,9,14,0,0.027777777777778,3.10526315789474,0,0.444444444444444,1.0,0,0.25,3.10526315789474,ReadingArea_rsl0-rcl2-esl310-rsm0-rcm44-esm100-rsr0-rcr25-esr310,exr/ReadingArea_rsl0-rcl2-esl310-rsm0-rcm44-esm100-rsr0-rcr25-esr310.exr,ReadingArea_rsl0-rcl2-esl310-rsm0-rcm44-esm100-rsr0-rcr25-esr310.npz,,,,,0,170,170,123,,right,red,3.46,815.7401180267334,816.2311670780182,,3,,2,5,lightness,readingArea,realistic,75,2023-03-21_10h03.48.110,tripletExp_regina_11082022,2022.2.4,120.44567989156656,
13,6,10,0,0.111111111111111,3.10526315789474,0,0.027777777777778,1.0,0,0.694444444444444,1.0,ReadingArea_rsl0-rcl11-esl310-rsm0-rcm2-esm100-rsr0-rcr69-esr100,exr/ReadingArea_rsl0-rcl11-esl310-rsm0-rcm2-esm100-rsr0-rcr69-esr100.exr,ReadingArea_rsl0-rcl11-esl310-rsm0-rcm2-esm100-rsr0-rcr69-esr100.npz,,,,,0,171,171,593,,left,green,1.49,817.9354710578918,,,3,,2,5,lightness,readingArea,realistic,75,2023-03-21_10h03.48.110,tripletExp_regina_11082022,2022.2.4,120.44567989156656,
3,12,4,0,0.444444444444444,0.298245614035088,0,0.027777777777778,3.10526315789474,0,0.694444444444444,0.298245614035088,ReadingArea_rsl0-rcl44-esl29-rsm0-rcm2-esm310-rsr0-rcr69-esr29,exr/ReadingArea_rsl0-rcl44-esl29-rsm0-rcm2-esm310-rsr0-rcr69-esr29.exr,ReadingArea_rsl0-rcl44-esl29-rsm0-rcm2-esm310-rsr0-rcr69-esr29.npz,,,,,0,172,172,426,,left,green,4.69,823.6412830352783,824.1896500587463,,3,,2,5,lightness,readingArea,realistic,75,2023-03-21_10h03.48.110,tripletExp_regina_11082022,2022.2.4,120.44567989156656,
14,6,13,0,0.25,3.10526315789474,0,0.027777777777778,1.0,0,0.111111111111111,3.10526315789474,ReadingArea_rsl0-rcl25-esl310-rsm0-rcm2-esm100-rsr0-rcr11-esr310,exr/ReadingArea_rsl0-rcl25-esl310-rsm0-rcm2-esm100-rsr0-rcr11-esr310.exr,ReadingArea_rsl0-rcl25-esl310-rsm0-rcm2-esm100-rsr0-rcr11-esr310.npz,,,,,0,173,173,91,,right,red,3.22,827.6512320041656,828.106153011322,,3,,2,5,lightness,readingArea,realistic,75,2023-03-21_10h03.48.110,tripletExp_regina_11082022,2022.2.4,120.44567989156656,
9,3,14,0,0.444444444444444,1.0,0,0.444444444444444,0.298245614035088,0,0.25,3.10526315789474,ReadingArea_rsl0-rcl44-esl100-rsm0-rcm44-esm29-rsr0-rcr25-esr310,exr/ReadingArea_rsl0-rcl44-esl100-rsm0-rcm44-esm29-rsr0-rcr25-esr310.exr,ReadingArea_rsl0-rcl44-esl100-rsm0-rcm44-esm29-rsr0-rcr25-esr310.npz,,,,,0,174,174,17,,left,green,1.52,829.827085018158,830.3546841144562,,3,,2,5,lightness,readingArea,realistic,75,2023-03-21_10h03.48.110,tripletExp_regina_11082022,2022.2.4,120.44567989156656,
11,8,0,0,1.0,1.0,0,0.25,1.0,0,0.027777777777778,0.298245614035088,ReadingArea_rsl0-rcl100-esl100-rsm0-rcm25-esm100-rsr0-rcr2-esr29,exr/ReadingArea_rsl0-rcl100-esl100-rsm0-rcm25-esm100-rsr0-rcr2-esr29.exr,ReadingArea_rsl0-rcl100-esl100-rsm0-rcm25-esm100-rsr0-rcr2-esr29.npz,,,,,0,175,175,81,,right,red,1.67,832.0548150539398,832.5110790729523,,3,,2,5,lightness,readingArea,realistic,75,2023-03-21_10h03.48.110,tripletExp_regina_11082022,2022.2.4,120.44567989156656,
3,12,6,0,0.444444444444444,0.298245614035088,0,0.027777777777778,3.10526315789474,0,0.027777777777778,1.0,ReadingArea_rsl0-rcl44-esl29-rsm0-rcm2-esm310-rsr0-rcr2-esr100,exr/ReadingArea_rsl0-rcl44-esl29-rsm0-rcm2-esm310-rsr0-rcr2-esr100.exr,ReadingArea_rsl0-rcl44-esl29-rsm0-rcm2-esm310-rsr0-rcr2-esr100.npz,,,,,0,176,176,353,,right,red,1.48,834.2272820472717,834.6919980049133,,3,,2,5,lightness,readingArea,realistic,75,2023-03-21_10h03.48.110,tripletExp_regina_11082022,2022.2.4,120.44567989156656,
14,10,9,0,0.25,3.10526315789474,0,0.694444444444444,1.0,0,0.444444444444444,1.0,ReadingArea_rsl0-rcl25-esl310-rsm0-rcm69-esm100-rsr0-rcr44-esr100,exr/ReadingArea_rsl0-rcl25-esl310-rsm0-rcm69-esm100-rsr0-rcr44-esr100.exr,ReadingArea_rsl0-rcl25-esl310-rsm0-rcm69-esm100-rsr0-rcr44-esr100.npz,,,,,0,177,177,402,,right,red,4.24,839.9109361171722,840.3896491527557,,3,,2,5,lightness,readingArea,realistic,75,2023-03-21_10h03.48.110,tripletExp_regina_11082022,2022.2.4,120.44567989156656,
5,14,3,0,1.0,0.298245614035088,0,0.25,3.10526315789474,0,0.444444444444444,0.298245614035088,ReadingArea_rsl0-rcl100-esl29-rsm0-rcm25-esm310-rsr0-rcr44-esr29,exr/ReadingArea_rsl0-rcl100-esl29-rsm0-rcm25-esm310-rsr0-rcr44-esr29.exr,ReadingArea_rsl0-rcl100-esl29-rsm0-rcm25-esm310-rsr0-rcr44-esr29.npz,,,,,0,178,178,93,,left,green,3.03,843.8781590461731,844.3279430866241,,3,,2,5,lightness,readingArea,realistic,75,2023-03-21_10h03.48.110,tripletExp_regina_11082022,2022.2.4,120.44567989156656,
8,1,3,0,0.25,1.0,0,0.111111111111111,0.298245614035088,0,0.444444444444444,0.298245614035088,ReadingArea_rsl0-rcl25-esl100-rsm0-rcm11-esm29-rsr0-rcr44-esr29,exr/ReadingArea_rsl0-rcl25-esl100-rsm0-rcm11-esm29-rsr0-rcr44-esr29.exr,ReadingArea_rsl0-rcl25-esl100-rsm0-rcm11-esm29-rsr0-rcr44-esr29.npz,,,,,0,179,179,490,,right,red,1.63,846.0329620838165,846.5344979763031,,3,,2,5,lightness,readingArea,realistic,75,2023-03-21_10h03.48.110,tripletExp_regina_11082022,2022.2.4,120.44567989156656,
0,5,2,0,0.027777777777778,0.298245614035088,0,1.0,0.298245614035088,0,0.25,0.298245614035088,ReadingArea_rsl0-rcl2-esl29-rsm0-rcm100-esm29-rsr0-rcr25-esr29,exr/ReadingArea_rsl0-rcl2-esl29-rsm0-rcm100-esm29-rsr0-rcr25-esr29.exr,ReadingArea_rsl0-rcl2-esl29-rsm0-rcm100-esm29-rsr0-rcr25-esr29.npz,,,,,0,180,180,25,,right,red,2.6,850.0226759910583,850.4919929504395,,3,,2,5,lightness,readingArea,realistic,75,2023-03-21_10h03.48.110,tripletExp_regina_11082022,2022.2.4,120.44567989156656,
11,8,10,0,1.0,1.0,0,0.25,1.0,0,0.694444444444444,1.0,ReadingArea_rsl0-rcl100-esl100-rsm0-rcm25-esm100-rsr0-rcr69-esr100,exr/ReadingArea_rsl0-rcl100-esl100-rsm0-rcm25-esm100-rsr0-rcr69-esr100.exr,ReadingArea_rsl0-rcl100-esl100-rsm0-rcm25-esm100-rsr0-rcr69-esr100.npz,,,,,0,181,181,67,,right,red,2.28,853.9764859676361,854.4382269382477,,3,,2,5,lightness,readingArea,realistic,75,2023-03-21_10h03.48.110,tripletExp_regina_11082022,2022.2.4,120.44567989156656,
11,14,9,0,1.0,1.0,0,0.25,3.10526315789474,0,0.444444444444444,1.0,ReadingArea_rsl0-rcl100-esl100-rsm0-rcm25-esm310-rsr0-rcr44-esr100,exr/ReadingArea_rsl0-rcl100-esl100-rsm0-rcm25-esm310-rsr0-rcr44-esr100.exr,ReadingArea_rsl0-rcl100-esl100-rsm0-rcm25-esm310-rsr0-rcr44-esr100.npz,,,,,0,182,182,43,,right,red,1.2,856.1248679161072,856.601774930954,,3,,2,5,lightness,readingArea,realistic,75,2023-03-21_10h03.48.110,tripletExp_regina_11082022,2022.2.4,120.44567989156656,
6,12,3,0,0.027777777777778,1.0,0,0.027777777777778,3.10526315789474,0,0.444444444444444,0.298245614035088,ReadingArea_rsl0-rcl2-esl100-rsm0-rcm2-esm310-rsr0-rcr44-esr29,exr/ReadingArea_rsl0-rcl2-esl100-rsm0-rcm2-esm310-rsr0-rcr44-esr29.exr,ReadingArea_rsl0-rcl2-esl100-rsm0-rcm2-esm310-rsr0-rcr44-esr29.npz,,,,,0,183,183,284,,left,green,1.49,858.3267159461975,858.7919149398804,,3,,2,5,lightness,readingArea,realistic,75,2023-03-21_10h03.48.110,tripletExp_regina_11082022,2022.2.4,120.44567989156656,
3,1,6,0,0.444444444444444,0.298245614035088,0,0.111111111111111,0.298245614035088,0,0.027777777777778,1.0,ReadingArea_rsl0-rcl44-esl29-rsm0-rcm11-esm29-rsr0-rcr2-esr100,exr/ReadingArea_rsl0-rcl44-esl29-rsm0-rcm11-esm29-rsr0-rcr2-esr100.exr,ReadingArea_rsl0-rcl44-esl29-rsm0-rcm11-esm29-rsr0-rcr2-esr100.npz,,,,,0,184,184,464,,right,red,1.0,860.4878311157227,860.9496240615845,,3,,2,5,lightness,readingArea,realistic,75,2023-03-21_10h03.48.110,tripletExp_regina_11082022,2022.2.4,120.44567989156656,
7,9,8,0,0.111111111111111,1.0,0,0.444444444444444,1.0,0,0.25,1.0,ReadingArea_rsl0-rcl11-esl100-rsm0-rcm44-esm100-rsr0-rcr25-esr100,exr/ReadingArea_rsl0-rcl11-esl100-rsm0-rcm44-esm100-rsr0-rcr25-esr100.exr,ReadingArea_rsl0-rcl11-esl100-rsm0-rcm44-esm100-rsr0-rcr25-esr100.npz,,,,,0,185,185,515,,right,red,1.31,862.6677799224854,863.1407101154327,,3,,2,5,lightness,readingArea,realistic,75,2023-03-21_10h03.48.110,tripletExp_regina_11082022,2022.2.4,120.44567989156656,
2,8,3,0,0.25,0.298245614035088,0,0.25,1.0,0,0.444444444444444,0.298245614035088,ReadingArea_rsl0-rcl25-esl29-rsm0-rcm25-esm100-rsr0-rcr44-esr29,exr/ReadingArea_rsl0-rcl25-esl29-rsm0-rcm25-esm100-rsr0-rcr44-esr29.exr,ReadingArea_rsl0-rcl25-esl29-rsm0-rcm25-esm100-rsr0-rcr44-esr29.npz,,,,,0,186,186,568,,right,red,1.06,864.8589310646057,,,3,,2,5,lightness,readingArea,realistic,75,2023-03-21_10h03.48.110,tripletExp_regina_11082022,2022.2.4,120.44567989156656,
14,6,12,0,0.25,3.10526315789474,0,0.027777777777778,1.0,0,0.027777777777778,3.10526315789474,ReadingArea_rsl0-rcl25-esl310-rsm0-rcm2-esm100-rsr0-rcr2-esr310,exr/ReadingArea_rsl0-rcl25-esl310-rsm0-rcm2-esm100-rsr0-rcr2-esr310.exr,ReadingArea_rsl0-rcl25-esl310-rsm0-rcm2-esm100-rsr0-rcr2-esr310.npz,,,,,0,187,187,242,,right,red,1.23,867.0217010974884,867.5254039764404,,3,,2,5,lightness,readingArea,realistic,75,2023-03-21_10h03.48.110,tripletExp_regina_11082022,2022.2.4,120.44567989156656,
6,5,0,0,0.027777777777778,1.0,0,1.0,0.298245614035088,0,0.027777777777778,0.298245614035088,ReadingArea_rsl0-rcl2-esl100-rsm0-rcm100-esm29-rsr0-rcr2-esr29,exr/ReadingArea_rsl0-rcl2-esl100-rsm0-rcm100-esm29-rsr0-rcr2-esr29.exr,ReadingArea_rsl0-rcl2-esl100-rsm0-rcm100-esm29-rsr0-rcr2-esr29.npz,,,,,0,188,188,558,,left,green,1.3,869.2350931167603,,,3,,2,5,lightness,readingArea,realistic,75,2023-03-21_10h03.48.110,tripletExp_regina_11082022,2022.2.4,120.44567989156656,
14,2,1,0,0.25,3.10526315789474,0,0.25,0.298245614035088,0,0.111111111111111,0.298245614035088,ReadingArea_rsl0-rcl25-esl310-rsm0-rcm25-esm29-rsr0-rcr11-esr29,exr/ReadingArea_rsl0-rcl25-esl310-rsm0-rcm25-esm29-rsr0-rcr11-esr29.exr,ReadingArea_rsl0-rcl25-esl310-rsm0-rcm25-esm29-rsr0-rcr11-esr29.npz,,,,,0,189,189,321,,right,red,2.82,873.1794121265411,873.6300311088562,,3,,2,5,lightness,readingArea,realistic,75,2023-03-21_10h03.48.110,tripletExp_regina_11082022,2022.2.4,120.44567989156656,
11,13,1,0,1.0,1.0,0,0.111111111111111,3.10526315789474,0,0.111111111111111,0.298245614035088,ReadingArea_rsl0-rcl100-esl100-rsm0-rcm11-esm310-rsr0-rcr11-esr29,exr/ReadingArea_rsl0-rcl100-esl100-rsm0-rcm11-esm310-rsr0-rcr11-esr29.exr,ReadingArea_rsl0-rcl100-esl100-rsm0-rcm11-esm310-rsr0-rcr11-esr29.npz,,,,,0,190,190,185,,right,red,3.08,877.1157100200653,877.5525350570679,,3,,2,5,lightness,readingArea,realistic,75,2023-03-21_10h03.48.110,tripletExp_regina_11082022,2022.2.4,120.44567989156656,
11,7,8,0,1.0,1.0,0,0.111111111111111,1.0,0,0.25,1.0,ReadingArea_rsl0-rcl100-esl100-rsm0-rcm11-esm100-rsr0-rcr25-esr100,exr/ReadingArea_rsl0-rcl100-esl100-rsm0-rcm11-esm100-rsr0-rcr25-esr100.exr,ReadingArea_rsl0-rcl100-esl100-rsm0-rcm11-esm100-rsr0-rcr25-esr100.npz,,,,,0,191,191,37,,right,red,2.07,881.0486810207367,881.5158250331879,,3,,2,5,lightness,readingArea,realistic,75,2023-03-21_10h03.48.110,tripletExp_regina_11082022,2022.2.4,120.44567989156656,
10,5,13,0,0.694444444444444,1.0,0,1.0,0.298245614035088,0,0.111111111111111,3.10526315789474,ReadingArea_rsl0-rcl69-esl100-rsm0-rcm100-esm29-rsr0-rcr11-esr310,exr/ReadingArea_rsl0-rcl69-esl100-rsm0-rcm100-esm29-rsr0-rcr11-esr310.exr,ReadingArea_rsl0-rcl69-esl100-rsm0-rcm100-esm29-rsr0-rcr11-esr310.npz,,,,,0,192,192,478,,right,red,2.79,885.0023620128632,885.4571459293365,,3,,2,5,lightness,readingArea,realistic,75,2023-03-21_10h03.48.110,tripletExp_regina_11082022,2022.2.4,120.44567989156656,
7,8,11,0,0.111111111111111,1.0,0,0.25,1.0,0,1.0,1.0,ReadingArea_rsl0-rcl11-esl100-rsm0-rcm25-esm100-rsr0-rcr100-esr100,exr/ReadingArea_rsl0-rcl11-esl100-rsm0-rcm25-esm100-rsr0-rcr100-esr100.exr,ReadingArea_rsl0-rcl11-esl100-rsm0-rcm25-esm100-rsr0-rcr100-esr100.npz,,,,,0,193,193,363,,left,green,3.08,888.9262290000916,889.3856239318848,,3,,2,5,lightness,readingArea,realistic,75,2023-03-21_10h03.48.110,tripletExp_regina_11082022,2022.2.4,120.44567989156656,
11,5,3,0,1.0,1.0,0,1.0,0.298245614035088,0,0.444444444444444,0.298245614035088,ReadingArea_rsl0-rcl100-esl100-rsm0-rcm100-esm29-rsr0-rcr44-esr29,exr/ReadingArea_rsl0-rcl100-esl100-rsm0-rcm100-esm29-rsr0-rcr44-esr29.exr,ReadingArea_rsl0-rcl100-esl100-rsm0-rcm100-esm29-rsr0-rcr44-esr29.npz,,,,,0,194,194,172,,right,red,2.85,892.8603401184082,893.3253200054169,,3,,2,5,lightness,readingArea,realistic,75,2023-03-21_10h03.48.110,tripletExp_regina_11082022,2022.2.4,120.44567989156656,
7,9,5,0,0.111111111111111,1.0,0,0.444444444444444,1.0,0,1.0,0.298245614035088,ReadingArea_rsl0-rcl11-esl100-rsm0-rcm44-esm100-rsr0-rcr100-esr29,exr/ReadingArea_rsl0-rcl11-esl100-rsm0-rcm44-esm100-rsr0-rcr100-esr29.exr,ReadingArea_rsl0-rcl11-esl100-rsm0-rcm44-esm100-rsr0-rcr100-esr29.npz,,,,,0,195,195,291,,right,red,2.56,896.7861289978027,897.2647490501404,,3,,2,5,lightness,readingArea,realistic,75,2023-03-21_10h03.48.110,tripletExp_regina_11082022,2022.2.4,120.44567989156656,
2,11,5,0,0.25,0.298245614035088,0,1.0,1.0,0,1.0,0.298245614035088,ReadingArea_rsl0-rcl25-esl29-rsm0-rcm100-esm100-rsr0-rcr100-esr29,exr/ReadingArea_rsl0-rcl25-esl29-rsm0-rcm100-esm100-rsr0-rcr100-esr29.exr,ReadingArea_rsl0-rcl25-esl29-rsm0-rcm100-esm100-rsr0-rcr100-esr29.npz,,,,,0,196,196,491,,right,red,4.11,902.5137569904329,902.9766619205476,,3,,2,5,lightness,readingArea,realistic,75,2023-03-21_10h03.48.110,tripletExp_regina_11082022,2022.2.4,120.44567989156656,
3,14,10,0,0.444444444444444,0.298245614035088,0,0.25,3.10526315789474,0,0.694444444444444,1.0,ReadingArea_rsl0-rcl44-esl29-rsm0-rcm25-esm310-rsr0-rcr69-esr100,exr/ReadingArea_rsl0-rcl44-esl29-rsm0-rcm25-esm310-rsr0-rcr69-esr100.exr,ReadingArea_rsl0-rcl44-esl29-rsm0-rcm25-esm310-rsr0-rcr69-esr100.npz,,,,,0,197,197,279,,right,red,1.27,904.6873710155488,905.1367580890656,,3,,2,5,lightness,readingArea,realistic,75,2023-03-21_10h03.48.110,tripletExp_regina_11082022,2022.2.4,120.44567989156656,
3,9,13,0,0.444444444444444,0.298245614035088,0,0.444444444444444,1.0,0,0.111111111111111,3.10526315789474,ReadingArea_rsl0-rcl44-esl29-rsm0-rcm44-esm100-rsr0-rcr11-esr310,exr/ReadingArea_rsl0-rcl44-esl29-rsm0-rcm44-esm100-rsr0-rcr11-esr310.exr,ReadingArea_rsl0-rcl44-esl29-rsm0-rcm44-esm100-rsr0-rcr11-esr310.npz,,,,,0,198,198,341,,right,red,4.44,910.4076781272888,,,3,,2,5,lightness,readingArea,realistic,75,2023-03-21_10h03.48.110,tripletExp_regina_11082022,2022.2.4,120.44567989156656,
9,3,0,0,0.444444444444444,1.0,0,0.444444444444444,0.298245614035088,0,0.027777777777778,0.298245614035088,ReadingArea_rsl0-rcl44-esl100-rsm0-rcm44-esm29-rsr0-rcr2-esr29,exr/ReadingArea_rsl0-rcl44-esl100-rsm0-rcm44-esm29-rsr0-rcr2-esr29.exr,ReadingArea_rsl0-rcl44-esl100-rsm0-rcm44-esm29-rsr0-rcr2-esr29.npz,,,,,0,199,199,120,,left,green,4.23,916.1513519287108,916.6243929862976,,3,,2,5,lightness,readingArea,realistic,75,2023-03-21_10h03.48.110,tripletExp_regina_11082022,2022.2.4,120.44567989156656,
10,7,4,0,0.694444444444444,1.0,0,0.111111111111111,1.0,0,0.694444444444444,0.298245614035088,ReadingArea_rsl0-rcl69-esl100-rsm0-rcm11-esm100-rsr0-rcr69-esr29,exr/ReadingArea_rsl0-rcl69-esl100-rsm0-rcm11-esm100-rsr0-rcr69-esr29.exr,ReadingArea_rsl0-rcl69-esl100-rsm0-rcm11-esm100-rsr0-rcr69-esr29.npz,,,,,0,200,200,223,,right,red,1.06,918.337324142456,918.827597141266,,3,,2,5,lightness,readingArea,realistic,75,2023-03-21_10h03.48.110,tripletExp_regina_11082022,2022.2.4,120.44567989156656,
8,10,9,0,0.25,1.0,0,0.694444444444444,1.0,0,0.444444444444444,1.0,ReadingArea_rsl0-rcl25-esl100-rsm0-rcm69-esm100-rsr0-rcr44-esr100,exr/ReadingArea_rsl0-rcl25-esl100-rsm0-rcm69-esm100-rsr0-rcr44-esr100.exr,ReadingArea_rsl0-rcl25-esl100-rsm0-rcm69-esm100-rsr0-rcr44-esr100.npz,,,,,0,201,201,342,,right,red,1.41,920.538402080536,921.009968996048,,3,,2,5,lightness,readingArea,realistic,75,2023-03-21_10h03.48.110,tripletExp_regina_11082022,2022.2.4,120.44567989156656,
14,0,9,0,0.25,3.10526315789474,0,0.027777777777778,0.298245614035088,0,0.444444444444444,1.0,ReadingArea_rsl0-rcl25-esl310-rsm0-rcm2-esm29-rsr0-rcr44-esr100,exr/ReadingArea_rsl0-rcl25-esl310-rsm0-rcm2-esm29-rsr0-rcr44-esr100.exr,ReadingArea_rsl0-rcl25-esl310-rsm0-rcm2-esm29-rsr0-rcr44-esr100.npz,,,,,0,202,202,90,,right,red,1.39,922.7159781455994,923.1538910865784,,3,,2,5,lightness,readingArea,realistic,75,2023-03-21_10h03.48.110,tripletExp_regina_11082022,2022.2.4,120.44567989156656,
10,7,8,0,0.694444444444444,1.0,0,0.111111111111111,1.0,0,0.25,1.0,ReadingArea_rsl0-rcl69-esl100-rsm0-rcm11-esm100-rsr0-rcr25-esr100,exr/ReadingArea_rsl0-rcl69-esl100-rsm0-rcm11-esm100-rsr0-rcr25-esr100.exr,ReadingArea_rsl0-rcl69-esl100-rsm0-rcm11-esm100-rsr0-rcr25-esr100.npz,,,,,0,203,203,57,,right,red,1.17,924.8603489398956,,,3,,2,5,lightness,readingArea,realistic,75,2023-03-21_10h03.48.110,tripletExp_regina_11082022,2022.2.4,120.44567989156656,
