index_left,index_middle,index_right,reflectance_surround_left,reflectance_center_left,emission_spot_left,reflectance_surround_middle,reflectance_center_middle,emission_spot_middle,reflectance_surround_right,reflectance_center_right,emission_spot_right,ImageName,ImageExr,ImageNpy,trials_2.thisRepN,trials_2.thisTrialN,trials_2.thisN,trials_2.thisIndex,trials.thisRepN,trials.thisTrialN,trials.thisN,trials.thisIndex,sound_1.started,BB_Trial.resp,BB_Trial.color,BB_Trial.rt,text.started,text.stopped,sound_2.started,block,participant,session,L/B,scene,condition,nTrialsPerBlock,date,expName,psychopyVersion,frameRate,Unnamed: 41
1,14,5,0,0.111111111111111,0.298245614035088,0,0.25,3.10526315789474,0,1.0,0.298245614035088,ReadingArea_rsl0-rcl11-esl29-rsm0-rcm25-esm310-rsr0-rcr100-esr29,exr/ReadingArea_rsl0-rcl11-esl29-rsm0-rcm25-esm310-rsr0-rcr100-esr29.exr,ReadingArea_rsl0-rcl11-esl29-rsm0-rcm25-esm310-rsr0-rcr100-esr29.npz,,,,,0,0,0,509,109.0400889635086,right,red,0.96,116.84910702705383,117.33316111564636,44.04139311313629,1,5,5,lightness,readingArea,realistic,75,2023-03-15_12h56.57.919,tripletExp_regina_11082022,2022.2.4,119.95584206100888,
9,4,6,0,0.444444444444444,1.0,0,0.694444444444444,0.298245614035088,0,0.027777777777778,1.0,ReadingArea_rsl0-rcl44-esl100-rsm0-rcm69-esm29-rsr0-rcr2-esr100,exr/ReadingArea_rsl0-rcl44-esl100-rsm0-rcm69-esm29-rsr0-rcr2-esr100.exr,ReadingArea_rsl0-rcl44-esl100-rsm0-rcm69-esm29-rsr0-rcr2-esr100.npz,,,,,0,1,1,453,,left,green,0.82,119.05155611038208,119.49064993858336,,1,5,5,lightness,readingArea,realistic,75,2023-03-15_12h56.57.919,tripletExp_regina_11082022,2022.2.4,119.95584206100888,
11,2,4,0,1.0,1.0,0,0.25,0.298245614035088,0,0.694444444444444,0.298245614035088,ReadingArea_rsl0-rcl100-esl100-rsm0-rcm25-esm29-rsr0-rcr69-esr29,exr/ReadingArea_rsl0-rcl100-esl100-rsm0-rcm25-esm29-rsr0-rcr69-esr29.exr,ReadingArea_rsl0-rcl100-esl100-rsm0-rcm25-esm29-rsr0-rcr69-esr29.npz,,,,,0,2,2,359,,right,red,0.8,121.21340608596802,121.639790058136,,1,5,5,lightness,readingArea,realistic,75,2023-03-15_12h56.57.919,tripletExp_regina_11082022,2022.2.4,119.95584206100888,
6,2,12,0,0.027777777777778,1.0,0,0.25,0.298245614035088,0,0.027777777777778,3.10526315789474,ReadingArea_rsl0-rcl2-esl100-rsm0-rcm25-esm29-rsr0-rcr2-esr310,exr/ReadingArea_rsl0-rcl2-esl100-rsm0-rcm25-esm29-rsr0-rcr2-esr310.exr,ReadingArea_rsl0-rcl2-esl100-rsm0-rcm25-esm29-rsr0-rcr2-esr310.npz,,,,,0,3,3,480,,right,red,0.85,123.36322212219238,,,1,5,5,lightness,readingArea,realistic,75,2023-03-15_12h56.57.919,tripletExp_regina_11082022,2022.2.4,119.95584206100888,
4,8,10,0,0.694444444444444,0.298245614035088,0,0.25,1.0,0,0.694444444444444,1.0,ReadingArea_rsl0-rcl69-esl29-rsm0-rcm25-esm100-rsr0-rcr69-esr100,exr/ReadingArea_rsl0-rcl69-esl29-rsm0-rcm25-esm100-rsr0-rcr69-esr100.exr,ReadingArea_rsl0-rcl69-esl29-rsm0-rcm25-esm100-rsr0-rcr69-esr100.npz,,,,,0,4,4,221,,left,green,1.2,125.50306797027588,125.89889192581175,,1,5,5,lightness,readingArea,realistic,75,2023-03-15_12h56.57.919,tripletExp_regina_11082022,2022.2.4,119.95584206100888,
0,4,6,0,0.027777777777778,0.298245614035088,0,0.694444444444444,0.298245614035088,0,0.027777777777778,1.0,ReadingArea_rsl0-rcl2-esl29-rsm0-rcm69-esm29-rsr0-rcr2-esr100,exr/ReadingArea_rsl0-rcl2-esl29-rsm0-rcm69-esm29-rsr0-rcr2-esr100.exr,ReadingArea_rsl0-rcl2-esl29-rsm0-rcm69-esm29-rsr0-rcr2-esr100.npz,,,,,0,5,5,49,,right,red,1.04,127.61270403862,128.01852798461914,,1,5,5,lightness,readingArea,realistic,75,2023-03-15_12h56.57.919,tripletExp_regina_11082022,2022.2.4,119.95584206100888,
1,12,11,0,0.111111111111111,0.298245614035088,0,0.027777777777778,3.10526315789474,0,1.0,1.0,ReadingArea_rsl0-rcl11-esl29-rsm0-rcm2-esm310-rsr0-rcr100-esr100,exr/ReadingArea_rsl0-rcl11-esl29-rsm0-rcm2-esm310-rsr0-rcr100-esr100.exr,ReadingArea_rsl0-rcl11-esl29-rsm0-rcm2-esm310-rsr0-rcr100-esr100.npz,,,,,0,6,6,178,,left,green,1.01,129.7370309829712,130.16213011741638,,1,5,5,lightness,readingArea,realistic,75,2023-03-15_12h56.57.919,tripletExp_regina_11082022,2022.2.4,119.95584206100888,
11,5,1,0,1.0,1.0,0,1.0,0.298245614035088,0,0.111111111111111,0.298245614035088,ReadingArea_rsl0-rcl100-esl100-rsm0-rcm100-esm29-rsr0-rcr11-esr29,exr/ReadingArea_rsl0-rcl100-esl100-rsm0-rcm100-esm29-rsr0-rcr11-esr29.exr,ReadingArea_rsl0-rcl100-esl100-rsm0-rcm100-esm29-rsr0-rcr11-esr29.npz,,,,,0,7,7,48,,left,green,0.98,131.882404088974,132.31221795082092,,1,5,5,lightness,readingArea,realistic,75,2023-03-15_12h56.57.919,tripletExp_regina_11082022,2022.2.4,119.95584206100888,
5,14,4,0,1.0,0.298245614035088,0,0.25,3.10526315789474,0,0.694444444444444,0.298245614035088,ReadingArea_rsl0-rcl100-esl29-rsm0-rcm25-esm310-rsr0-rcr69-esr29,exr/ReadingArea_rsl0-rcl100-esl29-rsm0-rcm25-esm310-rsr0-rcr69-esr29.exr,ReadingArea_rsl0-rcl100-esl29-rsm0-rcm25-esm310-rsr0-rcr69-esr29.npz,,,,,0,8,8,69,,right,red,1.45,134.0311460494995,,,1,5,5,lightness,readingArea,realistic,75,2023-03-15_12h56.57.919,tripletExp_regina_11082022,2022.2.4,119.95584206100888,
10,6,13,0,0.694444444444444,1.0,0,0.027777777777778,1.0,0,0.111111111111111,3.10526315789474,ReadingArea_rsl0-rcl69-esl100-rsm0-rcm2-esm100-rsr0-rcr11-esr310,exr/ReadingArea_rsl0-rcl69-esl100-rsm0-rcm2-esm100-rsr0-rcr11-esr310.exr,ReadingArea_rsl0-rcl69-esl100-rsm0-rcm2-esm100-rsr0-rcr11-esr310.npz,,,,,0,9,9,41,,right,red,1.31,136.16253995895386,136.60678100585938,,1,5,5,lightness,readingArea,realistic,75,2023-03-15_12h56.57.919,tripletExp_regina_11082022,2022.2.4,119.95584206100888,
14,7,0,0,0.25,3.10526315789474,0,0.111111111111111,1.0,0,0.027777777777778,0.298245614035088,ReadingArea_rsl0-rcl25-esl310-rsm0-rcm11-esm100-rsr0-rcr2-esr29,exr/ReadingArea_rsl0-rcl25-esl310-rsm0-rcm11-esm100-rsr0-rcr2-esr29.exr,ReadingArea_rsl0-rcl25-esl310-rsm0-rcm11-esm100-rsr0-rcr2-esr29.npz,,,,,0,10,10,412,,left,green,1.04,138.30994606018066,138.75211095809937,,1,5,5,lightness,readingArea,realistic,75,2023-03-15_12h56.57.919,tripletExp_regina_11082022,2022.2.4,119.95584206100888,
11,12,1,0,1.0,1.0,0,0.027777777777778,3.10526315789474,0,0.111111111111111,0.298245614035088,ReadingArea_rsl0-rcl100-esl100-rsm0-rcm2-esm310-rsr0-rcr11-esr29,exr/ReadingArea_rsl0-rcl100-esl100-rsm0-rcm2-esm310-rsr0-rcr11-esr29.exr,ReadingArea_rsl0-rcl100-esl100-rsm0-rcm2-esm310-rsr0-rcr11-esr29.npz,,,,,0,11,11,140,,right,red,1.12,140.4756579399109,140.87839007377625,,1,5,5,lightness,readingArea,realistic,75,2023-03-15_12h56.57.919,tripletExp_regina_11082022,2022.2.4,119.95584206100888,
11,4,2,0,1.0,1.0,0,0.694444444444444,0.298245614035088,0,0.25,0.298245614035088,ReadingArea_rsl0-rcl100-esl100-rsm0-rcm69-esm29-rsr0-rcr25-esr29,exr/ReadingArea_rsl0-rcl100-esl100-rsm0-rcm69-esm29-rsr0-rcr25-esr29.exr,ReadingArea_rsl0-rcl100-esl100-rsm0-rcm69-esm29-rsr0-rcr25-esr29.npz,,,,,0,12,12,280,,right,red,1.19,142.6020131111145,143.02093291282654,,1,5,5,lightness,readingArea,realistic,75,2023-03-15_12h56.57.919,tripletExp_regina_11082022,2022.2.4,119.95584206100888,
9,11,13,0,0.444444444444444,1.0,0,1.0,1.0,0,0.111111111111111,3.10526315789474,ReadingArea_rsl0-rcl44-esl100-rsm0-rcm100-esm100-rsr0-rcr11-esr310,exr/ReadingArea_rsl0-rcl44-esl100-rsm0-rcm100-esm100-rsr0-rcr11-esr310.exr,ReadingArea_rsl0-rcl44-esl100-rsm0-rcm100-esm100-rsr0-rcr11-esr310.npz,,,,,0,13,13,254,,left,green,1.48,144.74239206314087,145.14740896224976,,1,5,5,lightness,readingArea,realistic,75,2023-03-15_12h56.57.919,tripletExp_regina_11082022,2022.2.4,119.95584206100888,
3,1,6,0,0.444444444444444,0.298245614035088,0,0.111111111111111,0.298245614035088,0,0.027777777777778,1.0,ReadingArea_rsl0-rcl44-esl29-rsm0-rcm11-esm29-rsr0-rcr2-esr100,exr/ReadingArea_rsl0-rcl44-esl29-rsm0-rcm11-esm29-rsr0-rcr2-esr100.exr,ReadingArea_rsl0-rcl44-esl29-rsm0-rcm11-esm29-rsr0-rcr2-esr100.npz,,,,,0,14,14,464,,right,red,1.15,146.86749696731567,147.34042501449585,,1,5,5,lightness,readingArea,realistic,75,2023-03-15_12h56.57.919,tripletExp_regina_11082022,2022.2.4,119.95584206100888,
7,2,0,0,0.111111111111111,1.0,0,0.25,0.298245614035088,0,0.027777777777778,0.298245614035088,ReadingArea_rsl0-rcl11-esl100-rsm0-rcm25-esm29-rsr0-rcr2-esr29,exr/ReadingArea_rsl0-rcl11-esl100-rsm0-rcm25-esm29-rsr0-rcr2-esr29.exr,ReadingArea_rsl0-rcl11-esl100-rsm0-rcm25-esm29-rsr0-rcr2-esr29.npz,,,,,0,15,15,520,,left,green,0.89,149.0464210510254,149.52780389785767,,1,5,5,lightness,readingArea,realistic,75,2023-03-15_12h56.57.919,tripletExp_regina_11082022,2022.2.4,119.95584206100888,
8,13,3,0,0.25,1.0,0,0.111111111111111,3.10526315789474,0,0.444444444444444,0.298245614035088,ReadingArea_rsl0-rcl25-esl100-rsm0-rcm11-esm310-rsr0-rcr44-esr29,exr/ReadingArea_rsl0-rcl25-esl100-rsm0-rcm11-esm310-rsr0-rcr44-esr29.exr,ReadingArea_rsl0-rcl25-esl100-rsm0-rcm11-esm310-rsr0-rcr44-esr29.npz,,,,,0,16,16,553,,right,red,1.5,151.2371380329132,151.69049501419067,,1,5,5,lightness,readingArea,realistic,75,2023-03-15_12h56.57.919,tripletExp_regina_11082022,2022.2.4,119.95584206100888,
12,7,1,0,0.027777777777778,3.10526315789474,0,0.111111111111111,1.0,0,0.111111111111111,0.298245614035088,ReadingArea_rsl0-rcl2-esl310-rsm0-rcm11-esm100-rsr0-rcr11-esr29,exr/ReadingArea_rsl0-rcl2-esl310-rsm0-rcm11-esm100-rsr0-rcr11-esr29.exr,ReadingArea_rsl0-rcl2-esl310-rsm0-rcm11-esm100-rsr0-rcr11-esr29.npz,,,,,0,17,17,264,,left,green,3.02,155.16160106658936,155.62472295761108,,1,5,5,lightness,readingArea,realistic,75,2023-03-15_12h56.57.919,tripletExp_regina_11082022,2022.2.4,119.95584206100888,
7,9,8,0,0.111111111111111,1.0,0,0.444444444444444,1.0,0,0.25,1.0,ReadingArea_rsl0-rcl11-esl100-rsm0-rcm44-esm100-rsr0-rcr25-esr100,exr/ReadingArea_rsl0-rcl11-esl100-rsm0-rcm44-esm100-rsr0-rcr25-esr100.exr,ReadingArea_rsl0-rcl11-esl100-rsm0-rcm44-esm100-rsr0-rcr25-esr100.npz,,,,,0,18,18,515,,right,red,1.34,157.34054493904114,157.76017713546753,,1,5,5,lightness,readingArea,realistic,75,2023-03-15_12h56.57.919,tripletExp_regina_11082022,2022.2.4,119.95584206100888,
4,1,9,0,0.694444444444444,0.298245614035088,0,0.111111111111111,0.298245614035088,0,0.444444444444444,1.0,ReadingArea_rsl0-rcl69-esl29-rsm0-rcm11-esm29-rsr0-rcr44-esr100,exr/ReadingArea_rsl0-rcl69-esl29-rsm0-rcm11-esm29-rsr0-rcr44-esr100.exr,ReadingArea_rsl0-rcl69-esl29-rsm0-rcm11-esm29-rsr0-rcr44-esr100.npz,,,,,0,19,19,7,,left,green,2.64,161.24762511253357,161.67730808258057,,1,5,5,lightness,readingArea,realistic,75,2023-03-15_12h56.57.919,tripletExp_regina_11082022,2022.2.4,119.95584206100888,
14,2,0,0,0.25,3.10526315789474,0,0.25,0.298245614035088,0,0.027777777777778,0.298245614035088,ReadingArea_rsl0-rcl25-esl310-rsm0-rcm25-esm29-rsr0-rcr2-esr29,exr/ReadingArea_rsl0-rcl25-esl310-rsm0-rcm25-esm29-rsr0-rcr2-esr29.exr,ReadingArea_rsl0-rcl25-esl310-rsm0-rcm25-esm29-rsr0-rcr2-esr29.npz,,,,,0,20,20,460,,left,green,0.96,163.3708939552307,163.78928208351135,,1,5,5,lightness,readingArea,realistic,75,2023-03-15_12h56.57.919,tripletExp_regina_11082022,2022.2.4,119.95584206100888,
7,6,11,0,0.111111111111111,1.0,0,0.027777777777778,1.0,0,1.0,1.0,ReadingArea_rsl0-rcl11-esl100-rsm0-rcm2-esm100-rsr0-rcr100-esr100,exr/ReadingArea_rsl0-rcl11-esl100-rsm0-rcm2-esm100-rsr0-rcr100-esr100.exr,ReadingArea_rsl0-rcl11-esl100-rsm0-rcm2-esm100-rsr0-rcr100-esr100.npz,,,,,0,21,21,84,,left,green,0.89,165.48732805252075,165.9227430820465,,1,5,5,lightness,readingArea,realistic,75,2023-03-15_12h56.57.919,tripletExp_regina_11082022,2022.2.4,119.95584206100888,
13,1,3,0,0.111111111111111,3.10526315789474,0,0.111111111111111,0.298245614035088,0,0.444444444444444,0.298245614035088,ReadingArea_rsl0-rcl11-esl310-rsm0-rcm11-esm29-rsr0-rcr44-esr29,exr/ReadingArea_rsl0-rcl11-esl310-rsm0-rcm11-esm29-rsr0-rcr44-esr29.exr,ReadingArea_rsl0-rcl11-esl310-rsm0-rcm11-esm29-rsr0-rcr44-esr29.npz,,,,,0,22,22,588,,left,green,1.26,167.6416311264038,168.06669807434082,,1,5,5,lightness,readingArea,realistic,75,2023-03-15_12h56.57.919,tripletExp_regina_11082022,2022.2.4,119.95584206100888,
6,3,13,0,0.027777777777778,1.0,0,0.444444444444444,0.298245614035088,0,0.111111111111111,3.10526315789474,ReadingArea_rsl0-rcl2-esl100-rsm0-rcm44-esm29-rsr0-rcr11-esr310,exr/ReadingArea_rsl0-rcl2-esl100-rsm0-rcm44-esm29-rsr0-rcr11-esr310.exr,ReadingArea_rsl0-rcl2-esl100-rsm0-rcm44-esm29-rsr0-rcr11-esr310.npz,,,,,0,23,23,228,,right,red,1.07,169.77478003501892,170.20479893684387,,1,5,5,lightness,readingArea,realistic,75,2023-03-15_12h56.57.919,tripletExp_regina_11082022,2022.2.4,119.95584206100888,
14,10,9,0,0.25,3.10526315789474,0,0.694444444444444,1.0,0,0.444444444444444,1.0,ReadingArea_rsl0-rcl25-esl310-rsm0-rcm69-esm100-rsr0-rcr44-esr100,exr/ReadingArea_rsl0-rcl25-esl310-rsm0-rcm69-esm100-rsr0-rcr44-esr100.exr,ReadingArea_rsl0-rcl25-esl310-rsm0-rcm69-esm100-rsr0-rcr44-esr100.npz,,,,,0,24,24,402,,left,green,2.97,173.71247601509094,,,1,5,5,lightness,readingArea,realistic,75,2023-03-15_12h56.57.919,tripletExp_regina_11082022,2022.2.4,119.95584206100888,
12,4,9,0,0.027777777777778,3.10526315789474,0,0.694444444444444,0.298245614035088,0,0.444444444444444,1.0,ReadingArea_rsl0-rcl2-esl310-rsm0-rcm69-esm29-rsr0-rcr44-esr100,exr/ReadingArea_rsl0-rcl2-esl310-rsm0-rcm69-esm29-rsr0-rcr44-esr100.exr,ReadingArea_rsl0-rcl2-esl310-rsm0-rcm69-esm29-rsr0-rcr44-esr100.npz,,,,,0,25,25,380,,right,red,2.24,177.6075940132141,178.04307007789612,,1,5,5,lightness,readingArea,realistic,75,2023-03-15_12h56.57.919,tripletExp_regina_11082022,2022.2.4,119.95584206100888,
8,0,6,0,0.25,1.0,0,0.027777777777778,0.298245614035088,0,0.027777777777778,1.0,ReadingArea_rsl0-rcl25-esl100-rsm0-rcm2-esm29-rsr0-rcr2-esr100,exr/ReadingArea_rsl0-rcl25-esl100-rsm0-rcm2-esm29-rsr0-rcr2-esr100.exr,ReadingArea_rsl0-rcl25-esl100-rsm0-rcm2-esm29-rsr0-rcr2-esr100.npz,,,,,0,26,26,401,,right,red,1.13,179.75374507904053,180.17678213119507,,1,5,5,lightness,readingArea,realistic,75,2023-03-15_12h56.57.919,tripletExp_regina_11082022,2022.2.4,119.95584206100888,
12,5,10,0,0.027777777777778,3.10526315789474,0,1.0,0.298245614035088,0,0.694444444444444,1.0,ReadingArea_rsl0-rcl2-esl310-rsm0-rcm100-esm29-rsr0-rcr69-esr100,exr/ReadingArea_rsl0-rcl2-esl310-rsm0-rcm100-esm29-rsr0-rcr69-esr100.exr,ReadingArea_rsl0-rcl2-esl310-rsm0-rcm100-esm29-rsr0-rcr69-esr100.npz,,,,,0,27,27,493,,right,red,1.52,181.86840105056763,182.3320860862732,,1,5,5,lightness,readingArea,realistic,75,2023-03-15_12h56.57.919,tripletExp_regina_11082022,2022.2.4,119.95584206100888,
11,12,10,0,1.0,1.0,0,0.027777777777778,3.10526315789474,0,0.694444444444444,1.0,ReadingArea_rsl0-rcl100-esl100-rsm0-rcm2-esm310-rsr0-rcr69-esr100,exr/ReadingArea_rsl0-rcl100-esl100-rsm0-rcm2-esm310-rsr0-rcr69-esr100.exr,ReadingArea_rsl0-rcl100-esl100-rsm0-rcm2-esm310-rsr0-rcr69-esr100.npz,,,,,0,28,28,465,,left,green,3.19,185.79737901687625,,,1,5,5,lightness,readingArea,realistic,75,2023-03-15_12h56.57.919,tripletExp_regina_11082022,2022.2.4,119.95584206100888,
3,6,4,0,0.444444444444444,0.298245614035088,0,0.027777777777778,1.0,0,0.694444444444444,0.298245614035088,ReadingArea_rsl0-rcl44-esl29-rsm0-rcm2-esm100-rsr0-rcr69-esr29,exr/ReadingArea_rsl0-rcl44-esl29-rsm0-rcm2-esm100-rsr0-rcr69-esr29.exr,ReadingArea_rsl0-rcl44-esl29-rsm0-rcm2-esm100-rsr0-rcr69-esr29.npz,,,,,0,29,29,154,,left,green,2.73,189.6758120059967,190.09816813468933,,1,5,5,lightness,readingArea,realistic,75,2023-03-15_12h56.57.919,tripletExp_regina_11082022,2022.2.4,119.95584206100888,
4,8,14,0,0.694444444444444,0.298245614035088,0,0.25,1.0,0,0.25,3.10526315789474,ReadingArea_rsl0-rcl69-esl29-rsm0-rcm25-esm100-rsr0-rcr25-esr310,exr/ReadingArea_rsl0-rcl69-esl29-rsm0-rcm25-esm100-rsr0-rcr25-esr310.exr,ReadingArea_rsl0-rcl69-esl29-rsm0-rcm25-esm100-rsr0-rcr25-esr310.npz,,,,,0,30,30,234,,left,green,1.29,191.80153512954712,192.2268569469452,,1,5,5,lightness,readingArea,realistic,75,2023-03-15_12h56.57.919,tripletExp_regina_11082022,2022.2.4,119.95584206100888,
5,3,4,0,1.0,0.298245614035088,0,0.444444444444444,0.298245614035088,0,0.694444444444444,0.298245614035088,ReadingArea_rsl0-rcl100-esl29-rsm0-rcm44-esm29-rsr0-rcr69-esr29,exr/ReadingArea_rsl0-rcl100-esl29-rsm0-rcm44-esm29-rsr0-rcr69-esr29.exr,ReadingArea_rsl0-rcl100-esl29-rsm0-rcm44-esm29-rsr0-rcr69-esr29.npz,,,,,0,31,31,201,,right,red,2.21,195.7233591079712,196.1734879016876,,1,5,5,lightness,readingArea,realistic,75,2023-03-15_12h56.57.919,tripletExp_regina_11082022,2022.2.4,119.95584206100888,
13,12,11,0,0.111111111111111,3.10526315789474,0,0.027777777777778,3.10526315789474,0,1.0,1.0,ReadingArea_rsl0-rcl11-esl310-rsm0-rcm2-esm310-rsr0-rcr100-esr100,exr/ReadingArea_rsl0-rcl11-esl310-rsm0-rcm2-esm310-rsr0-rcr100-esr100.exr,ReadingArea_rsl0-rcl11-esl310-rsm0-rcm2-esm310-rsr0-rcr100-esr100.npz,,,,,0,32,32,441,,left,green,2.23,199.65893411636355,200.094584941864,,1,5,5,lightness,readingArea,realistic,75,2023-03-15_12h56.57.919,tripletExp_regina_11082022,2022.2.4,119.95584206100888,
13,10,12,0,0.111111111111111,3.10526315789474,0,0.694444444444444,1.0,0,0.027777777777778,3.10526315789474,ReadingArea_rsl0-rcl11-esl310-rsm0-rcm69-esm100-rsr0-rcr2-esr310,exr/ReadingArea_rsl0-rcl11-esl310-rsm0-rcm69-esm100-rsr0-rcr2-esr310.exr,ReadingArea_rsl0-rcl11-esl310-rsm0-rcm69-esm100-rsr0-rcr2-esr310.npz,,,,,0,33,33,384,,left,green,1.07,201.8196649551392,202.2128689289093,,1,5,5,lightness,readingArea,realistic,75,2023-03-15_12h56.57.919,tripletExp_regina_11082022,2022.2.4,119.95584206100888,
2,8,7,0,0.25,0.298245614035088,0,0.25,1.0,0,0.111111111111111,1.0,ReadingArea_rsl0-rcl25-esl29-rsm0-rcm25-esm100-rsr0-rcr11-esr100,exr/ReadingArea_rsl0-rcl25-esl29-rsm0-rcm25-esm100-rsr0-rcr11-esr100.exr,ReadingArea_rsl0-rcl25-esl29-rsm0-rcm25-esm100-rsr0-rcr11-esr100.npz,,,,,0,34,34,393,,right,red,2.83,205.6933851242065,206.1219720840454,,1,5,5,lightness,readingArea,realistic,75,2023-03-15_12h56.57.919,tripletExp_regina_11082022,2022.2.4,119.95584206100888,
2,1,10,0,0.25,0.298245614035088,0,0.111111111111111,0.298245614035088,0,0.694444444444444,1.0,ReadingArea_rsl0-rcl25-esl29-rsm0-rcm11-esm29-rsr0-rcr69-esr100,exr/ReadingArea_rsl0-rcl25-esl29-rsm0-rcm11-esm29-rsr0-rcr69-esr100.exr,ReadingArea_rsl0-rcl25-esl29-rsm0-rcm11-esm29-rsr0-rcr69-esr100.npz,,,,,0,35,35,585,,left,green,0.9,207.8147130012512,208.2571349143982,,1,5,5,lightness,readingArea,realistic,75,2023-03-15_12h56.57.919,tripletExp_regina_11082022,2022.2.4,119.95584206100888,
4,6,3,0,0.694444444444444,0.298245614035088,0,0.027777777777778,1.0,0,0.444444444444444,0.298245614035088,ReadingArea_rsl0-rcl69-esl29-rsm0-rcm2-esm100-rsr0-rcr44-esr29,exr/ReadingArea_rsl0-rcl69-esl29-rsm0-rcm2-esm100-rsr0-rcr44-esr29.exr,ReadingArea_rsl0-rcl69-esl29-rsm0-rcm2-esm100-rsr0-rcr44-esr29.npz,,,,,0,36,36,344,,right,red,1.28,209.97017312049863,210.41695308685303,,1,5,5,lightness,readingArea,realistic,75,2023-03-15_12h56.57.919,tripletExp_regina_11082022,2022.2.4,119.95584206100888,
2,8,11,0,0.25,0.298245614035088,0,0.25,1.0,0,1.0,1.0,ReadingArea_rsl0-rcl25-esl29-rsm0-rcm25-esm100-rsr0-rcr100-esr100,exr/ReadingArea_rsl0-rcl25-esl29-rsm0-rcm25-esm100-rsr0-rcr100-esr100.exr,ReadingArea_rsl0-rcl25-esl29-rsm0-rcm25-esm100-rsr0-rcr100-esr100.npz,,,,,0,37,37,225,,left,green,1.14,212.1260991096497,212.52198195457456,,1,5,5,lightness,readingArea,realistic,75,2023-03-15_12h56.57.919,tripletExp_regina_11082022,2022.2.4,119.95584206100888,
3,7,0,0,0.444444444444444,0.298245614035088,0,0.111111111111111,1.0,0,0.027777777777778,0.298245614035088,ReadingArea_rsl0-rcl44-esl29-rsm0-rcm11-esm100-rsr0-rcr2-esr29,exr/ReadingArea_rsl0-rcl44-esl29-rsm0-rcm11-esm100-rsr0-rcr2-esr29.exr,ReadingArea_rsl0-rcl44-esl29-rsm0-rcm11-esm100-rsr0-rcr2-esr29.npz,,,,,0,38,38,327,,left,green,0.82,214.2267010211945,,,1,5,5,lightness,readingArea,realistic,75,2023-03-15_12h56.57.919,tripletExp_regina_11082022,2022.2.4,119.95584206100888,
6,11,8,0,0.027777777777778,1.0,0,1.0,1.0,0,0.25,1.0,ReadingArea_rsl0-rcl2-esl100-rsm0-rcm100-esm100-rsr0-rcr25-esr100,exr/ReadingArea_rsl0-rcl2-esl100-rsm0-rcm100-esm100-rsr0-rcr25-esr100.exr,ReadingArea_rsl0-rcl2-esl100-rsm0-rcm100-esm100-rsr0-rcr25-esr100.npz,,,,,0,39,39,176,,right,red,1.08,216.3798041343689,216.81081891059875,,1,5,5,lightness,readingArea,realistic,75,2023-03-15_12h56.57.919,tripletExp_regina_11082022,2022.2.4,119.95584206100888,
13,11,8,0,0.111111111111111,3.10526315789474,0,1.0,1.0,0,0.25,1.0,ReadingArea_rsl0-rcl11-esl310-rsm0-rcm100-esm100-rsr0-rcr25-esr100,exr/ReadingArea_rsl0-rcl11-esl310-rsm0-rcm100-esm100-rsr0-rcr25-esr100.exr,ReadingArea_rsl0-rcl11-esl310-rsm0-rcm100-esm100-rsr0-rcr25-esr100.npz,,,,,0,40,40,410,,left,green,2.27,220.2995159626007,220.7121939659119,,1,5,5,lightness,readingArea,realistic,75,2023-03-15_12h56.57.919,tripletExp_regina_11082022,2022.2.4,119.95584206100888,
12,6,7,0,0.027777777777778,3.10526315789474,0,0.027777777777778,1.0,0,0.111111111111111,1.0,ReadingArea_rsl0-rcl2-esl310-rsm0-rcm2-esm100-rsr0-rcr11-esr100,exr/ReadingArea_rsl0-rcl2-esl310-rsm0-rcm2-esm100-rsr0-rcr11-esr100.exr,ReadingArea_rsl0-rcl2-esl310-rsm0-rcm2-esm100-rsr0-rcr11-esr100.npz,,,,,0,41,41,308,,left,green,2.15,224.20898604393005,224.6547739505768,,1,5,5,lightness,readingArea,realistic,75,2023-03-15_12h56.57.919,tripletExp_regina_11082022,2022.2.4,119.95584206100888,
9,4,14,0,0.444444444444444,1.0,0,0.694444444444444,0.298245614035088,0,0.25,3.10526315789474,ReadingArea_rsl0-rcl44-esl100-rsm0-rcm69-esm29-rsr0-rcr25-esr310,exr/ReadingArea_rsl0-rcl44-esl100-rsm0-rcm69-esm29-rsr0-rcr25-esr310.exr,ReadingArea_rsl0-rcl44-esl100-rsm0-rcm69-esm29-rsr0-rcr25-esr310.npz,,,,,0,42,42,104,,left,green,2.26,228.11180210113525,228.55102705955505,,1,5,5,lightness,readingArea,realistic,75,2023-03-15_12h56.57.919,tripletExp_regina_11082022,2022.2.4,119.95584206100888,
13,4,0,0,0.111111111111111,3.10526315789474,0,0.694444444444444,0.298245614035088,0,0.027777777777778,0.298245614035088,ReadingArea_rsl0-rcl11-esl310-rsm0-rcm69-esm29-rsr0-rcr2-esr29,exr/ReadingArea_rsl0-rcl11-esl310-rsm0-rcm69-esm29-rsr0-rcr2-esr29.exr,ReadingArea_rsl0-rcl11-esl310-rsm0-rcm69-esm29-rsr0-rcr2-esr29.npz,,,,,0,43,43,269,,left,green,0.92,230.24691796302795,230.68583607673645,,1,5,5,lightness,readingArea,realistic,75,2023-03-15_12h56.57.919,tripletExp_regina_11082022,2022.2.4,119.95584206100888,
1,14,0,0,0.111111111111111,0.298245614035088,0,0.25,3.10526315789474,0,0.027777777777778,0.298245614035088,ReadingArea_rsl0-rcl11-esl29-rsm0-rcm25-esm310-rsr0-rcr2-esr29,exr/ReadingArea_rsl0-rcl11-esl29-rsm0-rcm25-esm310-rsr0-rcr2-esr29.exr,ReadingArea_rsl0-rcl11-esl29-rsm0-rcm25-esm310-rsr0-rcr2-esr29.npz,,,,,0,44,44,394,,left,green,1.17,232.405522108078,232.851891040802,,1,5,5,lightness,readingArea,realistic,75,2023-03-15_12h56.57.919,tripletExp_regina_11082022,2022.2.4,119.95584206100888,
7,12,0,0,0.111111111111111,1.0,0,0.027777777777778,3.10526315789474,0,0.027777777777778,0.298245614035088,ReadingArea_rsl0-rcl11-esl100-rsm0-rcm2-esm310-rsr0-rcr2-esr29,exr/ReadingArea_rsl0-rcl11-esl100-rsm0-rcm2-esm310-rsr0-rcr2-esr29.exr,ReadingArea_rsl0-rcl11-esl100-rsm0-rcm2-esm310-rsr0-rcr2-esr29.npz,,,,,0,45,45,425,,left,green,0.94,234.5466239452362,,,1,5,5,lightness,readingArea,realistic,75,2023-03-15_12h56.57.919,tripletExp_regina_11082022,2022.2.4,119.95584206100888,
8,7,13,0,0.25,1.0,0,0.111111111111111,1.0,0,0.111111111111111,3.10526315789474,ReadingArea_rsl0-rcl25-esl100-rsm0-rcm11-esm100-rsr0-rcr11-esr310,exr/ReadingArea_rsl0-rcl25-esl100-rsm0-rcm11-esm100-rsr0-rcr11-esr310.exr,ReadingArea_rsl0-rcl25-esl100-rsm0-rcm11-esm100-rsr0-rcr11-esr310.npz,,,,,0,46,46,512,,left,green,0.82,236.6714079380036,237.0582730770111,,1,5,5,lightness,readingArea,realistic,75,2023-03-15_12h56.57.919,tripletExp_regina_11082022,2022.2.4,119.95584206100888,
0,4,12,0,0.027777777777778,0.298245614035088,0,0.694444444444444,0.298245614035088,0,0.027777777777778,3.10526315789474,ReadingArea_rsl0-rcl2-esl29-rsm0-rcm69-esm29-rsr0-rcr2-esr310,exr/ReadingArea_rsl0-rcl2-esl29-rsm0-rcm69-esm29-rsr0-rcr2-esr310.exr,ReadingArea_rsl0-rcl2-esl29-rsm0-rcm69-esm29-rsr0-rcr2-esr310.npz,,,,,0,47,47,150,,right,red,0.94,238.783793926239,239.23055601119995,,1,5,5,lightness,readingArea,realistic,75,2023-03-15_12h56.57.919,tripletExp_regina_11082022,2022.2.4,119.95584206100888,
11,12,2,0,1.0,1.0,0,0.027777777777778,3.10526315789474,0,0.25,0.298245614035088,ReadingArea_rsl0-rcl100-esl100-rsm0-rcm2-esm310-rsr0-rcr25-esr29,exr/ReadingArea_rsl0-rcl100-esl100-rsm0-rcm2-esm310-rsr0-rcr25-esr29.exr,ReadingArea_rsl0-rcl100-esl100-rsm0-rcm2-esm310-rsr0-rcr25-esr29.npz,,,,,0,48,48,423,,right,red,1.02,240.95244097709656,241.387540102005,,1,5,5,lightness,readingArea,realistic,75,2023-03-15_12h56.57.919,tripletExp_regina_11082022,2022.2.4,119.95584206100888,
9,3,8,0,0.444444444444444,1.0,0,0.444444444444444,0.298245614035088,0,0.25,1.0,ReadingArea_rsl0-rcl44-esl100-rsm0-rcm44-esm29-rsr0-rcr25-esr100,exr/ReadingArea_rsl0-rcl44-esl100-rsm0-rcm44-esm29-rsr0-rcr25-esr100.exr,ReadingArea_rsl0-rcl44-esl100-rsm0-rcm44-esm29-rsr0-rcr25-esr100.npz,,,,,0,49,49,530,,left,green,2.28,244.8333849906921,245.25692200660703,,1,5,5,lightness,readingArea,realistic,75,2023-03-15_12h56.57.919,tripletExp_regina_11082022,2022.2.4,119.95584206100888,
1,14,7,0,0.111111111111111,0.298245614035088,0,0.25,3.10526315789474,0,0.111111111111111,1.0,ReadingArea_rsl0-rcl11-esl29-rsm0-rcm25-esm310-rsr0-rcr11-esr100,exr/ReadingArea_rsl0-rcl11-esl29-rsm0-rcm25-esm310-rsr0-rcr11-esr100.exr,ReadingArea_rsl0-rcl11-esl29-rsm0-rcm25-esm310-rsr0-rcr11-esr100.npz,,,,,0,50,50,583,,right,red,1.64,246.95691895484924,,,1,5,5,lightness,readingArea,realistic,75,2023-03-15_12h56.57.919,tripletExp_regina_11082022,2022.2.4,119.95584206100888,
14,13,0,0,0.25,3.10526315789474,0,0.111111111111111,3.10526315789474,0,0.027777777777778,0.298245614035088,ReadingArea_rsl0-rcl25-esl310-rsm0-rcm11-esm310-rsr0-rcr2-esr29,exr/ReadingArea_rsl0-rcl25-esl310-rsm0-rcm11-esm310-rsr0-rcr2-esr29.exr,ReadingArea_rsl0-rcl25-esl310-rsm0-rcm11-esm310-rsr0-rcr2-esr29.npz,,,,,0,51,51,417,,left,green,0.93,249.09637999534607,249.52259802818293,,1,5,5,lightness,readingArea,realistic,75,2023-03-15_12h56.57.919,tripletExp_regina_11082022,2022.2.4,119.95584206100888,
3,14,12,0,0.444444444444444,0.298245614035088,0,0.25,3.10526315789474,0,0.027777777777778,3.10526315789474,ReadingArea_rsl0-rcl44-esl29-rsm0-rcm25-esm310-rsr0-rcr2-esr310,exr/ReadingArea_rsl0-rcl44-esl29-rsm0-rcm25-esm310-rsr0-rcr2-esr310.exr,ReadingArea_rsl0-rcl44-esl29-rsm0-rcm25-esm310-rsr0-rcr2-esr310.npz,,,,,0,52,52,336,,left,green,1.38,251.23601412773127,251.6387119293213,,1,5,5,lightness,readingArea,realistic,75,2023-03-15_12h56.57.919,tripletExp_regina_11082022,2022.2.4,119.95584206100888,
1,10,7,0,0.111111111111111,0.298245614035088,0,0.694444444444444,1.0,0,0.111111111111111,1.0,ReadingArea_rsl0-rcl11-esl29-rsm0-rcm69-esm100-rsr0-rcr11-esr100,exr/ReadingArea_rsl0-rcl11-esl29-rsm0-rcm69-esm100-rsr0-rcr11-esr100.exr,ReadingArea_rsl0-rcl11-esl29-rsm0-rcm69-esm100-rsr0-rcr11-esr100.npz,,,,,0,53,53,94,,right,red,1.11,253.3280050754547,253.7569420337677,,1,5,5,lightness,readingArea,realistic,75,2023-03-15_12h56.57.919,tripletExp_regina_11082022,2022.2.4,119.95584206100888,
14,9,0,0,0.25,3.10526315789474,0,0.444444444444444,1.0,0,0.027777777777778,0.298245614035088,ReadingArea_rsl0-rcl25-esl310-rsm0-rcm44-esm100-rsr0-rcr2-esr29,exr/ReadingArea_rsl0-rcl25-esl310-rsm0-rcm44-esm100-rsr0-rcr2-esr29.exr,ReadingArea_rsl0-rcl25-esl310-rsm0-rcm44-esm100-rsr0-rcr2-esr29.npz,,,,,0,54,54,313,,left,green,0.81,255.45195412635803,255.9140501022339,,1,5,5,lightness,readingArea,realistic,75,2023-03-15_12h56.57.919,tripletExp_regina_11082022,2022.2.4,119.95584206100888,
14,6,2,0,0.25,3.10526315789474,0,0.027777777777778,1.0,0,0.25,0.298245614035088,ReadingArea_rsl0-rcl25-esl310-rsm0-rcm2-esm100-rsr0-rcr25-esr29,exr/ReadingArea_rsl0-rcl25-esl310-rsm0-rcm2-esm100-rsr0-rcr25-esr29.exr,ReadingArea_rsl0-rcl25-esl310-rsm0-rcm2-esm100-rsr0-rcr25-esr29.npz,,,,,0,55,55,272,,right,red,1.17,257.60740995407104,258.0030391216278,,1,5,5,lightness,readingArea,realistic,75,2023-03-15_12h56.57.919,tripletExp_regina_11082022,2022.2.4,119.95584206100888,
3,13,10,0,0.444444444444444,0.298245614035088,0,0.111111111111111,3.10526315789474,0,0.694444444444444,1.0,ReadingArea_rsl0-rcl44-esl29-rsm0-rcm11-esm310-rsr0-rcr69-esr100,exr/ReadingArea_rsl0-rcl44-esl29-rsm0-rcm11-esm310-rsr0-rcr69-esr100.exr,ReadingArea_rsl0-rcl44-esl29-rsm0-rcm11-esm310-rsr0-rcr69-esr100.npz,,,,,0,56,56,416,,left,green,0.84,259.72813606262207,260.17722606658936,,1,5,5,lightness,readingArea,realistic,75,2023-03-15_12h56.57.919,tripletExp_regina_11082022,2022.2.4,119.95584206100888,
6,4,13,0,0.027777777777778,1.0,0,0.694444444444444,0.298245614035088,0,0.111111111111111,3.10526315789474,ReadingArea_rsl0-rcl2-esl100-rsm0-rcm69-esm29-rsr0-rcr11-esr310,exr/ReadingArea_rsl0-rcl2-esl100-rsm0-rcm69-esm29-rsr0-rcr11-esr310.exr,ReadingArea_rsl0-rcl2-esl100-rsm0-rcm69-esm29-rsr0-rcr11-esr310.npz,,,,,0,57,57,202,,right,red,0.89,261.89772605896,262.2984240055084,,1,5,5,lightness,readingArea,realistic,75,2023-03-15_12h56.57.919,tripletExp_regina_11082022,2022.2.4,119.95584206100888,
6,4,2,0,0.027777777777778,1.0,0,0.694444444444444,0.298245614035088,0,0.25,0.298245614035088,ReadingArea_rsl0-rcl2-esl100-rsm0-rcm69-esm29-rsr0-rcr25-esr29,exr/ReadingArea_rsl0-rcl2-esl100-rsm0-rcm69-esm29-rsr0-rcr25-esr29.exr,ReadingArea_rsl0-rcl2-esl100-rsm0-rcm69-esm29-rsr0-rcr25-esr29.npz,,,,,0,58,58,134,,right,red,0.99,263.994136095047,264.4077670574188,,1,5,5,lightness,readingArea,realistic,75,2023-03-15_12h56.57.919,tripletExp_regina_11082022,2022.2.4,119.95584206100888,
14,0,5,0,0.25,3.10526315789474,0,0.027777777777778,0.298245614035088,0,1.0,0.298245614035088,ReadingArea_rsl0-rcl25-esl310-rsm0-rcm2-esm29-rsr0-rcr100-esr29,exr/ReadingArea_rsl0-rcl25-esl310-rsm0-rcm2-esm29-rsr0-rcr100-esr29.exr,ReadingArea_rsl0-rcl25-esl310-rsm0-rcm2-esm29-rsr0-rcr100-esr29.npz,,,,,0,59,59,418,,left,green,4.48,269.62495613098145,270.0717239379883,,1,5,5,lightness,readingArea,realistic,75,2023-03-15_12h56.57.919,tripletExp_regina_11082022,2022.2.4,119.95584206100888,
7,8,3,0,0.111111111111111,1.0,0,0.25,1.0,0,0.444444444444444,0.298245614035088,ReadingArea_rsl0-rcl11-esl100-rsm0-rcm25-esm100-rsr0-rcr44-esr29,exr/ReadingArea_rsl0-rcl11-esl100-rsm0-rcm25-esm100-rsr0-rcr44-esr29.exr,ReadingArea_rsl0-rcl11-esl100-rsm0-rcm25-esm100-rsr0-rcr44-esr29.npz,,,,,0,60,60,459,,left,green,1.33,271.79328298568726,272.20705699920654,,1,5,5,lightness,readingArea,realistic,75,2023-03-15_12h56.57.919,tripletExp_regina_11082022,2022.2.4,119.95584206100888,
3,7,8,0,0.444444444444444,0.298245614035088,0,0.111111111111111,1.0,0,0.25,1.0,ReadingArea_rsl0-rcl44-esl29-rsm0-rcm11-esm100-rsr0-rcr25-esr100,exr/ReadingArea_rsl0-rcl44-esl29-rsm0-rcm11-esm100-rsr0-rcr25-esr100.exr,ReadingArea_rsl0-rcl44-esl29-rsm0-rcm11-esm100-rsr0-rcr25-esr100.npz,,,,,0,61,61,246,,left,green,2.98,275.6894929409027,276.1103570461273,,1,5,5,lightness,readingArea,realistic,75,2023-03-15_12h56.57.919,tripletExp_regina_11082022,2022.2.4,119.95584206100888,
10,14,4,0,0.694444444444444,1.0,0,0.25,3.10526315789474,0,0.694444444444444,0.298245614035088,ReadingArea_rsl0-rcl69-esl100-rsm0-rcm25-esm310-rsr0-rcr69-esr29,exr/ReadingArea_rsl0-rcl69-esl100-rsm0-rcm25-esm310-rsr0-rcr69-esr29.exr,ReadingArea_rsl0-rcl69-esl100-rsm0-rcm25-esm310-rsr0-rcr69-esr29.npz,,,,,0,62,62,267,,right,red,1.48,277.8336429595947,278.24912309646606,,1,5,5,lightness,readingArea,realistic,75,2023-03-15_12h56.57.919,tripletExp_regina_11082022,2022.2.4,119.95584206100888,
6,12,8,0,0.027777777777778,1.0,0,0.027777777777778,3.10526315789474,0,0.25,1.0,ReadingArea_rsl0-rcl2-esl100-rsm0-rcm2-esm310-rsr0-rcr25-esr100,exr/ReadingArea_rsl0-rcl2-esl100-rsm0-rcm2-esm310-rsr0-rcr25-esr100.exr,ReadingArea_rsl0-rcl2-esl100-rsm0-rcm2-esm310-rsr0-rcr25-esr100.npz,,,,,0,63,63,186,,left,green,2.17,281.6995759010315,282.15449595451355,,1,5,5,lightness,readingArea,realistic,75,2023-03-15_12h56.57.919,tripletExp_regina_11082022,2022.2.4,119.95584206100888,
14,6,7,0,0.25,3.10526315789474,0,0.027777777777778,1.0,0,0.111111111111111,1.0,ReadingArea_rsl0-rcl25-esl310-rsm0-rcm2-esm100-rsr0-rcr11-esr100,exr/ReadingArea_rsl0-rcl25-esl310-rsm0-rcm2-esm100-rsr0-rcr11-esr100.exr,ReadingArea_rsl0-rcl25-esl310-rsm0-rcm2-esm100-rsr0-rcr11-esr100.npz,,,,,0,64,64,306,,right,red,1.38,283.8460359573364,,,1,5,5,lightness,readingArea,realistic,75,2023-03-15_12h56.57.919,tripletExp_regina_11082022,2022.2.4,119.95584206100888,
10,4,13,0,0.694444444444444,1.0,0,0.694444444444444,0.298245614035088,0,0.111111111111111,3.10526315789474,ReadingArea_rsl0-rcl69-esl100-rsm0-rcm69-esm29-rsr0-rcr11-esr310,exr/ReadingArea_rsl0-rcl69-esl100-rsm0-rcm69-esm29-rsr0-rcr11-esr310.exr,ReadingArea_rsl0-rcl69-esl100-rsm0-rcm69-esm29-rsr0-rcr11-esr310.npz,,,,,0,65,65,24,,right,red,2.82,287.6978530883789,288.124361038208,,1,5,5,lightness,readingArea,realistic,75,2023-03-15_12h56.57.919,tripletExp_regina_11082022,2022.2.4,119.95584206100888,
14,11,3,0,0.25,3.10526315789474,0,1.0,1.0,0,0.444444444444444,0.298245614035088,ReadingArea_rsl0-rcl25-esl310-rsm0-rcm100-esm100-rsr0-rcr44-esr29,exr/ReadingArea_rsl0-rcl25-esl310-rsm0-rcm100-esm100-rsr0-rcr44-esr29.exr,ReadingArea_rsl0-rcl25-esl310-rsm0-rcm100-esm100-rsr0-rcr44-esr29.npz,,,,,0,66,66,78,,left,green,0.87,289.8498110771179,290.3107030391693,,1,5,5,lightness,readingArea,realistic,75,2023-03-15_12h56.57.919,tripletExp_regina_11082022,2022.2.4,119.95584206100888,
2,0,3,0,0.25,0.298245614035088,0,0.027777777777778,0.298245614035088,0,0.444444444444444,0.298245614035088,ReadingArea_rsl0-rcl25-esl29-rsm0-rcm2-esm29-rsr0-rcr44-esr29,exr/ReadingArea_rsl0-rcl25-esl29-rsm0-rcm2-esm29-rsr0-rcr44-esr29.exr,ReadingArea_rsl0-rcl25-esl29-rsm0-rcm2-esm29-rsr0-rcr44-esr29.npz,,,,,0,67,67,338,,left,green,1.16,292.0080499649048,292.4380390644073,,1,5,5,lightness,readingArea,realistic,75,2023-03-15_12h56.57.919,tripletExp_regina_11082022,2022.2.4,119.95584206100888,
0,1,7,0,0.027777777777778,0.298245614035088,0,0.111111111111111,0.298245614035088,0,0.111111111111111,1.0,ReadingArea_rsl0-rcl2-esl29-rsm0-rcm11-esm29-rsr0-rcr11-esr100,exr/ReadingArea_rsl0-rcl2-esl29-rsm0-rcm11-esm29-rsr0-rcr11-esr100.exr,ReadingArea_rsl0-rcl2-esl29-rsm0-rcm11-esm29-rsr0-rcr11-esr100.npz,,,,,0,68,68,243,,right,red,1.4,294.12664699554443,294.5269150733948,,1,5,5,lightness,readingArea,realistic,75,2023-03-15_12h56.57.919,tripletExp_regina_11082022,2022.2.4,119.95584206100888,
10,0,14,0,0.694444444444444,1.0,0,0.027777777777778,0.298245614035088,0,0.25,3.10526315789474,ReadingArea_rsl0-rcl69-esl100-rsm0-rcm2-esm29-rsr0-rcr25-esr310,exr/ReadingArea_rsl0-rcl69-esl100-rsm0-rcm2-esm29-rsr0-rcr25-esr310.exr,ReadingArea_rsl0-rcl69-esl100-rsm0-rcm2-esm29-rsr0-rcr25-esr310.npz,,,,,0,69,69,95,,right,red,3.1,297.975604057312,298.4301059246063,,1,5,5,lightness,readingArea,realistic,75,2023-03-15_12h56.57.919,tripletExp_regina_11082022,2022.2.4,119.95584206100888,
1,3,4,0,0.111111111111111,0.298245614035088,0,0.444444444444444,0.298245614035088,0,0.694444444444444,0.298245614035088,ReadingArea_rsl0-rcl11-esl29-rsm0-rcm44-esm29-rsr0-rcr69-esr29,exr/ReadingArea_rsl0-rcl11-esl29-rsm0-rcm44-esm29-rsr0-rcr69-esr29.exr,ReadingArea_rsl0-rcl11-esl29-rsm0-rcm44-esm29-rsr0-rcr69-esr29.npz,,,,,0,70,70,153,,right,red,0.96,300.1194589138031,300.5453970432281,,1,5,5,lightness,readingArea,realistic,75,2023-03-15_12h56.57.919,tripletExp_regina_11082022,2022.2.4,119.95584206100888,
7,1,9,0,0.111111111111111,1.0,0,0.111111111111111,0.298245614035088,0,0.444444444444444,1.0,ReadingArea_rsl0-rcl11-esl100-rsm0-rcm11-esm29-rsr0-rcr44-esr100,exr/ReadingArea_rsl0-rcl11-esl100-rsm0-rcm11-esm29-rsr0-rcr44-esr100.exr,ReadingArea_rsl0-rcl11-esl100-rsm0-rcm11-esm29-rsr0-rcr44-esr100.npz,,,,,0,71,71,89,,left,green,1.19,302.2679419517517,302.70645689964294,,1,5,5,lightness,readingArea,realistic,75,2023-03-15_12h56.57.919,tripletExp_regina_11082022,2022.2.4,119.95584206100888,
0,11,9,0,0.027777777777778,0.298245614035088,0,1.0,1.0,0,0.444444444444444,1.0,ReadingArea_rsl0-rcl2-esl29-rsm0-rcm100-esm100-rsr0-rcr44-esr100,exr/ReadingArea_rsl0-rcl2-esl29-rsm0-rcm100-esm100-rsr0-rcr44-esr100.exr,ReadingArea_rsl0-rcl2-esl29-rsm0-rcm100-esm100-rsr0-rcr44-esr100.npz,,,,,0,72,72,32,,right,red,1.05,304.4193859100342,304.8276689052582,,1,5,5,lightness,readingArea,realistic,75,2023-03-15_12h56.57.919,tripletExp_regina_11082022,2022.2.4,119.95584206100888,
2,1,14,0,0.25,0.298245614035088,0,0.111111111111111,0.298245614035088,0,0.25,3.10526315789474,ReadingArea_rsl0-rcl25-esl29-rsm0-rcm11-esm29-rsr0-rcr25-esr310,exr/ReadingArea_rsl0-rcl25-esl29-rsm0-rcm11-esm29-rsr0-rcr25-esr310.exr,ReadingArea_rsl0-rcl25-esl29-rsm0-rcm11-esm29-rsr0-rcr25-esr310.npz,,,,,0,73,73,59,,left,green,0.93,306.5480089187622,306.9845221042633,,1,5,5,lightness,readingArea,realistic,75,2023-03-15_12h56.57.919,tripletExp_regina_11082022,2022.2.4,119.95584206100888,
10,4,8,0,0.694444444444444,1.0,0,0.694444444444444,0.298245614035088,0,0.25,1.0,ReadingArea_rsl0-rcl69-esl100-rsm0-rcm69-esm29-rsr0-rcr25-esr100,exr/ReadingArea_rsl0-rcl69-esl100-rsm0-rcm69-esm29-rsr0-rcr25-esr100.exr,ReadingArea_rsl0-rcl69-esl100-rsm0-rcm69-esm29-rsr0-rcr25-esr100.npz,,,,,0,74,74,562,,right,red,1.11,308.7003231048584,,,1,5,5,lightness,readingArea,realistic,75,2023-03-15_12h56.57.919,tripletExp_regina_11082022,2022.2.4,119.95584206100888,
3,14,5,0,0.444444444444444,0.298245614035088,0,0.25,3.10526315789474,0,1.0,0.298245614035088,ReadingArea_rsl0-rcl44-esl29-rsm0-rcm25-esm310-rsr0-rcr100-esr29,exr/ReadingArea_rsl0-rcl44-esl29-rsm0-rcm25-esm310-rsr0-rcr100-esr29.exr,ReadingArea_rsl0-rcl44-esl29-rsm0-rcm25-esm310-rsr0-rcr100-esr29.npz,,,,,0,75,75,131,,right,red,1.64,313.5514109134674,,,2,5,5,lightness,readingArea,realistic,75,2023-03-15_12h56.57.919,tripletExp_regina_11082022,2022.2.4,119.95584206100888,
5,7,14,0,1.0,0.298245614035088,0,0.111111111111111,1.0,0,0.25,3.10526315789474,ReadingArea_rsl0-rcl100-esl29-rsm0-rcm11-esm100-rsr0-rcr25-esr310,exr/ReadingArea_rsl0-rcl100-esl29-rsm0-rcm11-esm100-rsr0-rcr25-esr310.exr,ReadingArea_rsl0-rcl100-esl29-rsm0-rcm11-esm100-rsr0-rcr25-esr310.npz,,,,,0,76,76,210,,right,red,1.12,315.7174189090729,316.14272594451904,,2,5,5,lightness,readingArea,realistic,75,2023-03-15_12h56.57.919,tripletExp_regina_11082022,2022.2.4,119.95584206100888,
3,13,1,0,0.444444444444444,0.298245614035088,0,0.111111111111111,3.10526315789474,0,0.111111111111111,0.298245614035088,ReadingArea_rsl0-rcl44-esl29-rsm0-rcm11-esm310-rsr0-rcr11-esr29,exr/ReadingArea_rsl0-rcl44-esl29-rsm0-rcm11-esm310-rsr0-rcr11-esr29.exr,ReadingArea_rsl0-rcl44-esl29-rsm0-rcm11-esm310-rsr0-rcr11-esr29.npz,,,,,0,77,77,421,,left,green,0.97,317.858647108078,318.27473998069763,,2,5,5,lightness,readingArea,realistic,75,2023-03-15_12h56.57.919,tripletExp_regina_11082022,2022.2.4,119.95584206100888,
6,0,14,0,0.027777777777778,1.0,0,0.027777777777778,0.298245614035088,0,0.25,3.10526315789474,ReadingArea_rsl0-rcl2-esl100-rsm0-rcm2-esm29-rsr0-rcr25-esr310,exr/ReadingArea_rsl0-rcl2-esl100-rsm0-rcm2-esm29-rsr0-rcr25-esr310.exr,ReadingArea_rsl0-rcl2-esl100-rsm0-rcm2-esm29-rsr0-rcr25-esr310.npz,,,,,0,78,78,169,,left,green,1.5,319.9923629760742,320.38258504867554,,2,5,5,lightness,readingArea,realistic,75,2023-03-15_12h56.57.919,tripletExp_regina_11082022,2022.2.4,119.95584206100888,
1,5,8,0,0.111111111111111,0.298245614035088,0,1.0,0.298245614035088,0,0.25,1.0,ReadingArea_rsl0-rcl11-esl29-rsm0-rcm100-esm29-rsr0-rcr25-esr100,exr/ReadingArea_rsl0-rcl11-esl29-rsm0-rcm100-esm29-rsr0-rcr25-esr100.exr,ReadingArea_rsl0-rcl11-esl29-rsm0-rcm100-esm29-rsr0-rcr25-esr100.npz,,,,,0,79,79,238,,right,red,0.93,322.1003499031067,322.52557706832886,,2,5,5,lightness,readingArea,realistic,75,2023-03-15_12h56.57.919,tripletExp_regina_11082022,2022.2.4,119.95584206100888,
14,6,5,0,0.25,3.10526315789474,0,0.027777777777778,1.0,0,1.0,0.298245614035088,ReadingArea_rsl0-rcl25-esl310-rsm0-rcm2-esm100-rsr0-rcr100-esr29,exr/ReadingArea_rsl0-rcl25-esl310-rsm0-rcm2-esm100-rsr0-rcr100-esr29.exr,ReadingArea_rsl0-rcl25-esl310-rsm0-rcm2-esm100-rsr0-rcr100-esr29.npz,,,,,0,80,80,297,,left,green,2.91,326.0116879940033,326.4546129703522,,2,5,5,lightness,readingArea,realistic,75,2023-03-15_12h56.57.919,tripletExp_regina_11082022,2022.2.4,119.95584206100888,
4,7,5,0,0.694444444444444,0.298245614035088,0,0.111111111111111,1.0,0,1.0,0.298245614035088,ReadingArea_rsl0-rcl69-esl29-rsm0-rcm11-esm100-rsr0-rcr100-esr29,exr/ReadingArea_rsl0-rcl69-esl29-rsm0-rcm11-esm100-rsr0-rcr100-esr29.exr,ReadingArea_rsl0-rcl69-esl29-rsm0-rcm11-esm100-rsr0-rcr100-esr29.npz,,,,,0,81,81,195,,left,green,1.55,328.15292096138,,,2,5,5,lightness,readingArea,realistic,75,2023-03-15_12h56.57.919,tripletExp_regina_11082022,2022.2.4,119.95584206100888,
8,4,2,0,0.25,1.0,0,0.694444444444444,0.298245614035088,0,0.25,0.298245614035088,ReadingArea_rsl0-rcl25-esl100-rsm0-rcm69-esm29-rsr0-rcr25-esr29,exr/ReadingArea_rsl0-rcl25-esl100-rsm0-rcm69-esm29-rsr0-rcr25-esr29.exr,ReadingArea_rsl0-rcl25-esl100-rsm0-rcm69-esm29-rsr0-rcr25-esr29.npz,,,,,0,82,82,184,,left,green,1.13,330.28144001960754,330.69841408729553,,2,5,5,lightness,readingArea,realistic,75,2023-03-15_12h56.57.919,tripletExp_regina_11082022,2022.2.4,119.95584206100888,
13,3,14,0,0.111111111111111,3.10526315789474,0,0.444444444444444,0.298245614035088,0,0.25,3.10526315789474,ReadingArea_rsl0-rcl11-esl310-rsm0-rcm44-esm29-rsr0-rcr25-esr310,exr/ReadingArea_rsl0-rcl11-esl310-rsm0-rcm44-esm29-rsr0-rcr25-esr310.exr,ReadingArea_rsl0-rcl11-esl310-rsm0-rcm44-esm29-rsr0-rcr25-esr310.npz,,,,,0,83,83,38,,left,green,1.34,332.4235351085663,332.8579490184784,,2,5,5,lightness,readingArea,realistic,75,2023-03-15_12h56.57.919,tripletExp_regina_11082022,2022.2.4,119.95584206100888,
8,6,5,0,0.25,1.0,0,0.027777777777778,1.0,0,1.0,0.298245614035088,ReadingArea_rsl0-rcl25-esl100-rsm0-rcm2-esm100-rsr0-rcr100-esr29,exr/ReadingArea_rsl0-rcl25-esl100-rsm0-rcm2-esm100-rsr0-rcr100-esr29.exr,ReadingArea_rsl0-rcl25-esl100-rsm0-rcm2-esm100-rsr0-rcr100-esr29.npz,,,,,0,84,84,241,,left,green,2.16,336.3117001056671,336.7364089488983,,2,5,5,lightness,readingArea,realistic,75,2023-03-15_12h56.57.919,tripletExp_regina_11082022,2022.2.4,119.95584206100888,
7,3,12,0,0.111111111111111,1.0,0,0.444444444444444,0.298245614035088,0,0.027777777777778,3.10526315789474,ReadingArea_rsl0-rcl11-esl100-rsm0-rcm44-esm29-rsr0-rcr2-esr310,exr/ReadingArea_rsl0-rcl11-esl100-rsm0-rcm44-esm29-rsr0-rcr2-esr310.exr,ReadingArea_rsl0-rcl11-esl100-rsm0-rcm44-esm29-rsr0-rcr2-esr310.npz,,,,,0,85,85,443,,left,green,1.11,338.4509189128876,338.87512707710266,,2,5,5,lightness,readingArea,realistic,75,2023-03-15_12h56.57.919,tripletExp_regina_11082022,2022.2.4,119.95584206100888,
7,13,6,0,0.111111111111111,1.0,0,0.111111111111111,3.10526315789474,0,0.027777777777778,1.0,ReadingArea_rsl0-rcl11-esl100-rsm0-rcm11-esm310-rsr0-rcr2-esr100,exr/ReadingArea_rsl0-rcl11-esl100-rsm0-rcm11-esm310-rsr0-rcr2-esr100.exr,ReadingArea_rsl0-rcl11-esl100-rsm0-rcm11-esm310-rsr0-rcr2-esr100.npz,,,,,0,86,86,73,,left,green,1.05,340.57127690315247,341.00606393814087,,2,5,5,lightness,readingArea,realistic,75,2023-03-15_12h56.57.919,tripletExp_regina_11082022,2022.2.4,119.95584206100888,
0,5,1,0,0.027777777777778,0.298245614035088,0,1.0,0.298245614035088,0,0.111111111111111,0.298245614035088,ReadingArea_rsl0-rcl2-esl29-rsm0-rcm100-esm29-rsr0-rcr11-esr29,exr/ReadingArea_rsl0-rcl2-esl29-rsm0-rcm100-esm29-rsr0-rcr11-esr29.exr,ReadingArea_rsl0-rcl2-esl29-rsm0-rcm100-esm29-rsr0-rcr11-esr29.npz,,,,,0,87,87,367,,right,red,1.15,342.7251179218292,343.158203125,,2,5,5,lightness,readingArea,realistic,75,2023-03-15_12h56.57.919,tripletExp_regina_11082022,2022.2.4,119.95584206100888,
11,0,12,0,1.0,1.0,0,0.027777777777778,0.298245614035088,0,0.027777777777778,3.10526315789474,ReadingArea_rsl0-rcl100-esl100-rsm0-rcm2-esm29-rsr0-rcr2-esr310,exr/ReadingArea_rsl0-rcl100-esl100-rsm0-rcm2-esm29-rsr0-rcr2-esr310.exr,ReadingArea_rsl0-rcl100-esl100-rsm0-rcm2-esm29-rsr0-rcr2-esr310.npz,,,,,0,88,88,166,,right,red,1.1,344.85076904296875,345.27772998809814,,2,5,5,lightness,readingArea,realistic,75,2023-03-15_12h56.57.919,tripletExp_regina_11082022,2022.2.4,119.95584206100888,
8,1,10,0,0.25,1.0,0,0.111111111111111,0.298245614035088,0,0.694444444444444,1.0,ReadingArea_rsl0-rcl25-esl100-rsm0-rcm11-esm29-rsr0-rcr69-esr100,exr/ReadingArea_rsl0-rcl25-esl100-rsm0-rcm11-esm29-rsr0-rcr69-esr100.exr,ReadingArea_rsl0-rcl25-esl100-rsm0-rcm11-esm29-rsr0-rcr69-esr100.npz,,,,,0,89,89,442,,left,green,1.22,346.9875590801239,347.47617292404175,,2,5,5,lightness,readingArea,realistic,75,2023-03-15_12h56.57.919,tripletExp_regina_11082022,2022.2.4,119.95584206100888,
10,1,0,0,0.694444444444444,1.0,0,0.111111111111111,0.298245614035088,0,0.027777777777778,0.298245614035088,ReadingArea_rsl0-rcl69-esl100-rsm0-rcm11-esm29-rsr0-rcr2-esr29,exr/ReadingArea_rsl0-rcl69-esl100-rsm0-rcm11-esm29-rsr0-rcr2-esr29.exr,ReadingArea_rsl0-rcl69-esl100-rsm0-rcm11-esm29-rsr0-rcr2-esr29.npz,,,,,0,90,90,276,,right,red,1.01,349.17653799057007,349.62495613098145,,2,5,5,lightness,readingArea,realistic,75,2023-03-15_12h56.57.919,tripletExp_regina_11082022,2022.2.4,119.95584206100888,
12,5,14,0,0.027777777777778,3.10526315789474,0,1.0,0.298245614035088,0,0.25,3.10526315789474,ReadingArea_rsl0-rcl2-esl310-rsm0-rcm100-esm29-rsr0-rcr25-esr310,exr/ReadingArea_rsl0-rcl2-esl310-rsm0-rcm100-esm29-rsr0-rcr25-esr310.exr,ReadingArea_rsl0-rcl2-esl310-rsm0-rcm100-esm29-rsr0-rcr25-esr310.npz,,,,,0,91,91,193,,right,red,1.44,351.31852293014526,351.7501709461212,,2,5,5,lightness,readingArea,realistic,75,2023-03-15_12h56.57.919,tripletExp_regina_11082022,2022.2.4,119.95584206100888,
14,9,12,0,0.25,3.10526315789474,0,0.444444444444444,1.0,0,0.027777777777778,3.10526315789474,ReadingArea_rsl0-rcl25-esl310-rsm0-rcm44-esm100-rsr0-rcr2-esr310,exr/ReadingArea_rsl0-rcl25-esl310-rsm0-rcm44-esm100-rsr0-rcr2-esr310.exr,ReadingArea_rsl0-rcl25-esl310-rsm0-rcm44-esm100-rsr0-rcr2-esr310.npz,,,,,0,92,92,378,,left,green,1.1,353.45715403556824,,,2,5,5,lightness,readingArea,realistic,75,2023-03-15_12h56.57.919,tripletExp_regina_11082022,2022.2.4,119.95584206100888,
5,1,13,0,1.0,0.298245614035088,0,0.111111111111111,0.298245614035088,0,0.111111111111111,3.10526315789474,ReadingArea_rsl0-rcl100-esl29-rsm0-rcm11-esm29-rsr0-rcr11-esr310,exr/ReadingArea_rsl0-rcl100-esl29-rsm0-rcm11-esm29-rsr0-rcr11-esr310.exr,ReadingArea_rsl0-rcl100-esl29-rsm0-rcm11-esm29-rsr0-rcr11-esr310.npz,,,,,0,93,93,594,,right,red,1.11,355.6039800643921,356.0361909866333,,2,5,5,lightness,readingArea,realistic,75,2023-03-15_12h56.57.919,tripletExp_regina_11082022,2022.2.4,119.95584206100888,
5,3,10,0,1.0,0.298245614035088,0,0.444444444444444,0.298245614035088,0,0.694444444444444,1.0,ReadingArea_rsl0-rcl100-esl29-rsm0-rcm44-esm29-rsr0-rcr69-esr100,exr/ReadingArea_rsl0-rcl100-esl29-rsm0-rcm44-esm29-rsr0-rcr69-esr100.exr,ReadingArea_rsl0-rcl100-esl29-rsm0-rcm44-esm29-rsr0-rcr69-esr100.npz,,,,,0,94,94,546,,left,green,2.8,359.5070159435272,359.9271969795227,,2,5,5,lightness,readingArea,realistic,75,2023-03-15_12h56.57.919,tripletExp_regina_11082022,2022.2.4,119.95584206100888,
13,7,6,0,0.111111111111111,3.10526315789474,0,0.111111111111111,1.0,0,0.027777777777778,1.0,ReadingArea_rsl0-rcl11-esl310-rsm0-rcm11-esm100-rsr0-rcr2-esr100,exr/ReadingArea_rsl0-rcl11-esl310-rsm0-rcm11-esm100-rsr0-rcr2-esr100.exr,ReadingArea_rsl0-rcl11-esl310-rsm0-rcm11-esm100-rsr0-rcr2-esr100.npz,,,,,0,95,95,283,,left,green,1.38,361.6267619132996,362.106283903122,,2,5,5,lightness,readingArea,realistic,75,2023-03-15_12h56.57.919,tripletExp_regina_11082022,2022.2.4,119.95584206100888,
1,13,2,0,0.111111111111111,0.298245614035088,0,0.111111111111111,3.10526315789474,0,0.25,0.298245614035088,ReadingArea_rsl0-rcl11-esl29-rsm0-rcm11-esm310-rsr0-rcr25-esr29,exr/ReadingArea_rsl0-rcl11-esl29-rsm0-rcm11-esm310-rsr0-rcr25-esr29.exr,ReadingArea_rsl0-rcl11-esl29-rsm0-rcm11-esm310-rsr0-rcr25-esr29.npz,,,,,0,96,96,118,,right,red,1.25,363.8235790729522,364.2514350414276,,2,5,5,lightness,readingArea,realistic,75,2023-03-15_12h56.57.919,tripletExp_regina_11082022,2022.2.4,119.95584206100888,
5,2,8,0,1.0,0.298245614035088,0,0.25,0.298245614035088,0,0.25,1.0,ReadingArea_rsl0-rcl100-esl29-rsm0-rcm25-esm29-rsr0-rcr25-esr100,exr/ReadingArea_rsl0-rcl100-esl29-rsm0-rcm25-esm29-rsr0-rcr25-esr100.exr,ReadingArea_rsl0-rcl100-esl29-rsm0-rcm25-esm29-rsr0-rcr25-esr100.npz,,,,,0,97,97,538,,right,red,1.08,365.9576411247253,366.38654494285583,,2,5,5,lightness,readingArea,realistic,75,2023-03-15_12h56.57.919,tripletExp_regina_11082022,2022.2.4,119.95584206100888,
0,13,1,0,0.027777777777778,0.298245614035088,0,0.111111111111111,3.10526315789474,0,0.111111111111111,0.298245614035088,ReadingArea_rsl0-rcl2-esl29-rsm0-rcm11-esm310-rsr0-rcr11-esr29,exr/ReadingArea_rsl0-rcl2-esl29-rsm0-rcm11-esm310-rsr0-rcr11-esr29.exr,ReadingArea_rsl0-rcl2-esl29-rsm0-rcm11-esm310-rsr0-rcr11-esr29.npz,,,,,0,98,98,458,,right,red,1.5,368.0978860855103,368.5103809833527,,2,5,5,lightness,readingArea,realistic,75,2023-03-15_12h56.57.919,tripletExp_regina_11082022,2022.2.4,119.95584206100888,
7,4,2,0,0.111111111111111,1.0,0,0.694444444444444,0.298245614035088,0,0.25,0.298245614035088,ReadingArea_rsl0-rcl11-esl100-rsm0-rcm69-esm29-rsr0-rcr25-esr29,exr/ReadingArea_rsl0-rcl11-esl100-rsm0-rcm69-esm29-rsr0-rcr25-esr29.exr,ReadingArea_rsl0-rcl11-esl100-rsm0-rcm69-esm29-rsr0-rcr25-esr29.npz,,,,,0,99,99,146,,left,green,3.13,372.0071229934693,372.4419660568237,,2,5,5,lightness,readingArea,realistic,75,2023-03-15_12h56.57.919,tripletExp_regina_11082022,2022.2.4,119.95584206100888,
0,14,10,0,0.027777777777778,0.298245614035088,0,0.25,3.10526315789474,0,0.694444444444444,1.0,ReadingArea_rsl0-rcl2-esl29-rsm0-rcm25-esm310-rsr0-rcr69-esr100,exr/ReadingArea_rsl0-rcl2-esl29-rsm0-rcm25-esm310-rsr0-rcr69-esr100.exr,ReadingArea_rsl0-rcl2-esl29-rsm0-rcm25-esm310-rsr0-rcr69-esr100.npz,,,,,0,100,100,128,,right,red,0.94,374.1366310119629,374.59915113449097,,2,5,5,lightness,readingArea,realistic,75,2023-03-15_12h56.57.919,tripletExp_regina_11082022,2022.2.4,119.95584206100888,
1,10,0,0,0.111111111111111,0.298245614035088,0,0.694444444444444,1.0,0,0.027777777777778,0.298245614035088,ReadingArea_rsl0-rcl11-esl29-rsm0-rcm69-esm100-rsr0-rcr2-esr29,exr/ReadingArea_rsl0-rcl11-esl29-rsm0-rcm69-esm100-rsr0-rcr2-esr29.exr,ReadingArea_rsl0-rcl11-esl29-rsm0-rcm69-esm100-rsr0-rcr2-esr29.npz,,,,,0,101,101,196,,left,green,1.02,376.29571890830994,376.69990396499634,,2,5,5,lightness,readingArea,realistic,75,2023-03-15_12h56.57.919,tripletExp_regina_11082022,2022.2.4,119.95584206100888,
1,14,8,0,0.111111111111111,0.298245614035088,0,0.25,3.10526315789474,0,0.25,1.0,ReadingArea_rsl0-rcl11-esl29-rsm0-rcm25-esm310-rsr0-rcr25-esr100,exr/ReadingArea_rsl0-rcl11-esl29-rsm0-rcm25-esm310-rsr0-rcr25-esr100.exr,ReadingArea_rsl0-rcl11-esl29-rsm0-rcm25-esm310-rsr0-rcr25-esr100.npz,,,,,0,102,102,108,,right,red,1.06,378.39785504341125,378.8052780628204,,2,5,5,lightness,readingArea,realistic,75,2023-03-15_12h56.57.919,tripletExp_regina_11082022,2022.2.4,119.95584206100888,
8,9,2,0,0.25,1.0,0,0.444444444444444,1.0,0,0.25,0.298245614035088,ReadingArea_rsl0-rcl25-esl100-rsm0-rcm44-esm100-rsr0-rcr25-esr29,exr/ReadingArea_rsl0-rcl25-esl100-rsm0-rcm44-esm100-rsr0-rcr25-esr29.exr,ReadingArea_rsl0-rcl25-esl100-rsm0-rcm44-esm100-rsr0-rcr25-esr29.npz,,,,,0,103,103,559,,left,green,0.89,380.49569606781006,380.9958069324493,,2,5,5,lightness,readingArea,realistic,75,2023-03-15_12h56.57.919,tripletExp_regina_11082022,2022.2.4,119.95584206100888,
4,2,13,0,0.694444444444444,0.298245614035088,0,0.25,0.298245614035088,0,0.111111111111111,3.10526315789474,ReadingArea_rsl0-rcl69-esl29-rsm0-rcm25-esm29-rsr0-rcr11-esr310,exr/ReadingArea_rsl0-rcl69-esl29-rsm0-rcm25-esm29-rsr0-rcr11-esr310.exr,ReadingArea_rsl0-rcl69-esl29-rsm0-rcm25-esm29-rsr0-rcr11-esr310.npz,,,,,0,104,104,304,,right,red,1.19,382.6963241100311,383.1252739429474,,2,5,5,lightness,readingArea,realistic,75,2023-03-15_12h56.57.919,tripletExp_regina_11082022,2022.2.4,119.95584206100888,
6,9,2,0,0.027777777777778,1.0,0,0.444444444444444,1.0,0,0.25,0.298245614035088,ReadingArea_rsl0-rcl2-esl100-rsm0-rcm44-esm100-rsr0-rcr25-esr29,exr/ReadingArea_rsl0-rcl2-esl100-rsm0-rcm44-esm100-rsr0-rcr25-esr29.exr,ReadingArea_rsl0-rcl2-esl100-rsm0-rcm44-esm100-rsr0-rcr25-esr29.npz,,,,,0,105,105,182,,right,red,1.06,384.82052206993103,,,2,5,5,lightness,readingArea,realistic,75,2023-03-15_12h56.57.919,tripletExp_regina_11082022,2022.2.4,119.95584206100888,
3,6,13,0,0.444444444444444,0.298245614035088,0,0.027777777777778,1.0,0,0.111111111111111,3.10526315789474,ReadingArea_rsl0-rcl44-esl29-rsm0-rcm2-esm100-rsr0-rcr11-esr310,exr/ReadingArea_rsl0-rcl44-esl29-rsm0-rcm2-esm100-rsr0-rcr11-esr310.exr,ReadingArea_rsl0-rcl44-esl29-rsm0-rcm2-esm100-rsr0-rcr11-esr310.npz,,,,,0,106,106,449,,right,red,1.29,386.94141006469727,387.3621671199799,,2,5,5,lightness,readingArea,realistic,75,2023-03-15_12h56.57.919,tripletExp_regina_11082022,2022.2.4,119.95584206100888,
2,8,4,0,0.25,0.298245614035088,0,0.25,1.0,0,0.694444444444444,0.298245614035088,ReadingArea_rsl0-rcl25-esl29-rsm0-rcm25-esm100-rsr0-rcr69-esr29,exr/ReadingArea_rsl0-rcl25-esl29-rsm0-rcm25-esm100-rsr0-rcr69-esr29.exr,ReadingArea_rsl0-rcl25-esl29-rsm0-rcm25-esm100-rsr0-rcr69-esr29.npz,,,,,0,107,107,507,,left,green,1.39,389.052540063858,389.49042892456055,,2,5,5,lightness,readingArea,realistic,75,2023-03-15_12h56.57.919,tripletExp_regina_11082022,2022.2.4,119.95584206100888,
10,14,13,0,0.694444444444444,1.0,0,0.25,3.10526315789474,0,0.111111111111111,3.10526315789474,ReadingArea_rsl0-rcl69-esl100-rsm0-rcm25-esm310-rsr0-rcr11-esr310,exr/ReadingArea_rsl0-rcl69-esl100-rsm0-rcm25-esm310-rsr0-rcr11-esr310.exr,ReadingArea_rsl0-rcl69-esl100-rsm0-rcm25-esm310-rsr0-rcr11-esr310.npz,,,,,0,108,108,168,,left,green,1.47,391.18753600120544,391.6458261013031,,2,5,5,lightness,readingArea,realistic,75,2023-03-15_12h56.57.919,tripletExp_regina_11082022,2022.2.4,119.95584206100888,
14,4,7,0,0.25,3.10526315789474,0,0.694444444444444,0.298245614035088,0,0.111111111111111,1.0,ReadingArea_rsl0-rcl25-esl310-rsm0-rcm69-esm29-rsr0-rcr11-esr100,exr/ReadingArea_rsl0-rcl25-esl310-rsm0-rcm69-esm29-rsr0-rcr11-esr100.exr,ReadingArea_rsl0-rcl25-esl310-rsm0-rcm69-esm29-rsr0-rcr11-esr100.npz,,,,,0,109,109,136,,left,green,1.38,393.3411929607392,393.7762000560761,,2,5,5,lightness,readingArea,realistic,75,2023-03-15_12h56.57.919,tripletExp_regina_11082022,2022.2.4,119.95584206100888,
6,13,0,0,0.027777777777778,1.0,0,0.111111111111111,3.10526315789474,0,0.027777777777778,0.298245614035088,ReadingArea_rsl0-rcl2-esl100-rsm0-rcm11-esm310-rsr0-rcr2-esr29,exr/ReadingArea_rsl0-rcl2-esl100-rsm0-rcm11-esm310-rsr0-rcr2-esr29.exr,ReadingArea_rsl0-rcl2-esl100-rsm0-rcm11-esm310-rsr0-rcr2-esr29.npz,,,,,0,110,110,580,,left,green,2.53,397.2702660560608,397.7241039276123,,2,5,5,lightness,readingArea,realistic,75,2023-03-15_12h56.57.919,tripletExp_regina_11082022,2022.2.4,119.95584206100888,
10,5,1,0,0.694444444444444,1.0,0,1.0,0.298245614035088,0,0.111111111111111,0.298245614035088,ReadingArea_rsl0-rcl69-esl100-rsm0-rcm100-esm29-rsr0-rcr11-esr29,exr/ReadingArea_rsl0-rcl69-esl100-rsm0-rcm100-esm29-rsr0-rcr11-esr29.exr,ReadingArea_rsl0-rcl69-esl100-rsm0-rcm100-esm29-rsr0-rcr11-esr29.npz,,,,,0,111,111,152,,left,green,0.92,399.4333550930023,399.86886501312256,,2,5,5,lightness,readingArea,realistic,75,2023-03-15_12h56.57.919,tripletExp_regina_11082022,2022.2.4,119.95584206100888,
13,10,11,0,0.111111111111111,3.10526315789474,0,0.694444444444444,1.0,0,1.0,1.0,ReadingArea_rsl0-rcl11-esl310-rsm0-rcm69-esm100-rsr0-rcr100-esr100,exr/ReadingArea_rsl0-rcl11-esl310-rsm0-rcm69-esm100-rsr0-rcr100-esr100.exr,ReadingArea_rsl0-rcl11-esl310-rsm0-rcm69-esm100-rsr0-rcr100-esr100.npz,,,,,0,112,112,320,,right,red,2.95,403.3535721302033,403.7775099277496,,2,5,5,lightness,readingArea,realistic,75,2023-03-15_12h56.57.919,tripletExp_regina_11082022,2022.2.4,119.95584206100888,
8,3,9,0,0.25,1.0,0,0.444444444444444,0.298245614035088,0,0.444444444444444,1.0,ReadingArea_rsl0-rcl25-esl100-rsm0-rcm44-esm29-rsr0-rcr44-esr100,exr/ReadingArea_rsl0-rcl25-esl100-rsm0-rcm44-esm29-rsr0-rcr44-esr100.exr,ReadingArea_rsl0-rcl25-esl100-rsm0-rcm44-esm29-rsr0-rcr44-esr100.npz,,,,,0,113,113,15,,left,green,1.24,405.5000989437103,405.93345308303833,,2,5,5,lightness,readingArea,realistic,75,2023-03-15_12h56.57.919,tripletExp_regina_11082022,2022.2.4,119.95584206100888,
9,13,0,0,0.444444444444444,1.0,0,0.111111111111111,3.10526315789474,0,0.027777777777778,0.298245614035088,ReadingArea_rsl0-rcl44-esl100-rsm0-rcm11-esm310-rsr0-rcr2-esr29,exr/ReadingArea_rsl0-rcl44-esl100-rsm0-rcm11-esm310-rsr0-rcr2-esr29.exr,ReadingArea_rsl0-rcl44-esl100-rsm0-rcm11-esm310-rsr0-rcr2-esr29.npz,,,,,0,114,114,205,,left,green,1.31,407.62217593193054,408.0354881286621,,2,5,5,lightness,readingArea,realistic,75,2023-03-15_12h56.57.919,tripletExp_regina_11082022,2022.2.4,119.95584206100888,
5,6,0,0,1.0,0.298245614035088,0,0.027777777777778,1.0,0,0.027777777777778,0.298245614035088,ReadingArea_rsl0-rcl100-esl29-rsm0-rcm2-esm100-rsr0-rcr2-esr29,exr/ReadingArea_rsl0-rcl100-esl29-rsm0-rcm2-esm100-rsr0-rcr2-esr29.exr,ReadingArea_rsl0-rcl100-esl29-rsm0-rcm2-esm100-rsr0-rcr2-esr29.npz,,,,,0,115,115,511,,right,red,2.36,411.4965310096741,411.9487030506134,,2,5,5,lightness,readingArea,realistic,75,2023-03-15_12h56.57.919,tripletExp_regina_11082022,2022.2.4,119.95584206100888,
10,11,13,0,0.694444444444444,1.0,0,1.0,1.0,0,0.111111111111111,3.10526315789474,ReadingArea_rsl0-rcl69-esl100-rsm0-rcm100-esm100-rsr0-rcr11-esr310,exr/ReadingArea_rsl0-rcl69-esl100-rsm0-rcm100-esm100-rsr0-rcr11-esr310.exr,ReadingArea_rsl0-rcl69-esl100-rsm0-rcm100-esm100-rsr0-rcr11-esr310.npz,,,,,0,116,116,79,,left,green,1.14,413.64061403274536,414.0571310520172,,2,5,5,lightness,readingArea,realistic,75,2023-03-15_12h56.57.919,tripletExp_regina_11082022,2022.2.4,119.95584206100888,
7,5,1,0,0.111111111111111,1.0,0,1.0,0.298245614035088,0,0.111111111111111,0.298245614035088,ReadingArea_rsl0-rcl11-esl100-rsm0-rcm100-esm29-rsr0-rcr11-esr29,exr/ReadingArea_rsl0-rcl11-esl100-rsm0-rcm100-esm29-rsr0-rcr11-esr29.exr,ReadingArea_rsl0-rcl11-esl100-rsm0-rcm100-esm29-rsr0-rcr11-esr29.npz,,,,,0,117,117,513,,left,green,2.33,417.5389420986176,418.0101089477539,,2,5,5,lightness,readingArea,realistic,75,2023-03-15_12h56.57.919,tripletExp_regina_11082022,2022.2.4,119.95584206100888,
13,11,10,0,0.111111111111111,3.10526315789474,0,1.0,1.0,0,0.694444444444444,1.0,ReadingArea_rsl0-rcl11-esl310-rsm0-rcm100-esm100-rsr0-rcr69-esr100,exr/ReadingArea_rsl0-rcl11-esl310-rsm0-rcm100-esm100-rsr0-rcr69-esr100.exr,ReadingArea_rsl0-rcl11-esl310-rsm0-rcm100-esm100-rsr0-rcr69-esr100.npz,,,,,0,118,118,577,,right,red,1.42,419.7037920951843,420.12243604660034,,2,5,5,lightness,readingArea,realistic,75,2023-03-15_12h56.57.919,tripletExp_regina_11082022,2022.2.4,119.95584206100888,
9,12,0,0,0.444444444444444,1.0,0,0.027777777777778,3.10526315789474,0,0.027777777777778,0.298245614035088,ReadingArea_rsl0-rcl44-esl100-rsm0-rcm2-esm310-rsr0-rcr2-esr29,exr/ReadingArea_rsl0-rcl44-esl100-rsm0-rcm2-esm310-rsr0-rcr2-esr29.exr,ReadingArea_rsl0-rcl44-esl100-rsm0-rcm2-esm310-rsr0-rcr2-esr29.npz,,,,,0,119,119,175,,right,red,3.03,423.615797996521,424.19231605529785,,2,5,5,lightness,readingArea,realistic,75,2023-03-15_12h56.57.919,tripletExp_regina_11082022,2022.2.4,119.95584206100888,
9,4,11,0,0.444444444444444,1.0,0,0.694444444444444,0.298245614035088,0,1.0,1.0,ReadingArea_rsl0-rcl44-esl100-rsm0-rcm69-esm29-rsr0-rcr100-esr100,exr/ReadingArea_rsl0-rcl44-esl100-rsm0-rcm69-esm29-rsr0-rcr100-esr100.exr,ReadingArea_rsl0-rcl44-esl100-rsm0-rcm69-esm29-rsr0-rcr100-esr100.npz,,,,,0,120,120,133,,left,green,1.11,425.9108040332794,426.3304290771485,,2,5,5,lightness,readingArea,realistic,75,2023-03-15_12h56.57.919,tripletExp_regina_11082022,2022.2.4,119.95584206100888,
10,6,3,0,0.694444444444444,1.0,0,0.027777777777778,1.0,0,0.444444444444444,0.298245614035088,ReadingArea_rsl0-rcl69-esl100-rsm0-rcm2-esm100-rsr0-rcr44-esr29,exr/ReadingArea_rsl0-rcl69-esl100-rsm0-rcm2-esm100-rsr0-rcr44-esr29.exr,ReadingArea_rsl0-rcl69-esl100-rsm0-rcm2-esm100-rsr0-rcr44-esr29.npz,,,,,0,121,121,0,,right,red,1.14,428.0476140975952,428.5353801250458,,2,5,5,lightness,readingArea,realistic,75,2023-03-15_12h56.57.919,tripletExp_regina_11082022,2022.2.4,119.95584206100888,
14,13,6,0,0.25,3.10526315789474,0,0.111111111111111,3.10526315789474,0,0.027777777777778,1.0,ReadingArea_rsl0-rcl25-esl310-rsm0-rcm11-esm310-rsr0-rcr2-esr100,exr/ReadingArea_rsl0-rcl25-esl310-rsm0-rcm11-esm310-rsr0-rcr2-esr100.exr,ReadingArea_rsl0-rcl25-esl310-rsm0-rcm11-esm310-rsr0-rcr2-esr100.npz,,,,,0,122,122,102,,left,green,1.4,430.22908997535706,430.6669209003449,,2,5,5,lightness,readingArea,realistic,75,2023-03-15_12h56.57.919,tripletExp_regina_11082022,2022.2.4,119.95584206100888,
8,9,6,0,0.25,1.0,0,0.444444444444444,1.0,0,0.027777777777778,1.0,ReadingArea_rsl0-rcl25-esl100-rsm0-rcm44-esm100-rsr0-rcr2-esr100,exr/ReadingArea_rsl0-rcl25-esl100-rsm0-rcm44-esm100-rsr0-rcr2-esr100.exr,ReadingArea_rsl0-rcl25-esl100-rsm0-rcm44-esm100-rsr0-rcr2-esr100.npz,,,,,0,123,123,3,,left,green,0.88,432.3632779121399,432.7812600135803,,2,5,5,lightness,readingArea,realistic,75,2023-03-15_12h56.57.919,tripletExp_regina_11082022,2022.2.4,119.95584206100888,
5,4,12,0,1.0,0.298245614035088,0,0.694444444444444,0.298245614035088,0,0.027777777777778,3.10526315789474,ReadingArea_rsl0-rcl100-esl29-rsm0-rcm69-esm29-rsr0-rcr2-esr310,exr/ReadingArea_rsl0-rcl100-esl29-rsm0-rcm69-esm29-rsr0-rcr2-esr310.exr,ReadingArea_rsl0-rcl100-esl29-rsm0-rcm69-esm29-rsr0-rcr2-esr310.npz,,,,,0,124,124,82,,left,green,1.05,434.4778859615326,,,2,5,5,lightness,readingArea,realistic,75,2023-03-15_12h56.57.919,tripletExp_regina_11082022,2022.2.4,119.95584206100888,
2,12,6,0,0.25,0.298245614035088,0,0.027777777777778,3.10526315789474,0,0.027777777777778,1.0,ReadingArea_rsl0-rcl25-esl29-rsm0-rcm2-esm310-rsr0-rcr2-esr100,exr/ReadingArea_rsl0-rcl25-esl29-rsm0-rcm2-esm310-rsr0-rcr2-esr100.exr,ReadingArea_rsl0-rcl25-esl29-rsm0-rcm2-esm310-rsr0-rcr2-esr100.npz,,,,,0,125,125,400,,left,green,1.1,436.62412309646606,437.0535809993744,,2,5,5,lightness,readingArea,realistic,75,2023-03-15_12h56.57.919,tripletExp_regina_11082022,2022.2.4,119.95584206100888,
3,6,10,0,0.444444444444444,0.298245614035088,0,0.027777777777778,1.0,0,0.694444444444444,1.0,ReadingArea_rsl0-rcl44-esl29-rsm0-rcm2-esm100-rsr0-rcr69-esr100,exr/ReadingArea_rsl0-rcl44-esl29-rsm0-rcm2-esm100-rsr0-rcr69-esr100.exr,ReadingArea_rsl0-rcl44-esl29-rsm0-rcm2-esm100-rsr0-rcr69-esr100.npz,,,,,0,126,126,138,,left,green,2.53,440.5261430740357,440.95992708206177,,2,5,5,lightness,readingArea,realistic,75,2023-03-15_12h56.57.919,tripletExp_regina_11082022,2022.2.4,119.95584206100888,
9,8,7,0,0.444444444444444,1.0,0,0.25,1.0,0,0.111111111111111,1.0,ReadingArea_rsl0-rcl44-esl100-rsm0-rcm25-esm100-rsr0-rcr11-esr100,exr/ReadingArea_rsl0-rcl44-esl100-rsm0-rcm25-esm100-rsr0-rcr11-esr100.exr,ReadingArea_rsl0-rcl44-esl100-rsm0-rcm25-esm100-rsr0-rcr11-esr100.npz,,,,,0,127,127,368,,right,red,1.13,442.6510260105133,443.0558919906616,,2,5,5,lightness,readingArea,realistic,75,2023-03-15_12h56.57.919,tripletExp_regina_11082022,2022.2.4,119.95584206100888,
14,12,9,0,0.25,3.10526315789474,0,0.027777777777778,3.10526315789474,0,0.444444444444444,1.0,ReadingArea_rsl0-rcl25-esl310-rsm0-rcm2-esm310-rsr0-rcr44-esr100,exr/ReadingArea_rsl0-rcl25-esl310-rsm0-rcm2-esm310-rsr0-rcr44-esr100.exr,ReadingArea_rsl0-rcl25-esl310-rsm0-rcm2-esm310-rsr0-rcr44-esr100.npz,,,,,0,128,128,40,,right,red,2.86,446.51151299476624,446.9392590522766,,2,5,5,lightness,readingArea,realistic,75,2023-03-15_12h56.57.919,tripletExp_regina_11082022,2022.2.4,119.95584206100888,
11,13,8,0,1.0,1.0,0,0.111111111111111,3.10526315789474,0,0.25,1.0,ReadingArea_rsl0-rcl100-esl100-rsm0-rcm11-esm310-rsr0-rcr25-esr100,exr/ReadingArea_rsl0-rcl100-esl100-rsm0-rcm11-esm310-rsr0-rcr25-esr100.exr,ReadingArea_rsl0-rcl100-esl100-rsm0-rcm11-esm310-rsr0-rcr25-esr100.npz,,,,,0,129,129,198,,right,red,0.98,448.6340820789337,449.0574250221253,,2,5,5,lightness,readingArea,realistic,75,2023-03-15_12h56.57.919,tripletExp_regina_11082022,2022.2.4,119.95584206100888,
14,7,8,0,0.25,3.10526315789474,0,0.111111111111111,1.0,0,0.25,1.0,ReadingArea_rsl0-rcl25-esl310-rsm0-rcm11-esm100-rsr0-rcr25-esr100,exr/ReadingArea_rsl0-rcl25-esl310-rsm0-rcm11-esm100-rsr0-rcr25-esr100.exr,ReadingArea_rsl0-rcl25-esl310-rsm0-rcm11-esm100-rsr0-rcr25-esr100.npz,,,,,0,130,130,326,,right,red,0.93,450.783921957016,451.2334220409393,,2,5,5,lightness,readingArea,realistic,75,2023-03-15_12h56.57.919,tripletExp_regina_11082022,2022.2.4,119.95584206100888,
4,5,9,0,0.694444444444444,0.298245614035088,0,1.0,0.298245614035088,0,0.444444444444444,1.0,ReadingArea_rsl0-rcl69-esl29-rsm0-rcm100-esm29-rsr0-rcr44-esr100,exr/ReadingArea_rsl0-rcl69-esl29-rsm0-rcm100-esm29-rsr0-rcr44-esr100.exr,ReadingArea_rsl0-rcl69-esl29-rsm0-rcm100-esm29-rsr0-rcr44-esr100.npz,,,,,0,131,131,211,,left,green,1.26,452.9519019126892,453.3835520744324,,2,5,5,lightness,readingArea,realistic,75,2023-03-15_12h56.57.919,tripletExp_regina_11082022,2022.2.4,119.95584206100888,
7,0,3,0,0.111111111111111,1.0,0,0.027777777777778,0.298245614035088,0,0.444444444444444,0.298245614035088,ReadingArea_rsl0-rcl11-esl100-rsm0-rcm2-esm29-rsr0-rcr44-esr29,exr/ReadingArea_rsl0-rcl11-esl100-rsm0-rcm2-esm29-rsr0-rcr44-esr29.exr,ReadingArea_rsl0-rcl11-esl100-rsm0-rcm2-esm29-rsr0-rcr44-esr29.npz,,,,,0,132,132,237,,left,green,0.97,455.1071639060974,455.5328409671784,,2,5,5,lightness,readingArea,realistic,75,2023-03-15_12h56.57.919,tripletExp_regina_11082022,2022.2.4,119.95584206100888,
1,3,12,0,0.111111111111111,0.298245614035088,0,0.444444444444444,0.298245614035088,0,0.027777777777778,3.10526315789474,ReadingArea_rsl0-rcl11-esl29-rsm0-rcm44-esm29-rsr0-rcr2-esr310,exr/ReadingArea_rsl0-rcl11-esl29-rsm0-rcm44-esm29-rsr0-rcr2-esr310.exr,ReadingArea_rsl0-rcl11-esl29-rsm0-rcm44-esm29-rsr0-rcr2-esr310.npz,,,,,0,133,133,323,,left,green,2.16,458.9765660762787,459.41356205940247,,2,5,5,lightness,readingArea,realistic,75,2023-03-15_12h56.57.919,tripletExp_regina_11082022,2022.2.4,119.95584206100888,
4,7,10,0,0.694444444444444,0.298245614035088,0,0.111111111111111,1.0,0,0.694444444444444,1.0,ReadingArea_rsl0-rcl69-esl29-rsm0-rcm11-esm100-rsr0-rcr69-esr100,exr/ReadingArea_rsl0-rcl69-esl29-rsm0-rcm11-esm100-rsr0-rcr69-esr100.exr,ReadingArea_rsl0-rcl69-esl29-rsm0-rcm11-esm100-rsr0-rcr69-esr100.npz,,,,,0,134,134,8,,left,green,1.32,461.1122260093689,461.5385000705719,,2,5,5,lightness,readingArea,realistic,75,2023-03-15_12h56.57.919,tripletExp_regina_11082022,2022.2.4,119.95584206100888,
1,4,7,0,0.111111111111111,0.298245614035088,0,0.694444444444444,0.298245614035088,0,0.111111111111111,1.0,ReadingArea_rsl0-rcl11-esl29-rsm0-rcm69-esm29-rsr0-rcr11-esr100,exr/ReadingArea_rsl0-rcl11-esl29-rsm0-rcm69-esm29-rsr0-rcr11-esr100.exr,ReadingArea_rsl0-rcl11-esl29-rsm0-rcm69-esm29-rsr0-rcr11-esr100.npz,,,,,0,135,135,522,,left,green,1.18,463.2291491031647,463.6772360801697,,2,5,5,lightness,readingArea,realistic,75,2023-03-15_12h56.57.919,tripletExp_regina_11082022,2022.2.4,119.95584206100888,
9,12,6,0,0.444444444444444,1.0,0,0.027777777777778,3.10526315789474,0,0.027777777777778,1.0,ReadingArea_rsl0-rcl44-esl100-rsm0-rcm2-esm310-rsr0-rcr2-esr100,exr/ReadingArea_rsl0-rcl44-esl100-rsm0-rcm2-esm310-rsr0-rcr2-esr100.exr,ReadingArea_rsl0-rcl44-esl100-rsm0-rcm2-esm310-rsr0-rcr2-esr100.npz,,,,,0,136,136,5,,right,red,1.21,465.3701059818268,465.8054161071777,,2,5,5,lightness,readingArea,realistic,75,2023-03-15_12h56.57.919,tripletExp_regina_11082022,2022.2.4,119.95584206100888,
12,3,5,0,0.027777777777778,3.10526315789474,0,0.444444444444444,0.298245614035088,0,1.0,0.298245614035088,ReadingArea_rsl0-rcl2-esl310-rsm0-rcm44-esm29-rsr0-rcr100-esr29,exr/ReadingArea_rsl0-rcl2-esl310-rsm0-rcm44-esm29-rsr0-rcr100-esr29.exr,ReadingArea_rsl0-rcl2-esl310-rsm0-rcm44-esm29-rsr0-rcr100-esr29.npz,,,,,0,137,137,188,,left,green,1.33,467.52445793151855,467.9375240802765,,2,5,5,lightness,readingArea,realistic,75,2023-03-15_12h56.57.919,tripletExp_regina_11082022,2022.2.4,119.95584206100888,
6,11,14,0,0.027777777777778,1.0,0,1.0,1.0,0,0.25,3.10526315789474,ReadingArea_rsl0-rcl2-esl100-rsm0-rcm100-esm100-rsr0-rcr25-esr310,exr/ReadingArea_rsl0-rcl2-esl100-rsm0-rcm100-esm100-rsr0-rcr25-esr310.exr,ReadingArea_rsl0-rcl2-esl100-rsm0-rcm100-esm100-rsr0-rcr25-esr310.npz,,,,,0,138,138,262,,right,red,0.82,469.6295919418335,470.0560660362244,,2,5,5,lightness,readingArea,realistic,75,2023-03-15_12h56.57.919,tripletExp_regina_11082022,2022.2.4,119.95584206100888,
5,0,11,0,1.0,0.298245614035088,0,0.027777777777778,0.298245614035088,0,1.0,1.0,ReadingArea_rsl0-rcl100-esl29-rsm0-rcm2-esm29-rsr0-rcr100-esr100,exr/ReadingArea_rsl0-rcl100-esl29-rsm0-rcm2-esm29-rsr0-rcr100-esr100.exr,ReadingArea_rsl0-rcl100-esl29-rsm0-rcm2-esm29-rsr0-rcr100-esr100.npz,,,,,0,139,139,547,,left,green,1.09,471.7730269432068,472.21304512023926,,2,5,5,lightness,readingArea,realistic,75,2023-03-15_12h56.57.919,tripletExp_regina_11082022,2022.2.4,119.95584206100888,
7,5,11,0,0.111111111111111,1.0,0,1.0,0.298245614035088,0,1.0,1.0,ReadingArea_rsl0-rcl11-esl100-rsm0-rcm100-esm29-rsr0-rcr100-esr100,exr/ReadingArea_rsl0-rcl11-esl100-rsm0-rcm100-esm29-rsr0-rcr100-esr100.exr,ReadingArea_rsl0-rcl11-esl100-rsm0-rcm100-esm29-rsr0-rcr100-esr100.npz,,,,,0,140,140,10,,left,green,2.71,475.6977210044861,476.1211750507355,,2,5,5,lightness,readingArea,realistic,75,2023-03-15_12h56.57.919,tripletExp_regina_11082022,2022.2.4,119.95584206100888,
0,8,14,0,0.027777777777778,0.298245614035088,0,0.25,1.0,0,0.25,3.10526315789474,ReadingArea_rsl0-rcl2-esl29-rsm0-rcm25-esm100-rsr0-rcr25-esr310,exr/ReadingArea_rsl0-rcl2-esl29-rsm0-rcm25-esm100-rsr0-rcr25-esr310.exr,ReadingArea_rsl0-rcl2-esl29-rsm0-rcm25-esm100-rsr0-rcr25-esr310.npz,,,,,0,141,141,114,,right,red,2.61,479.584438085556,480.0413699150085,,2,5,5,lightness,readingArea,realistic,75,2023-03-15_12h56.57.919,tripletExp_regina_11082022,2022.2.4,119.95584206100888,
0,7,13,0,0.027777777777778,0.298245614035088,0,0.111111111111111,1.0,0,0.111111111111111,3.10526315789474,ReadingArea_rsl0-rcl2-esl29-rsm0-rcm11-esm100-rsr0-rcr11-esr310,exr/ReadingArea_rsl0-rcl2-esl29-rsm0-rcm11-esm100-rsr0-rcr11-esr310.exr,ReadingArea_rsl0-rcl2-esl29-rsm0-rcm11-esm100-rsr0-rcr11-esr310.npz,,,,,0,142,142,159,,right,red,0.93,481.74188208580017,482.1612660884857,,2,5,5,lightness,readingArea,realistic,75,2023-03-15_12h56.57.919,tripletExp_regina_11082022,2022.2.4,119.95584206100888,
6,11,1,0,0.027777777777778,1.0,0,1.0,1.0,0,0.111111111111111,0.298245614035088,ReadingArea_rsl0-rcl2-esl100-rsm0-rcm100-esm100-rsr0-rcr11-esr29,exr/ReadingArea_rsl0-rcl2-esl100-rsm0-rcm100-esm100-rsr0-rcr11-esr29.exr,ReadingArea_rsl0-rcl2-esl100-rsm0-rcm100-esm100-rsr0-rcr11-esr29.npz,,,,,0,143,143,436,,right,red,2.6,485.62300205230713,486.06574392318726,,2,5,5,lightness,readingArea,realistic,75,2023-03-15_12h56.57.919,tripletExp_regina_11082022,2022.2.4,119.95584206100888,
12,14,8,0,0.027777777777778,3.10526315789474,0,0.25,3.10526315789474,0,0.25,1.0,ReadingArea_rsl0-rcl2-esl310-rsm0-rcm25-esm310-rsr0-rcr25-esr100,exr/ReadingArea_rsl0-rcl2-esl310-rsm0-rcm25-esm310-rsr0-rcr25-esr100.exr,ReadingArea_rsl0-rcl2-esl310-rsm0-rcm25-esm310-rsr0-rcr25-esr100.npz,,,,,0,144,144,466,,right,red,1.25,487.7604520320892,488.1842119693756,,2,5,5,lightness,readingArea,realistic,75,2023-03-15_12h56.57.919,tripletExp_regina_11082022,2022.2.4,119.95584206100888,
8,14,6,0,0.25,1.0,0,0.25,3.10526315789474,0,0.027777777777778,1.0,ReadingArea_rsl0-rcl25-esl100-rsm0-rcm25-esm310-rsr0-rcr2-esr100,exr/ReadingArea_rsl0-rcl25-esl100-rsm0-rcm25-esm310-rsr0-rcr2-esr100.exr,ReadingArea_rsl0-rcl25-esl100-rsm0-rcm25-esm310-rsr0-rcr2-esr100.npz,,,,,0,145,145,469,,left,green,1.02,489.8784210681915,,,2,5,5,lightness,readingArea,realistic,75,2023-03-15_12h56.57.919,tripletExp_regina_11082022,2022.2.4,119.95584206100888,
2,9,11,0,0.25,0.298245614035088,0,0.444444444444444,1.0,0,1.0,1.0,ReadingArea_rsl0-rcl25-esl29-rsm0-rcm44-esm100-rsr0-rcr100-esr100,exr/ReadingArea_rsl0-rcl25-esl29-rsm0-rcm44-esm100-rsr0-rcr100-esr100.exr,ReadingArea_rsl0-rcl25-esl29-rsm0-rcm44-esm100-rsr0-rcr100-esr100.npz,,,,,0,146,146,164,,left,green,0.97,492.0137689113617,492.48150610923767,,2,5,5,lightness,readingArea,realistic,75,2023-03-15_12h56.57.919,tripletExp_regina_11082022,2022.2.4,119.95584206100888,
3,9,0,0,0.444444444444444,0.298245614035088,0,0.444444444444444,1.0,0,0.027777777777778,0.298245614035088,ReadingArea_rsl0-rcl44-esl29-rsm0-rcm44-esm100-rsr0-rcr2-esr29,exr/ReadingArea_rsl0-rcl44-esl29-rsm0-rcm44-esm100-rsr0-rcr2-esr29.exr,ReadingArea_rsl0-rcl44-esl29-rsm0-rcm44-esm100-rsr0-rcr2-esr29.npz,,,,,0,147,147,551,,left,green,1.42,494.18075299263,494.6280710697174,,2,5,5,lightness,readingArea,realistic,75,2023-03-15_12h56.57.919,tripletExp_regina_11082022,2022.2.4,119.95584206100888,
1,12,0,0,0.111111111111111,0.298245614035088,0,0.027777777777778,3.10526315789474,0,0.027777777777778,0.298245614035088,ReadingArea_rsl0-rcl11-esl29-rsm0-rcm2-esm310-rsr0-rcr2-esr29,exr/ReadingArea_rsl0-rcl11-esl29-rsm0-rcm2-esm310-rsr0-rcr2-esr29.exr,ReadingArea_rsl0-rcl11-esl29-rsm0-rcm2-esm310-rsr0-rcr2-esr29.npz,,,,,0,148,148,113,,left,green,1.03,496.3226149082184,496.7399771213532,,2,5,5,lightness,readingArea,realistic,75,2023-03-15_12h56.57.919,tripletExp_regina_11082022,2022.2.4,119.95584206100888,
10,3,6,0,0.694444444444444,1.0,0,0.444444444444444,0.298245614035088,0,0.027777777777778,1.0,ReadingArea_rsl0-rcl69-esl100-rsm0-rcm44-esm29-rsr0-rcr2-esr100,exr/ReadingArea_rsl0-rcl69-esl100-rsm0-rcm44-esm29-rsr0-rcr2-esr100.exr,ReadingArea_rsl0-rcl69-esl100-rsm0-rcm44-esm29-rsr0-rcr2-esr100.npz,,,,,0,149,149,261,,right,red,2.6,500.2010819911957,500.4039709568024,,2,5,5,lightness,readingArea,realistic,75,2023-03-15_12h56.57.919,tripletExp_regina_11082022,2022.2.4,119.95584206100888,
10,11,4,0,0.694444444444444,1.0,0,1.0,1.0,0,0.694444444444444,0.298245614035088,ReadingArea_rsl0-rcl69-esl100-rsm0-rcm100-esm100-rsr0-rcr69-esr29,exr/ReadingArea_rsl0-rcl69-esl100-rsm0-rcm100-esm100-rsr0-rcr69-esr29.exr,ReadingArea_rsl0-rcl69-esl100-rsm0-rcm100-esm100-rsr0-rcr69-esr29.npz,,,,,0,150,150,239,,left,green,1.0,504.4241230487824,504.8499619960785,,3,5,5,lightness,readingArea,realistic,75,2023-03-15_12h56.57.919,tripletExp_regina_11082022,2022.2.4,119.95584206100888,
1,9,7,0,0.111111111111111,0.298245614035088,0,0.444444444444444,1.0,0,0.111111111111111,1.0,ReadingArea_rsl0-rcl11-esl29-rsm0-rcm44-esm100-rsr0-rcr11-esr100,exr/ReadingArea_rsl0-rcl11-esl29-rsm0-rcm44-esm100-rsr0-rcr11-esr100.exr,ReadingArea_rsl0-rcl11-esl29-rsm0-rcm44-esm100-rsr0-rcr11-esr100.npz,,,,,0,151,151,397,,right,red,0.95,506.57283997535706,,,3,5,5,lightness,readingArea,realistic,75,2023-03-15_12h56.57.919,tripletExp_regina_11082022,2022.2.4,119.95584206100888,
7,8,12,0,0.111111111111111,1.0,0,0.25,1.0,0,0.027777777777778,3.10526315789474,ReadingArea_rsl0-rcl11-esl100-rsm0-rcm25-esm100-rsr0-rcr2-esr310,exr/ReadingArea_rsl0-rcl11-esl100-rsm0-rcm25-esm100-rsr0-rcr2-esr310.exr,ReadingArea_rsl0-rcl11-esl100-rsm0-rcm25-esm100-rsr0-rcr2-esr310.npz,,,,,0,152,152,271,,left,green,0.94,508.7001240253449,509.1637670993805,,3,5,5,lightness,readingArea,realistic,75,2023-03-15_12h56.57.919,tripletExp_regina_11082022,2022.2.4,119.95584206100888,
2,11,5,0,0.25,0.298245614035088,0,1.0,1.0,0,1.0,0.298245614035088,ReadingArea_rsl0-rcl25-esl29-rsm0-rcm100-esm100-rsr0-rcr100-esr29,exr/ReadingArea_rsl0-rcl25-esl29-rsm0-rcm100-esm100-rsr0-rcr100-esr29.exr,ReadingArea_rsl0-rcl25-esl29-rsm0-rcm100-esm100-rsr0-rcr100-esr29.npz,,,,,0,153,153,491,,right,red,2.3,512.6252770423889,513.0804200172424,,3,5,5,lightness,readingArea,realistic,75,2023-03-15_12h56.57.919,tripletExp_regina_11082022,2022.2.4,119.95584206100888,
14,10,13,0,0.25,3.10526315789474,0,0.694444444444444,1.0,0,0.111111111111111,3.10526315789474,ReadingArea_rsl0-rcl25-esl310-rsm0-rcm69-esm100-rsr0-rcr11-esr310,exr/ReadingArea_rsl0-rcl25-esl310-rsm0-rcm69-esm100-rsr0-rcr11-esr310.exr,ReadingArea_rsl0-rcl25-esl310-rsm0-rcm69-esm100-rsr0-rcr11-esr310.npz,,,,,0,154,154,204,,left,green,1.03,514.8041191101074,515.2466199398041,,3,5,5,lightness,readingArea,realistic,75,2023-03-15_12h56.57.919,tripletExp_regina_11082022,2022.2.4,119.95584206100888,
3,5,7,0,0.444444444444444,0.298245614035088,0,1.0,0.298245614035088,0,0.111111111111111,1.0,ReadingArea_rsl0-rcl44-esl29-rsm0-rcm100-esm29-rsr0-rcr11-esr100,exr/ReadingArea_rsl0-rcl44-esl29-rsm0-rcm100-esm29-rsr0-rcr11-esr100.exr,ReadingArea_rsl0-rcl44-esl29-rsm0-rcm100-esm29-rsr0-rcr11-esr100.npz,,,,,0,155,155,474,,left,green,1.61,516.939845085144,517.3605310916901,,3,5,5,lightness,readingArea,realistic,75,2023-03-15_12h56.57.919,tripletExp_regina_11082022,2022.2.4,119.95584206100888,
2,4,10,0,0.25,0.298245614035088,0,0.694444444444444,0.298245614035088,0,0.694444444444444,1.0,ReadingArea_rsl0-rcl25-esl29-rsm0-rcm69-esm29-rsr0-rcr69-esr100,exr/ReadingArea_rsl0-rcl25-esl29-rsm0-rcm69-esm29-rsr0-rcr69-esr100.exr,ReadingArea_rsl0-rcl25-esl29-rsm0-rcm69-esm29-rsr0-rcr69-esr100.npz,,,,,0,156,156,174,,left,green,0.99,519.0600929260254,519.4464199542999,,3,5,5,lightness,readingArea,realistic,75,2023-03-15_12h56.57.919,tripletExp_regina_11082022,2022.2.4,119.95584206100888,
11,8,2,0,1.0,1.0,0,0.25,1.0,0,0.25,0.298245614035088,ReadingArea_rsl0-rcl100-esl100-rsm0-rcm25-esm100-rsr0-rcr25-esr29,exr/ReadingArea_rsl0-rcl100-esl100-rsm0-rcm25-esm100-rsr0-rcr25-esr29.exr,ReadingArea_rsl0-rcl100-esl100-rsm0-rcm25-esm100-rsr0-rcr25-esr29.npz,,,,,0,157,157,406,,right,red,0.93,521.1469349861145,521.5754721164703,,3,5,5,lightness,readingArea,realistic,75,2023-03-15_12h56.57.919,tripletExp_regina_11082022,2022.2.4,119.95584206100888,
12,6,9,0,0.027777777777778,3.10526315789474,0,0.027777777777778,1.0,0,0.444444444444444,1.0,ReadingArea_rsl0-rcl2-esl310-rsm0-rcm2-esm100-rsr0-rcr44-esr100,exr/ReadingArea_rsl0-rcl2-esl310-rsm0-rcm2-esm100-rsr0-rcr44-esr100.exr,ReadingArea_rsl0-rcl2-esl310-rsm0-rcm2-esm100-rsr0-rcr44-esr100.npz,,,,,0,158,158,177,,left,green,0.87,523.2779269218445,523.697154045105,,3,5,5,lightness,readingArea,realistic,75,2023-03-15_12h56.57.919,tripletExp_regina_11082022,2022.2.4,119.95584206100888,
11,7,13,0,1.0,1.0,0,0.111111111111111,1.0,0,0.111111111111111,3.10526315789474,ReadingArea_rsl0-rcl100-esl100-rsm0-rcm11-esm100-rsr0-rcr11-esr310,exr/ReadingArea_rsl0-rcl100-esl100-rsm0-rcm11-esm100-rsr0-rcr11-esr310.exr,ReadingArea_rsl0-rcl100-esl100-rsm0-rcm11-esm100-rsr0-rcr11-esr310.npz,,,,,0,159,159,431,,right,red,0.95,525.3942339420319,525.8417809009552,,3,5,5,lightness,readingArea,realistic,75,2023-03-15_12h56.57.919,tripletExp_regina_11082022,2022.2.4,119.95584206100888,
2,4,14,0,0.25,0.298245614035088,0,0.694444444444444,0.298245614035088,0,0.25,3.10526315789474,ReadingArea_rsl0-rcl25-esl29-rsm0-rcm69-esm29-rsr0-rcr25-esr310,exr/ReadingArea_rsl0-rcl25-esl29-rsm0-rcm69-esm29-rsr0-rcr25-esr310.exr,ReadingArea_rsl0-rcl25-esl29-rsm0-rcm69-esm29-rsr0-rcr25-esr310.npz,,,,,0,160,160,356,,left,green,1.3,527.5422210693359,527.9837429523468,,3,5,5,lightness,readingArea,realistic,75,2023-03-15_12h56.57.919,tripletExp_regina_11082022,2022.2.4,119.95584206100888,
1,13,7,0,0.111111111111111,0.298245614035088,0,0.111111111111111,3.10526315789474,0,0.111111111111111,1.0,ReadingArea_rsl0-rcl11-esl29-rsm0-rcm11-esm310-rsr0-rcr11-esr100,exr/ReadingArea_rsl0-rcl11-esl29-rsm0-rcm11-esm310-rsr0-rcr11-esr100.exr,ReadingArea_rsl0-rcl11-esl29-rsm0-rcm11-esm310-rsr0-rcr11-esr100.npz,,,,,0,161,161,158,,left,green,2.98,531.4592680931091,531.888072013855,,3,5,5,lightness,readingArea,realistic,75,2023-03-15_12h56.57.919,tripletExp_regina_11082022,2022.2.4,119.95584206100888,
4,8,11,0,0.694444444444444,0.298245614035088,0,0.25,1.0,0,1.0,1.0,ReadingArea_rsl0-rcl69-esl29-rsm0-rcm25-esm100-rsr0-rcr100-esr100,exr/ReadingArea_rsl0-rcl69-esl29-rsm0-rcm25-esm100-rsr0-rcr100-esr100.exr,ReadingArea_rsl0-rcl69-esl29-rsm0-rcm25-esm100-rsr0-rcr100-esr100.npz,,,,,0,162,162,403,,left,green,0.76,533.5887501239777,534.0206520557404,,3,5,5,lightness,readingArea,realistic,75,2023-03-15_12h56.57.919,tripletExp_regina_11082022,2022.2.4,119.95584206100888,
2,1,6,0,0.25,0.298245614035088,0,0.111111111111111,0.298245614035088,0,0.027777777777778,1.0,ReadingArea_rsl0-rcl25-esl29-rsm0-rcm11-esm29-rsr0-rcr2-esr100,exr/ReadingArea_rsl0-rcl25-esl29-rsm0-rcm11-esm29-rsr0-rcr2-esr100.exr,ReadingArea_rsl0-rcl25-esl29-rsm0-rcm11-esm29-rsr0-rcr2-esr100.npz,,,,,0,163,163,171,,left,green,2.52,537.468964099884,537.8987319469452,,3,5,5,lightness,readingArea,realistic,75,2023-03-15_12h56.57.919,tripletExp_regina_11082022,2022.2.4,119.95584206100888,
10,1,13,0,0.694444444444444,1.0,0,0.111111111111111,0.298245614035088,0,0.111111111111111,3.10526315789474,ReadingArea_rsl0-rcl69-esl100-rsm0-rcm11-esm29-rsr0-rcr11-esr310,exr/ReadingArea_rsl0-rcl69-esl100-rsm0-rcm11-esm29-rsr0-rcr11-esr310.exr,ReadingArea_rsl0-rcl69-esl100-rsm0-rcm11-esm29-rsr0-rcr11-esr310.npz,,,,,0,164,164,45,,right,red,2.49,541.361799955368,,,3,5,5,lightness,readingArea,realistic,75,2023-03-15_12h56.57.919,tripletExp_regina_11082022,2022.2.4,119.95584206100888,
12,1,2,0,0.027777777777778,3.10526315789474,0,0.111111111111111,0.298245614035088,0,0.25,0.298245614035088,ReadingArea_rsl0-rcl2-esl310-rsm0-rcm11-esm29-rsr0-rcr25-esr29,exr/ReadingArea_rsl0-rcl2-esl310-rsm0-rcm11-esm29-rsr0-rcr25-esr29.exr,ReadingArea_rsl0-rcl2-esl310-rsm0-rcm11-esm29-rsr0-rcr25-esr29.npz,,,,,0,165,165,231,,left,green,2.7,545.28449010849,545.7268850803375,,3,5,5,lightness,readingArea,realistic,75,2023-03-15_12h56.57.919,tripletExp_regina_11082022,2022.2.4,119.95584206100888,
13,10,9,0,0.111111111111111,3.10526315789474,0,0.694444444444444,1.0,0,0.444444444444444,1.0,ReadingArea_rsl0-rcl11-esl310-rsm0-rcm69-esm100-rsr0-rcr44-esr100,exr/ReadingArea_rsl0-rcl11-esl310-rsm0-rcm69-esm100-rsr0-rcr44-esr100.exr,ReadingArea_rsl0-rcl11-esl310-rsm0-rcm69-esm100-rsr0-rcr44-esr100.npz,,,,,0,166,166,330,,left,green,1.18,547.4273290634155,547.8660099506378,,3,5,5,lightness,readingArea,realistic,75,2023-03-15_12h56.57.919,tripletExp_regina_11082022,2022.2.4,119.95584206100888,
13,6,4,0,0.111111111111111,3.10526315789474,0,0.027777777777778,1.0,0,0.694444444444444,0.298245614035088,ReadingArea_rsl0-rcl11-esl310-rsm0-rcm2-esm100-rsr0-rcr69-esr29,exr/ReadingArea_rsl0-rcl11-esl310-rsm0-rcm2-esm100-rsr0-rcr69-esr29.exr,ReadingArea_rsl0-rcl11-esl310-rsm0-rcm2-esm100-rsr0-rcr69-esr29.npz,,,,,0,167,167,328,,left,green,1.16,549.5545780658722,,,3,5,5,lightness,readingArea,realistic,75,2023-03-15_12h56.57.919,tripletExp_regina_11082022,2022.2.4,119.95584206100888,
4,7,1,0,0.694444444444444,0.298245614035088,0,0.111111111111111,1.0,0,0.111111111111111,0.298245614035088,ReadingArea_rsl0-rcl69-esl29-rsm0-rcm11-esm100-rsr0-rcr11-esr29,exr/ReadingArea_rsl0-rcl69-esl29-rsm0-rcm11-esm100-rsr0-rcr11-esr29.exr,ReadingArea_rsl0-rcl69-esl29-rsm0-rcm11-esm100-rsr0-rcr11-esr29.npz,,,,,0,168,168,33,,right,red,4.42,555.1993589401245,555.6349101066589,,3,5,5,lightness,readingArea,realistic,75,2023-03-15_12h56.57.919,tripletExp_regina_11082022,2022.2.4,119.95584206100888,
4,3,10,0,0.694444444444444,0.298245614035088,0,0.444444444444444,0.298245614035088,0,0.694444444444444,1.0,ReadingArea_rsl0-rcl69-esl29-rsm0-rcm44-esm29-rsr0-rcr69-esr100,exr/ReadingArea_rsl0-rcl69-esl29-rsm0-rcm44-esm29-rsr0-rcr69-esr100.exr,ReadingArea_rsl0-rcl69-esl29-rsm0-rcm44-esm29-rsr0-rcr69-esr100.npz,,,,,0,169,169,371,,left,green,1.22,557.3296940326691,557.7480070590973,,3,5,5,lightness,readingArea,realistic,75,2023-03-15_12h56.57.919,tripletExp_regina_11082022,2022.2.4,119.95584206100888,
7,8,11,0,0.111111111111111,1.0,0,0.25,1.0,0,1.0,1.0,ReadingArea_rsl0-rcl11-esl100-rsm0-rcm25-esm100-rsr0-rcr100-esr100,exr/ReadingArea_rsl0-rcl11-esl100-rsm0-rcm25-esm100-rsr0-rcr100-esr100.exr,ReadingArea_rsl0-rcl11-esl100-rsm0-rcm25-esm100-rsr0-rcr100-esr100.npz,,,,,0,170,170,363,,left,green,1.01,559.4423160552979,559.871022939682,,3,5,5,lightness,readingArea,realistic,75,2023-03-15_12h56.57.919,tripletExp_regina_11082022,2022.2.4,119.95584206100888,
2,3,6,0,0.25,0.298245614035088,0,0.444444444444444,0.298245614035088,0,0.027777777777778,1.0,ReadingArea_rsl0-rcl25-esl29-rsm0-rcm44-esm29-rsr0-rcr2-esr100,exr/ReadingArea_rsl0-rcl25-esl29-rsm0-rcm44-esm29-rsr0-rcr2-esr100.exr,ReadingArea_rsl0-rcl25-esl29-rsm0-rcm44-esm29-rsr0-rcr2-esr100.npz,,,,,0,171,171,357,,left,green,1.26,561.5690340995789,562.0021951198578,,3,5,5,lightness,readingArea,realistic,75,2023-03-15_12h56.57.919,tripletExp_regina_11082022,2022.2.4,119.95584206100888,
1,11,12,0,0.111111111111111,0.298245614035088,0,1.0,1.0,0,0.027777777777778,3.10526315789474,ReadingArea_rsl0-rcl11-esl29-rsm0-rcm100-esm100-rsr0-rcr2-esr310,exr/ReadingArea_rsl0-rcl11-esl29-rsm0-rcm100-esm100-rsr0-rcr2-esr310.exr,ReadingArea_rsl0-rcl11-esl29-rsm0-rcm100-esm100-rsr0-rcr2-esr310.npz,,,,,0,172,172,288,,left,green,2.65,565.4601020812988,565.9014029502869,,3,5,5,lightness,readingArea,realistic,75,2023-03-15_12h56.57.919,tripletExp_regina_11082022,2022.2.4,119.95584206100888,
13,6,10,0,0.111111111111111,3.10526315789474,0,0.027777777777778,1.0,0,0.694444444444444,1.0,ReadingArea_rsl0-rcl11-esl310-rsm0-rcm2-esm100-rsr0-rcr69-esr100,exr/ReadingArea_rsl0-rcl11-esl310-rsm0-rcm2-esm100-rsr0-rcr69-esr100.exr,ReadingArea_rsl0-rcl11-esl310-rsm0-rcm2-esm100-rsr0-rcr69-esr100.npz,,,,,0,173,173,593,,left,green,2.7,569.382600069046,,,3,5,5,lightness,readingArea,realistic,75,2023-03-15_12h56.57.919,tripletExp_regina_11082022,2022.2.4,119.95584206100888,
13,1,7,0,0.111111111111111,3.10526315789474,0,0.111111111111111,0.298245614035088,0,0.111111111111111,1.0,ReadingArea_rsl0-rcl11-esl310-rsm0-rcm11-esm29-rsr0-rcr11-esr100,exr/ReadingArea_rsl0-rcl11-esl310-rsm0-rcm11-esm29-rsr0-rcr11-esr100.exr,ReadingArea_rsl0-rcl11-esl310-rsm0-rcm11-esm29-rsr0-rcr11-esr100.npz,,,,,0,174,174,206,,right,red,2.55,573.2827200889587,573.935075044632,,3,5,5,lightness,readingArea,realistic,75,2023-03-15_12h56.57.919,tripletExp_regina_11082022,2022.2.4,119.95584206100888,
10,13,1,0,0.694444444444444,1.0,0,0.111111111111111,3.10526315789474,0,0.111111111111111,0.298245614035088,ReadingArea_rsl0-rcl69-esl100-rsm0-rcm11-esm310-rsr0-rcr11-esr29,exr/ReadingArea_rsl0-rcl69-esl100-rsm0-rcm11-esm310-rsr0-rcr11-esr29.exr,ReadingArea_rsl0-rcl69-esl100-rsm0-rcm11-esm310-rsr0-rcr11-esr29.npz,,,,,0,175,175,149,,left,green,1.28,575.6333470344543,576.1003589630127,,3,5,5,lightness,readingArea,realistic,75,2023-03-15_12h56.57.919,tripletExp_regina_11082022,2022.2.4,119.95584206100888,
12,5,2,0,0.027777777777778,3.10526315789474,0,1.0,0.298245614035088,0,0.25,0.298245614035088,ReadingArea_rsl0-rcl2-esl310-rsm0-rcm100-esm29-rsr0-rcr25-esr29,exr/ReadingArea_rsl0-rcl2-esl310-rsm0-rcm100-esm29-rsr0-rcr25-esr29.exr,ReadingArea_rsl0-rcl2-esl310-rsm0-rcm100-esm29-rsr0-rcr25-esr29.npz,,,,,0,176,176,415,,left,green,3.13,579.5602009296417,580.0234389305115,,3,5,5,lightness,readingArea,realistic,75,2023-03-15_12h56.57.919,tripletExp_regina_11082022,2022.2.4,119.95584206100888,
10,12,11,0,0.694444444444444,1.0,0,0.027777777777778,3.10526315789474,0,1.0,1.0,ReadingArea_rsl0-rcl69-esl100-rsm0-rcm2-esm310-rsr0-rcr100-esr100,exr/ReadingArea_rsl0-rcl69-esl100-rsm0-rcm2-esm310-rsr0-rcr100-esr100.exr,ReadingArea_rsl0-rcl69-esl100-rsm0-rcm2-esm310-rsr0-rcr100-esr100.npz,,,,,0,177,177,317,,left,green,2.76,583.5038750171661,583.9374389648438,,3,5,5,lightness,readingArea,realistic,75,2023-03-15_12h56.57.919,tripletExp_regina_11082022,2022.2.4,119.95584206100888,
6,13,5,0,0.027777777777778,1.0,0,0.111111111111111,3.10526315789474,0,1.0,0.298245614035088,ReadingArea_rsl0-rcl2-esl100-rsm0-rcm11-esm310-rsr0-rcr100-esr29,exr/ReadingArea_rsl0-rcl2-esl100-rsm0-rcm11-esm310-rsr0-rcr100-esr29.exr,ReadingArea_rsl0-rcl2-esl100-rsm0-rcm11-esm310-rsr0-rcr100-esr29.npz,,,,,0,178,178,53,,left,green,2.82,587.4208469390869,587.8478651046753,,3,5,5,lightness,readingArea,realistic,75,2023-03-15_12h56.57.919,tripletExp_regina_11082022,2022.2.4,119.95584206100888,
8,10,7,0,0.25,1.0,0,0.694444444444444,1.0,0,0.111111111111111,1.0,ReadingArea_rsl0-rcl25-esl100-rsm0-rcm69-esm100-rsr0-rcr11-esr100,exr/ReadingArea_rsl0-rcl25-esl100-rsm0-rcm69-esm100-rsr0-rcr11-esr100.exr,ReadingArea_rsl0-rcl25-esl100-rsm0-rcm69-esm100-rsr0-rcr11-esr100.npz,,,,,0,179,179,424,,left,green,2.74,591.3039600849152,591.7530980110168,,3,5,5,lightness,readingArea,realistic,75,2023-03-15_12h56.57.919,tripletExp_regina_11082022,2022.2.4,119.95584206100888,
14,13,3,0,0.25,3.10526315789474,0,0.111111111111111,3.10526315789474,0,0.444444444444444,0.298245614035088,ReadingArea_rsl0-rcl25-esl310-rsm0-rcm11-esm310-rsr0-rcr44-esr29,exr/ReadingArea_rsl0-rcl25-esl310-rsm0-rcm11-esm310-rsr0-rcr44-esr29.exr,ReadingArea_rsl0-rcl25-esl310-rsm0-rcm11-esm310-rsr0-rcr44-esr29.npz,,,,,0,180,180,256,,right,red,1.55,593.4729909896851,593.905916929245,,3,5,5,lightness,readingArea,realistic,75,2023-03-15_12h56.57.919,tripletExp_regina_11082022,2022.2.4,119.95584206100888,
0,4,9,0,0.027777777777778,0.298245614035088,0,0.694444444444444,0.298245614035088,0,0.444444444444444,1.0,ReadingArea_rsl0-rcl2-esl29-rsm0-rcm69-esm29-rsr0-rcr44-esr100,exr/ReadingArea_rsl0-rcl2-esl29-rsm0-rcm69-esm29-rsr0-rcr44-esr100.exr,ReadingArea_rsl0-rcl2-esl29-rsm0-rcm69-esm29-rsr0-rcr44-esr100.npz,,,,,0,181,181,21,,right,red,0.92,595.6200020313263,,,3,5,5,lightness,readingArea,realistic,75,2023-03-15_12h56.57.919,tripletExp_regina_11082022,2022.2.4,119.95584206100888,
2,0,13,0,0.25,0.298245614035088,0,0.027777777777778,0.298245614035088,0,0.111111111111111,3.10526315789474,ReadingArea_rsl0-rcl25-esl29-rsm0-rcm2-esm29-rsr0-rcr11-esr310,exr/ReadingArea_rsl0-rcl25-esl29-rsm0-rcm2-esm29-rsr0-rcr11-esr310.exr,ReadingArea_rsl0-rcl25-esl29-rsm0-rcm2-esm29-rsr0-rcr11-esr310.npz,,,,,0,182,182,50,,left,green,1.38,597.7688529491425,598.2020840644836,,3,5,5,lightness,readingArea,realistic,75,2023-03-15_12h56.57.919,tripletExp_regina_11082022,2022.2.4,119.95584206100888,
8,13,9,0,0.25,1.0,0,0.111111111111111,3.10526315789474,0,0.444444444444444,1.0,ReadingArea_rsl0-rcl25-esl100-rsm0-rcm11-esm310-rsr0-rcr44-esr100,exr/ReadingArea_rsl0-rcl25-esl100-rsm0-rcm11-esm310-rsr0-rcr44-esr100.exr,ReadingArea_rsl0-rcl25-esl100-rsm0-rcm11-esm310-rsr0-rcr44-esr100.npz,,,,,0,183,183,487,,left,green,1.33,599.9188730716705,600.387344121933,,3,5,5,lightness,readingArea,realistic,75,2023-03-15_12h56.57.919,tripletExp_regina_11082022,2022.2.4,119.95584206100888,
9,0,14,0,0.444444444444444,1.0,0,0.027777777777778,0.298245614035088,0,0.25,3.10526315789474,ReadingArea_rsl0-rcl44-esl100-rsm0-rcm2-esm29-rsr0-rcr25-esr310,exr/ReadingArea_rsl0-rcl44-esl100-rsm0-rcm2-esm29-rsr0-rcr25-esr310.exr,ReadingArea_rsl0-rcl44-esl100-rsm0-rcm2-esm29-rsr0-rcr25-esr310.npz,,,,,0,184,184,550,,left,green,2.95,603.8653991222382,604.3032009601593,,3,5,5,lightness,readingArea,realistic,75,2023-03-15_12h56.57.919,tripletExp_regina_11082022,2022.2.4,119.95584206100888,
14,5,11,0,0.25,3.10526315789474,0,1.0,0.298245614035088,0,1.0,1.0,ReadingArea_rsl0-rcl25-esl310-rsm0-rcm100-esm29-rsr0-rcr100-esr100,exr/ReadingArea_rsl0-rcl25-esl310-rsm0-rcm100-esm29-rsr0-rcr100-esr100.exr,ReadingArea_rsl0-rcl25-esl310-rsm0-rcm100-esm29-rsr0-rcr100-esr100.npz,,,,,0,185,185,161,,left,green,2.71,607.7953050136566,608.2317271232605,,3,5,5,lightness,readingArea,realistic,75,2023-03-15_12h56.57.919,tripletExp_regina_11082022,2022.2.4,119.95584206100888,
4,2,0,0,0.694444444444444,0.298245614035088,0,0.25,0.298245614035088,0,0.027777777777778,0.298245614035088,ReadingArea_rsl0-rcl69-esl29-rsm0-rcm25-esm29-rsr0-rcr2-esr29,exr/ReadingArea_rsl0-rcl69-esl29-rsm0-rcm25-esm29-rsr0-rcr2-esr29.exr,ReadingArea_rsl0-rcl69-esl29-rsm0-rcm25-esm29-rsr0-rcr2-esr29.npz,,,,,0,186,186,71,,left,green,0.86,609.9315009117126,610.4029159545898,,3,5,5,lightness,readingArea,realistic,75,2023-03-15_12h56.57.919,tripletExp_regina_11082022,2022.2.4,119.95584206100888,
0,10,14,0,0.027777777777778,0.298245614035088,0,0.694444444444444,1.0,0,0.25,3.10526315789474,ReadingArea_rsl0-rcl2-esl29-rsm0-rcm69-esm100-rsr0-rcr25-esr310,exr/ReadingArea_rsl0-rcl2-esl29-rsm0-rcm69-esm100-rsr0-rcr25-esr310.exr,ReadingArea_rsl0-rcl2-esl29-rsm0-rcm69-esm100-rsr0-rcr25-esr310.npz,,,,,0,187,187,31,,right,red,0.94,612.096743106842,612.5190479755402,,3,5,5,lightness,readingArea,realistic,75,2023-03-15_12h56.57.919,tripletExp_regina_11082022,2022.2.4,119.95584206100888,
7,12,2,0,0.111111111111111,1.0,0,0.027777777777778,3.10526315789474,0,0.25,0.298245614035088,ReadingArea_rsl0-rcl11-esl100-rsm0-rcm2-esm310-rsr0-rcr25-esr29,exr/ReadingArea_rsl0-rcl11-esl100-rsm0-rcm2-esm310-rsr0-rcr25-esr29.exr,ReadingArea_rsl0-rcl11-esl100-rsm0-rcm2-esm310-rsr0-rcr25-esr29.npz,,,,,0,188,188,72,,left,green,3.01,616.0067970752716,,,3,5,5,lightness,readingArea,realistic,75,2023-03-15_12h56.57.919,tripletExp_regina_11082022,2022.2.4,119.95584206100888,
5,9,0,0,1.0,0.298245614035088,0,0.444444444444444,1.0,0,0.027777777777778,0.298245614035088,ReadingArea_rsl0-rcl100-esl29-rsm0-rcm44-esm100-rsr0-rcr2-esr29,exr/ReadingArea_rsl0-rcl100-esl29-rsm0-rcm44-esm100-rsr0-rcr2-esr29.exr,ReadingArea_rsl0-rcl100-esl29-rsm0-rcm44-esm100-rsr0-rcr2-esr29.npz,,,,,0,189,189,575,,left,green,1.19,618.1725919246674,618.6070370674133,,3,5,5,lightness,readingArea,realistic,75,2023-03-15_12h56.57.919,tripletExp_regina_11082022,2022.2.4,119.95584206100888,
11,0,10,0,1.0,1.0,0,0.027777777777778,0.298245614035088,0,0.694444444444444,1.0,ReadingArea_rsl0-rcl100-esl100-rsm0-rcm2-esm29-rsr0-rcr69-esr100,exr/ReadingArea_rsl0-rcl100-esl100-rsm0-rcm2-esm29-rsr0-rcr69-esr100.exr,ReadingArea_rsl0-rcl100-esl100-rsm0-rcm2-esm29-rsr0-rcr69-esr100.npz,,,,,0,190,190,259,,left,green,3.02,622.0621049404144,622.510724067688,,3,5,5,lightness,readingArea,realistic,75,2023-03-15_12h56.57.919,tripletExp_regina_11082022,2022.2.4,119.95584206100888,
8,6,13,0,0.25,1.0,0,0.027777777777778,1.0,0,0.111111111111111,3.10526315789474,ReadingArea_rsl0-rcl25-esl100-rsm0-rcm2-esm100-rsr0-rcr11-esr310,exr/ReadingArea_rsl0-rcl25-esl100-rsm0-rcm2-esm100-rsr0-rcr11-esr310.exr,ReadingArea_rsl0-rcl25-esl100-rsm0-rcm2-esm100-rsr0-rcr11-esr310.npz,,,,,0,191,191,440,,left,green,2.79,625.9778339862823,626.4336159229279,,3,5,5,lightness,readingArea,realistic,75,2023-03-15_12h56.57.919,tripletExp_regina_11082022,2022.2.4,119.95584206100888,
6,5,0,0,0.027777777777778,1.0,0,1.0,0.298245614035088,0,0.027777777777778,0.298245614035088,ReadingArea_rsl0-rcl2-esl100-rsm0-rcm100-esm29-rsr0-rcr2-esr29,exr/ReadingArea_rsl0-rcl2-esl100-rsm0-rcm100-esm29-rsr0-rcr2-esr29.exr,ReadingArea_rsl0-rcl2-esl100-rsm0-rcm100-esm29-rsr0-rcr2-esr29.npz,,,,,0,192,192,558,,left,green,1.41,628.1324360370636,628.5734279155731,,3,5,5,lightness,readingArea,realistic,75,2023-03-15_12h56.57.919,tripletExp_regina_11082022,2022.2.4,119.95584206100888,
9,6,11,0,0.444444444444444,1.0,0,0.027777777777778,1.0,0,1.0,1.0,ReadingArea_rsl0-rcl44-esl100-rsm0-rcm2-esm100-rsr0-rcr100-esr100,exr/ReadingArea_rsl0-rcl44-esl100-rsm0-rcm2-esm100-rsr0-rcr100-esr100.exr,ReadingArea_rsl0-rcl44-esl100-rsm0-rcm2-esm100-rsr0-rcr100-esr100.npz,,,,,0,193,193,572,,left,green,2.76,632.0279829502106,632.4709529876709,,3,5,5,lightness,readingArea,realistic,75,2023-03-15_12h56.57.919,tripletExp_regina_11082022,2022.2.4,119.95584206100888,
8,0,4,0,0.25,1.0,0,0.027777777777778,0.298245614035088,0,0.694444444444444,0.298245614035088,ReadingArea_rsl0-rcl25-esl100-rsm0-rcm2-esm29-rsr0-rcr69-esr29,exr/ReadingArea_rsl0-rcl25-esl100-rsm0-rcm2-esm29-rsr0-rcr69-esr29.exr,ReadingArea_rsl0-rcl25-esl100-rsm0-rcm2-esm29-rsr0-rcr69-esr29.npz,,,,,0,194,194,346,,right,red,2.48,635.9254879951477,636.3740849494934,,3,5,5,lightness,readingArea,realistic,75,2023-03-15_12h56.57.919,tripletExp_regina_11082022,2022.2.4,119.95584206100888,
4,12,2,0,0.694444444444444,0.298245614035088,0,0.027777777777778,3.10526315789474,0,0.25,0.298245614035088,ReadingArea_rsl0-rcl69-esl29-rsm0-rcm2-esm310-rsr0-rcr25-esr29,exr/ReadingArea_rsl0-rcl69-esl29-rsm0-rcm2-esm310-rsr0-rcr25-esr29.exr,ReadingArea_rsl0-rcl69-esl29-rsm0-rcm2-esm310-rsr0-rcr25-esr29.npz,,,,,0,195,195,543,,right,red,1.09,638.0951581001282,638.4861629009247,,3,5,5,lightness,readingArea,realistic,75,2023-03-15_12h56.57.919,tripletExp_regina_11082022,2022.2.4,119.95584206100888,
11,2,8,0,1.0,1.0,0,0.25,0.298245614035088,0,0.25,1.0,ReadingArea_rsl0-rcl100-esl100-rsm0-rcm25-esm29-rsr0-rcr25-esr100,exr/ReadingArea_rsl0-rcl100-esl100-rsm0-rcm25-esm29-rsr0-rcr25-esr100.exr,ReadingArea_rsl0-rcl100-esl100-rsm0-rcm25-esm29-rsr0-rcr25-esr100.npz,,,,,0,196,196,214,,right,red,1.33,640.2011139392853,640.6415560245514,,3,5,5,lightness,readingArea,realistic,75,2023-03-15_12h56.57.919,tripletExp_regina_11082022,2022.2.4,119.95584206100888,
11,7,8,0,1.0,1.0,0,0.111111111111111,1.0,0,0.25,1.0,ReadingArea_rsl0-rcl100-esl100-rsm0-rcm11-esm100-rsr0-rcr25-esr100,exr/ReadingArea_rsl0-rcl100-esl100-rsm0-rcm11-esm100-rsr0-rcr25-esr100.exr,ReadingArea_rsl0-rcl100-esl100-rsm0-rcm11-esm100-rsr0-rcr25-esr100.npz,,,,,0,197,197,37,,right,red,1.22,642.3343870639801,642.7653560638428,,3,5,5,lightness,readingArea,realistic,75,2023-03-15_12h56.57.919,tripletExp_regina_11082022,2022.2.4,119.95584206100888,
0,8,6,0,0.027777777777778,0.298245614035088,0,0.25,1.0,0,0.027777777777778,1.0,ReadingArea_rsl0-rcl2-esl29-rsm0-rcm25-esm100-rsr0-rcr2-esr100,exr/ReadingArea_rsl0-rcl2-esl29-rsm0-rcm25-esm100-rsr0-rcr2-esr100.exr,ReadingArea_rsl0-rcl2-esl29-rsm0-rcm25-esm100-rsr0-rcr2-esr100.npz,,,,,0,198,198,92,,right,red,1.23,644.4862999916077,,,3,5,5,lightness,readingArea,realistic,75,2023-03-15_12h56.57.919,tripletExp_regina_11082022,2022.2.4,119.95584206100888,
8,9,1,0,0.25,1.0,0,0.444444444444444,1.0,0,0.111111111111111,0.298245614035088,ReadingArea_rsl0-rcl25-esl100-rsm0-rcm44-esm100-rsr0-rcr11-esr29,exr/ReadingArea_rsl0-rcl25-esl100-rsm0-rcm44-esm100-rsr0-rcr11-esr29.exr,ReadingArea_rsl0-rcl25-esl100-rsm0-rcm44-esm100-rsr0-rcr11-esr29.npz,,,,,0,199,199,266,,left,green,1.28,646.6512401103973,647.0865459442139,,3,5,5,lightness,readingArea,realistic,75,2023-03-15_12h56.57.919,tripletExp_regina_11082022,2022.2.4,119.95584206100888,
6,10,9,0,0.027777777777778,1.0,0,0.694444444444444,1.0,0,0.444444444444444,1.0,ReadingArea_rsl0-rcl2-esl100-rsm0-rcm69-esm100-rsr0-rcr44-esr100,exr/ReadingArea_rsl0-rcl2-esl100-rsm0-rcm69-esm100-rsr0-rcr44-esr100.exr,ReadingArea_rsl0-rcl2-esl100-rsm0-rcm69-esm100-rsr0-rcr44-esr100.npz,,,,,0,200,200,148,,right,red,0.84,648.7756729125977,649.2139430046082,,3,5,5,lightness,readingArea,realistic,75,2023-03-15_12h56.57.919,tripletExp_regina_11082022,2022.2.4,119.95584206100888,
12,9,11,0,0.027777777777778,3.10526315789474,0,0.444444444444444,1.0,0,1.0,1.0,ReadingArea_rsl0-rcl2-esl310-rsm0-rcm44-esm100-rsr0-rcr100-esr100,exr/ReadingArea_rsl0-rcl2-esl310-rsm0-rcm44-esm100-rsr0-rcr100-esr100.exr,ReadingArea_rsl0-rcl2-esl310-rsm0-rcm44-esm100-rsr0-rcr100-esr100.npz,,,,,0,201,201,18,,left,green,1.05,650.9164431095123,651.3605251312256,,3,5,5,lightness,readingArea,realistic,75,2023-03-15_12h56.57.919,tripletExp_regina_11082022,2022.2.4,119.95584206100888,
3,14,4,0,0.444444444444444,0.298245614035088,0,0.25,3.10526315789474,0,0.694444444444444,0.298245614035088,ReadingArea_rsl0-rcl44-esl29-rsm0-rcm25-esm310-rsr0-rcr69-esr29,exr/ReadingArea_rsl0-rcl44-esl29-rsm0-rcm25-esm310-rsr0-rcr69-esr29.exr,ReadingArea_rsl0-rcl44-esl29-rsm0-rcm25-esm310-rsr0-rcr69-esr29.npz,,,,,0,202,202,537,,right,red,1.55,653.0524399280548,653.485111951828,,3,5,5,lightness,readingArea,realistic,75,2023-03-15_12h56.57.919,tripletExp_regina_11082022,2022.2.4,119.95584206100888,
4,11,12,0,0.694444444444444,0.298245614035088,0,1.0,1.0,0,0.027777777777778,3.10526315789474,ReadingArea_rsl0-rcl69-esl29-rsm0-rcm100-esm100-rsr0-rcr2-esr310,exr/ReadingArea_rsl0-rcl69-esl29-rsm0-rcm100-esm100-rsr0-rcr2-esr310.exr,ReadingArea_rsl0-rcl69-esl29-rsm0-rcm100-esm100-rsr0-rcr2-esr310.npz,,,,,0,203,203,109,,left,green,1.03,655.1913139820099,655.6362860202789,,3,5,5,lightness,readingArea,realistic,75,2023-03-15_12h56.57.919,tripletExp_regina_11082022,2022.2.4,119.95584206100888,
