index_left,index_middle,index_right,reflectance_surround_left,reflectance_center_left,emission_spot_left,reflectance_surround_middle,reflectance_center_middle,emission_spot_middle,reflectance_surround_right,reflectance_center_right,emission_spot_right,ImageName,ImageExr,ImageNpy,trials_2.thisRepN,trials_2.thisTrialN,trials_2.thisN,trials_2.thisIndex,trials.thisRepN,trials.thisTrialN,trials.thisN,trials.thisIndex,sound_1.started,BB_Trial.resp,BB_Trial.color,BB_Trial.rt,text.started,text.stopped,sound_1.stopped,block,sound_4.started,participant,session,L/B,scene,condition,nTrialsPerBlock,date,expName,psychopyVersion,frameRate,Unnamed: 42
2,9,8,2,0.25,0.298245614035088,2,0.444444444444444,1.0,2,0.25,1.0,ReadingArea_rsl2-rcl25-esl29-rsm2-rcm44-esm100-rsr2-rcr25-esr100,exr/ReadingArea_rsl2-rcl25-esl29-rsm2-rcm44-esm100-rsr2-rcr25-esr100.exr,ReadingArea_rsl2-rcl25-esl29-rsm2-rcm44-esm100-rsr2-rcr25-esr100.npz,,,,,0,0,0,407,521.0160833835602,right,red,2.95,597.2043159008026,597.678713798523,485.8093068599701,1,,2,10,brightness,readingArea,realistic,75,2023-03-31_10h59.09.344,tripletExp_regina_11082022,2022.2.4,119.80371210346816,
8,9,6,2,0.25,1.0,2,0.444444444444444,1.0,2,0.027777777777778,1.0,ReadingArea_rsl2-rcl25-esl100-rsm2-rcm44-esm100-rsr2-rcr2-esr100,exr/ReadingArea_rsl2-rcl25-esl100-rsm2-rcm44-esm100-rsr2-rcr2-esr100.exr,ReadingArea_rsl2-rcl25-esl100-rsm2-rcm44-esm100-rsr2-rcr2-esr100.npz,,,,,0,1,1,3,,left,green,1.26,599.3816888332367,,,1,,2,10,brightness,readingArea,realistic,75,2023-03-31_10h59.09.344,tripletExp_regina_11082022,2022.2.4,119.80371210346816,
5,3,4,2,1.0,0.298245614035088,2,0.444444444444444,0.298245614035088,2,0.694444444444444,0.298245614035088,ReadingArea_rsl2-rcl100-esl29-rsm2-rcm44-esm29-rsr2-rcr69-esr29,exr/ReadingArea_rsl2-rcl100-esl29-rsm2-rcm44-esm29-rsr2-rcr69-esr29.exr,ReadingArea_rsl2-rcl100-esl29-rsm2-rcm44-esm29-rsr2-rcr69-esr29.npz,,,,,0,2,2,201,,right,red,1.48,601.615758895874,602.0781660079956,,1,,2,10,brightness,readingArea,realistic,75,2023-03-31_10h59.09.344,tripletExp_regina_11082022,2022.2.4,119.80371210346816,
7,2,6,2,0.111111111111111,1.0,2,0.25,0.298245614035088,2,0.027777777777778,1.0,ReadingArea_rsl2-rcl11-esl100-rsm2-rcm25-esm29-rsr2-rcr2-esr100,exr/ReadingArea_rsl2-rcl11-esl100-rsm2-rcm25-esm29-rsr2-rcr2-esr100.exr,ReadingArea_rsl2-rcl11-esl100-rsm2-rcm25-esm29-rsr2-rcr2-esr100.npz,,,,,0,3,3,506,,left,green,2.43,605.5507619380951,606.0181028842926,,1,,2,10,brightness,readingArea,realistic,75,2023-03-31_10h59.09.344,tripletExp_regina_11082022,2022.2.4,119.80371210346816,
5,9,12,2,1.0,0.298245614035088,2,0.444444444444444,1.0,2,0.027777777777778,3.10526315789474,ReadingArea_rsl2-rcl100-esl29-rsm2-rcm44-esm100-rsr2-rcr2-esr310,exr/ReadingArea_rsl2-rcl100-esl29-rsm2-rcm44-esm100-rsr2-rcr2-esr310.exr,ReadingArea_rsl2-rcl100-esl29-rsm2-rcm44-esm100-rsr2-rcr2-esr310.npz,,,,,0,4,4,539,,left,green,2.19,609.4951498508453,610.0683178901672,,1,,2,10,brightness,readingArea,realistic,75,2023-03-31_10h59.09.344,tripletExp_regina_11082022,2022.2.4,119.80371210346816,
0,4,12,2,0.027777777777778,0.298245614035088,2,0.694444444444444,0.298245614035088,2,0.027777777777778,3.10526315789474,ReadingArea_rsl2-rcl2-esl29-rsm2-rcm69-esm29-rsr2-rcr2-esr310,exr/ReadingArea_rsl2-rcl2-esl29-rsm2-rcm69-esm29-rsr2-rcr2-esr310.exr,ReadingArea_rsl2-rcl2-esl29-rsm2-rcm69-esm29-rsr2-rcr2-esr310.npz,,,,,0,5,5,150,,right,red,3.19,613.5081079006195,,,1,,2,10,brightness,readingArea,realistic,75,2023-03-31_10h59.09.344,tripletExp_regina_11082022,2022.2.4,119.80371210346816,
4,3,10,2,0.694444444444444,0.298245614035088,2,0.444444444444444,0.298245614035088,2,0.694444444444444,1.0,ReadingArea_rsl2-rcl69-esl29-rsm2-rcm44-esm29-rsr2-rcr69-esr100,exr/ReadingArea_rsl2-rcl69-esl29-rsm2-rcm44-esm29-rsr2-rcr69-esr100.exr,ReadingArea_rsl2-rcl69-esl29-rsm2-rcm44-esm29-rsr2-rcr69-esr100.npz,,,,,0,6,6,371,,left,green,2.64,617.4684338569641,617.9425477981567,,1,,2,10,brightness,readingArea,realistic,75,2023-03-31_10h59.09.344,tripletExp_regina_11082022,2022.2.4,119.80371210346816,
12,11,6,2,0.027777777777778,3.10526315789474,2,1.0,1.0,2,0.027777777777778,1.0,ReadingArea_rsl2-rcl2-esl310-rsm2-rcm100-esm100-rsr2-rcr2-esr100,exr/ReadingArea_rsl2-rcl2-esl310-rsm2-rcm100-esm100-rsr2-rcr2-esr100.exr,ReadingArea_rsl2-rcl2-esl310-rsm2-rcm100-esm100-rsr2-rcr2-esr100.npz,,,,,0,7,7,163,,left,green,2.73,621.4185328483582,621.8975369930267,,1,,2,10,brightness,readingArea,realistic,75,2023-03-31_10h59.09.344,tripletExp_regina_11082022,2022.2.4,119.80371210346816,
5,14,4,2,1.0,0.298245614035088,2,0.25,3.10526315789474,2,0.694444444444444,0.298245614035088,ReadingArea_rsl2-rcl100-esl29-rsm2-rcm25-esm310-rsr2-rcr69-esr29,exr/ReadingArea_rsl2-rcl100-esl29-rsm2-rcm25-esm310-rsr2-rcr69-esr29.exr,ReadingArea_rsl2-rcl100-esl29-rsm2-rcm25-esm310-rsr2-rcr69-esr29.npz,,,,,0,8,8,69,,left,green,3.02,625.3739597797394,625.848287820816,,1,,2,10,brightness,readingArea,realistic,75,2023-03-31_10h59.09.344,tripletExp_regina_11082022,2022.2.4,119.80371210346816,
8,12,7,2,0.25,1.0,2,0.027777777777778,3.10526315789474,2,0.111111111111111,1.0,ReadingArea_rsl2-rcl25-esl100-rsm2-rcm2-esm310-rsr2-rcr11-esr100,exr/ReadingArea_rsl2-rcl25-esl100-rsm2-rcm2-esm310-rsr2-rcr11-esr100.exr,ReadingArea_rsl2-rcl25-esl100-rsm2-rcm2-esm310-rsr2-rcr11-esr100.npz,,,,,0,9,9,467,,right,red,3.18,629.2915408611298,629.8782408237457,,1,,2,10,brightness,readingArea,realistic,75,2023-03-31_10h59.09.344,tripletExp_regina_11082022,2022.2.4,119.80371210346816,
11,0,12,2,1.0,1.0,2,0.027777777777778,0.298245614035088,2,0.027777777777778,3.10526315789474,ReadingArea_rsl2-rcl100-esl100-rsm2-rcm2-esm29-rsr2-rcr2-esr310,exr/ReadingArea_rsl2-rcl100-esl100-rsm2-rcm2-esm29-rsr2-rcr2-esr310.exr,ReadingArea_rsl2-rcl100-esl100-rsm2-rcm2-esm29-rsr2-rcr2-esr310.npz,,,,,0,10,10,166,,right,red,3.24,633.3392448425293,633.8300929069519,,1,,2,10,brightness,readingArea,realistic,75,2023-03-31_10h59.09.344,tripletExp_regina_11082022,2022.2.4,119.80371210346816,
3,9,10,2,0.444444444444444,0.298245614035088,2,0.444444444444444,1.0,2,0.694444444444444,1.0,ReadingArea_rsl2-rcl44-esl29-rsm2-rcm44-esm100-rsr2-rcr69-esr100,exr/ReadingArea_rsl2-rcl44-esl29-rsm2-rcm44-esm100-rsr2-rcr69-esr100.exr,ReadingArea_rsl2-rcl44-esl29-rsm2-rcm44-esm100-rsr2-rcr69-esr100.npz,,,,,0,11,11,581,,left,green,3.06,637.3029899597168,637.7914879322052,,1,,2,10,brightness,readingArea,realistic,75,2023-03-31_10h59.09.344,tripletExp_regina_11082022,2022.2.4,119.80371210346816,
9,13,0,2,0.444444444444444,1.0,2,0.111111111111111,3.10526315789474,2,0.027777777777778,0.298245614035088,ReadingArea_rsl2-rcl44-esl100-rsm2-rcm11-esm310-rsr2-rcr2-esr29,exr/ReadingArea_rsl2-rcl44-esl100-rsm2-rcm11-esm310-rsr2-rcr2-esr29.exr,ReadingArea_rsl2-rcl44-esl100-rsm2-rcm11-esm310-rsr2-rcr2-esr29.npz,,,,,0,12,12,205,,left,green,1.35,639.4958038330078,,,1,,2,10,brightness,readingArea,realistic,75,2023-03-31_10h59.09.344,tripletExp_regina_11082022,2022.2.4,119.80371210346816,
1,2,12,2,0.111111111111111,0.298245614035088,2,0.25,0.298245614035088,2,0.027777777777778,3.10526315789474,ReadingArea_rsl2-rcl11-esl29-rsm2-rcm25-esm29-rsr2-rcr2-esr310,exr/ReadingArea_rsl2-rcl11-esl29-rsm2-rcm25-esm29-rsr2-rcr2-esr310.exr,ReadingArea_rsl2-rcl11-esl29-rsm2-rcm25-esm29-rsr2-rcr2-esr310.npz,,,,,0,13,13,229,,left,green,4.68,645.2237279415131,645.7046678066254,,1,,2,10,brightness,readingArea,realistic,75,2023-03-31_10h59.09.344,tripletExp_regina_11082022,2022.2.4,119.80371210346816,
10,11,5,2,0.694444444444444,1.0,2,1.0,1.0,2,1.0,0.298245614035088,ReadingArea_rsl2-rcl69-esl100-rsm2-rcm100-esm100-rsr2-rcr100-esr29,exr/ReadingArea_rsl2-rcl69-esl100-rsm2-rcm100-esm100-rsr2-rcr100-esr29.exr,ReadingArea_rsl2-rcl69-esl100-rsm2-rcm100-esm100-rsr2-rcr100-esr29.npz,,,,,0,14,14,514,,left,green,2.83,649.1715548038483,649.6564028263092,,1,,2,10,brightness,readingArea,realistic,75,2023-03-31_10h59.09.344,tripletExp_regina_11082022,2022.2.4,119.80371210346816,
10,13,1,2,0.694444444444444,1.0,2,0.111111111111111,3.10526315789474,2,0.111111111111111,0.298245614035088,ReadingArea_rsl2-rcl69-esl100-rsm2-rcm11-esm310-rsr2-rcr11-esr29,exr/ReadingArea_rsl2-rcl69-esl100-rsm2-rcm11-esm310-rsr2-rcr11-esr29.exr,ReadingArea_rsl2-rcl69-esl100-rsm2-rcm11-esm310-rsr2-rcr11-esr29.npz,,,,,0,15,15,149,,left,green,3.1,653.1418008804321,653.6382517814636,,1,,2,10,brightness,readingArea,realistic,75,2023-03-31_10h59.09.344,tripletExp_regina_11082022,2022.2.4,119.80371210346816,
13,10,9,2,0.111111111111111,3.10526315789474,2,0.694444444444444,1.0,2,0.444444444444444,1.0,ReadingArea_rsl2-rcl11-esl310-rsm2-rcm69-esm100-rsr2-rcr44-esr100,exr/ReadingArea_rsl2-rcl11-esl310-rsm2-rcm69-esm100-rsr2-rcr44-esr100.exr,ReadingArea_rsl2-rcl11-esl310-rsm2-rcm69-esm100-rsr2-rcr44-esr100.npz,,,,,0,16,16,330,,left,green,4.51,658.8749029636383,659.3512427806854,,1,,2,10,brightness,readingArea,realistic,75,2023-03-31_10h59.09.344,tripletExp_regina_11082022,2022.2.4,119.80371210346816,
6,0,14,2,0.027777777777778,1.0,2,0.027777777777778,0.298245614035088,2,0.25,3.10526315789474,ReadingArea_rsl2-rcl2-esl100-rsm2-rcm2-esm29-rsr2-rcr25-esr310,exr/ReadingArea_rsl2-rcl2-esl100-rsm2-rcm2-esm29-rsr2-rcr25-esr310.exr,ReadingArea_rsl2-rcl2-esl100-rsm2-rcm2-esm29-rsr2-rcr25-esr310.npz,,,,,0,17,17,169,,right,red,3.21,662.827024936676,663.4588530063629,,1,,2,10,brightness,readingArea,realistic,75,2023-03-31_10h59.09.344,tripletExp_regina_11082022,2022.2.4,119.80371210346816,
13,9,4,2,0.111111111111111,3.10526315789474,2,0.444444444444444,1.0,2,0.694444444444444,0.298245614035088,ReadingArea_rsl2-rcl11-esl310-rsm2-rcm44-esm100-rsr2-rcr69-esr29,exr/ReadingArea_rsl2-rcl11-esl310-rsm2-rcm44-esm100-rsr2-rcr69-esr29.exr,ReadingArea_rsl2-rcl11-esl310-rsm2-rcm44-esm100-rsr2-rcr69-esr29.npz,,,,,0,18,18,444,,left,green,2.32,666.9381020069122,667.4209218025208,,1,,2,10,brightness,readingArea,realistic,75,2023-03-31_10h59.09.344,tripletExp_regina_11082022,2022.2.4,119.80371210346816,
10,5,2,2,0.694444444444444,1.0,2,1.0,0.298245614035088,2,0.25,0.298245614035088,ReadingArea_rsl2-rcl69-esl100-rsm2-rcm100-esm29-rsr2-rcr25-esr29,exr/ReadingArea_rsl2-rcl69-esl100-rsm2-rcm100-esm29-rsr2-rcr25-esr29.exr,ReadingArea_rsl2-rcl69-esl100-rsm2-rcm100-esm29-rsr2-rcr25-esr29.npz,,,,,0,19,19,299,,left,green,2.78,670.8758828639984,671.3583128452301,,1,,2,10,brightness,readingArea,realistic,75,2023-03-31_10h59.09.344,tripletExp_regina_11082022,2022.2.4,119.80371210346816,
13,12,5,2,0.111111111111111,3.10526315789474,2,0.027777777777778,3.10526315789474,2,1.0,0.298245614035088,ReadingArea_rsl2-rcl11-esl310-rsm2-rcm2-esm310-rsr2-rcr100-esr29,exr/ReadingArea_rsl2-rcl11-esl310-rsm2-rcm2-esm310-rsr2-rcr100-esr29.exr,ReadingArea_rsl2-rcl11-esl310-rsm2-rcm2-esm310-rsr2-rcr100-esr29.npz,,,,,0,20,20,294,,left,green,2.74,674.8183739185333,675.3031678199768,,1,,2,10,brightness,readingArea,realistic,75,2023-03-31_10h59.09.344,tripletExp_regina_11082022,2022.2.4,119.80371210346816,
9,11,5,2,0.444444444444444,1.0,2,1.0,1.0,2,1.0,0.298245614035088,ReadingArea_rsl2-rcl44-esl100-rsm2-rcm100-esm100-rsr2-rcr100-esr29,exr/ReadingArea_rsl2-rcl44-esl100-rsm2-rcm100-esm100-rsr2-rcr100-esr29.exr,ReadingArea_rsl2-rcl44-esl100-rsm2-rcm100-esm100-rsr2-rcr100-esr29.npz,,,,,0,21,21,142,,,green,2.74,680.5431098937988,681.0507349967957,,1,680.1374684810638,2,10,brightness,readingArea,realistic,75,2023-03-31_10h59.09.344,tripletExp_regina_11082022,2022.2.4,119.80371210346816,
13,0,4,2,0.111111111111111,3.10526315789474,2,0.027777777777778,0.298245614035088,2,0.694444444444444,0.298245614035088,ReadingArea_rsl2-rcl11-esl310-rsm2-rcm2-esm29-rsr2-rcr69-esr29,exr/ReadingArea_rsl2-rcl11-esl310-rsm2-rcm2-esm29-rsr2-rcr69-esr29.exr,ReadingArea_rsl2-rcl11-esl310-rsm2-rcm2-esm29-rsr2-rcr69-esr29.npz,,,,,0,22,22,270,,right,red,2.48,684.4925789833069,684.9691507816315,,1,,2,10,brightness,readingArea,realistic,75,2023-03-31_10h59.09.344,tripletExp_regina_11082022,2022.2.4,119.80371210346816,
14,7,8,2,0.25,3.10526315789474,2,0.111111111111111,1.0,2,0.25,1.0,ReadingArea_rsl2-rcl25-esl310-rsm2-rcm11-esm100-rsr2-rcr25-esr100,exr/ReadingArea_rsl2-rcl25-esl310-rsm2-rcm11-esm100-rsr2-rcr25-esr100.exr,ReadingArea_rsl2-rcl25-esl310-rsm2-rcm11-esm100-rsr2-rcr25-esr100.npz,,,,,0,23,23,326,,right,red,4.17,690.1933360099792,690.6787059307098,,1,,2,10,brightness,readingArea,realistic,75,2023-03-31_10h59.09.344,tripletExp_regina_11082022,2022.2.4,119.80371210346816,
5,2,7,2,1.0,0.298245614035088,2,0.25,0.298245614035088,2,0.111111111111111,1.0,ReadingArea_rsl2-rcl100-esl29-rsm2-rcm25-esm29-rsr2-rcr11-esr100,exr/ReadingArea_rsl2-rcl100-esl29-rsm2-rcm25-esm29-rsr2-rcr11-esr100.exr,ReadingArea_rsl2-rcl100-esl29-rsm2-rcm25-esm29-rsr2-rcr11-esr100.npz,,,,,0,24,24,179,,left,green,4.23,695.9149198532104,696.4412260055542,,1,,2,10,brightness,readingArea,realistic,75,2023-03-31_10h59.09.344,tripletExp_regina_11082022,2022.2.4,119.80371210346816,
14,0,5,2,0.25,3.10526315789474,2,0.027777777777778,0.298245614035088,2,1.0,0.298245614035088,ReadingArea_rsl2-rcl25-esl310-rsm2-rcm2-esm29-rsr2-rcr100-esr29,exr/ReadingArea_rsl2-rcl25-esl310-rsm2-rcm2-esm29-rsr2-rcr100-esr29.exr,ReadingArea_rsl2-rcl25-esl310-rsm2-rcm2-esm29-rsr2-rcr100-esr29.npz,,,,,0,25,25,418,,right,red,3.1,699.8958208560944,700.3790609836578,,1,,2,10,brightness,readingArea,realistic,75,2023-03-31_10h59.09.344,tripletExp_regina_11082022,2022.2.4,119.80371210346816,
12,7,2,2,0.027777777777778,3.10526315789474,2,0.111111111111111,1.0,2,0.25,0.298245614035088,ReadingArea_rsl2-rcl2-esl310-rsm2-rcm11-esm100-rsr2-rcr25-esr29,exr/ReadingArea_rsl2-rcl2-esl310-rsm2-rcm11-esm100-rsr2-rcr25-esr29.exr,ReadingArea_rsl2-rcl2-esl310-rsm2-rcm11-esm100-rsr2-rcr25-esr29.npz,,,,,0,26,26,248,,right,red,4.1,705.5981509685516,706.1294000148773,,1,,2,10,brightness,readingArea,realistic,75,2023-03-31_10h59.09.344,tripletExp_regina_11082022,2022.2.4,119.80371210346816,
13,10,7,2,0.111111111111111,3.10526315789474,2,0.694444444444444,1.0,2,0.111111111111111,1.0,ReadingArea_rsl2-rcl11-esl310-rsm2-rcm69-esm100-rsr2-rcr11-esr100,exr/ReadingArea_rsl2-rcl11-esl310-rsm2-rcm69-esm100-rsr2-rcr11-esr100.exr,ReadingArea_rsl2-rcl11-esl310-rsm2-rcm69-esm100-rsr2-rcr11-esr100.npz,,,,,0,27,27,385,,left,green,4.02,711.3608407974243,711.8403618335724,,1,,2,10,brightness,readingArea,realistic,75,2023-03-31_10h59.09.344,tripletExp_regina_11082022,2022.2.4,119.80371210346816,
2,14,7,2,0.25,0.298245614035088,2,0.25,3.10526315789474,2,0.111111111111111,1.0,ReadingArea_rsl2-rcl25-esl29-rsm2-rcm25-esm310-rsr2-rcr11-esr100,exr/ReadingArea_rsl2-rcl25-esl29-rsm2-rcm25-esm310-rsr2-rcr11-esr100.exr,ReadingArea_rsl2-rcl25-esl29-rsm2-rcm25-esm310-rsr2-rcr11-esr100.npz,,,,,0,28,28,310,,right,red,3.25,715.3114738464355,715.7948088645935,,1,,2,10,brightness,readingArea,realistic,75,2023-03-31_10h59.09.344,tripletExp_regina_11082022,2022.2.4,119.80371210346816,
5,14,11,2,1.0,0.298245614035088,2,0.25,3.10526315789474,2,1.0,1.0,ReadingArea_rsl2-rcl100-esl29-rsm2-rcm25-esm310-rsr2-rcr100-esr100,exr/ReadingArea_rsl2-rcl100-esl29-rsm2-rcm25-esm310-rsr2-rcr100-esr100.exr,ReadingArea_rsl2-rcl100-esl29-rsm2-rcm25-esm310-rsr2-rcr100-esr100.npz,,,,,0,29,29,98,,right,red,1.53,717.5033898353577,717.9635238647461,,1,,2,10,brightness,readingArea,realistic,75,2023-03-31_10h59.09.344,tripletExp_regina_11082022,2022.2.4,119.80371210346816,
3,4,0,2,0.444444444444444,0.298245614035088,2,0.694444444444444,0.298245614035088,2,0.027777777777778,0.298245614035088,ReadingArea_rsl2-rcl44-esl29-rsm2-rcm69-esm29-rsr2-rcr2-esr29,exr/ReadingArea_rsl2-rcl44-esl29-rsm2-rcm69-esm29-rsr2-rcr2-esr29.exr,ReadingArea_rsl2-rcl44-esl29-rsm2-rcm69-esm29-rsr2-rcr2-esr29.npz,,,,,0,30,30,130,,left,green,2.98,721.4323999881744,721.9930608272552,,1,,2,10,brightness,readingArea,realistic,75,2023-03-31_10h59.09.344,tripletExp_regina_11082022,2022.2.4,119.80371210346816,
12,13,14,2,0.027777777777778,3.10526315789474,2,0.111111111111111,3.10526315789474,2,0.25,3.10526315789474,ReadingArea_rsl2-rcl2-esl310-rsm2-rcm11-esm310-rsr2-rcr25-esr310,exr/ReadingArea_rsl2-rcl2-esl310-rsm2-rcm11-esm310-rsr2-rcr25-esr310.exr,ReadingArea_rsl2-rcl2-esl310-rsm2-rcm11-esm310-rsr2-rcr25-esr310.npz,,,,,0,31,31,208,,right,red,4.52,727.2074749469757,727.8268578052521,,1,,2,10,brightness,readingArea,realistic,75,2023-03-31_10h59.09.344,tripletExp_regina_11082022,2022.2.4,119.80371210346816,
13,8,5,2,0.111111111111111,3.10526315789474,2,0.25,1.0,2,1.0,0.298245614035088,ReadingArea_rsl2-rcl11-esl310-rsm2-rcm25-esm100-rsr2-rcr100-esr29,exr/ReadingArea_rsl2-rcl11-esl310-rsm2-rcm25-esm100-rsr2-rcr100-esr29.exr,ReadingArea_rsl2-rcl11-esl310-rsm2-rcm25-esm100-rsr2-rcr100-esr29.npz,,,,,0,32,32,209,,left,green,2.35,731.2862069606781,731.7732708454132,,1,,2,10,brightness,readingArea,realistic,75,2023-03-31_10h59.09.344,tripletExp_regina_11082022,2022.2.4,119.80371210346816,
9,12,11,2,0.444444444444444,1.0,2,0.027777777777778,3.10526315789474,2,1.0,1.0,ReadingArea_rsl2-rcl44-esl100-rsm2-rcm2-esm310-rsr2-rcr100-esr100,exr/ReadingArea_rsl2-rcl44-esl100-rsm2-rcm2-esm310-rsr2-rcr100-esr100.exr,ReadingArea_rsl2-rcl44-esl100-rsm2-rcm2-esm310-rsr2-rcr100-esr100.npz,,,,,0,33,33,144,,right,red,2.83,735.2530338764191,735.734573841095,,1,,2,10,brightness,readingArea,realistic,75,2023-03-31_10h59.09.344,tripletExp_regina_11082022,2022.2.4,119.80371210346816,
4,8,14,2,0.694444444444444,0.298245614035088,2,0.25,1.0,2,0.25,3.10526315789474,ReadingArea_rsl2-rcl69-esl29-rsm2-rcm25-esm100-rsr2-rcr25-esr310,exr/ReadingArea_rsl2-rcl69-esl29-rsm2-rcm25-esm100-rsr2-rcr25-esr310.exr,ReadingArea_rsl2-rcl69-esl29-rsm2-rcm25-esm100-rsr2-rcr25-esr310.npz,,,,,0,34,34,234,,left,green,2.55,739.1976089477539,739.7063939571381,,1,,2,10,brightness,readingArea,realistic,75,2023-03-31_10h59.09.344,tripletExp_regina_11082022,2022.2.4,119.80371210346816,
6,4,13,2,0.027777777777778,1.0,2,0.694444444444444,0.298245614035088,2,0.111111111111111,3.10526315789474,ReadingArea_rsl2-rcl2-esl100-rsm2-rcm69-esm29-rsr2-rcr11-esr310,exr/ReadingArea_rsl2-rcl2-esl100-rsm2-rcm69-esm29-rsr2-rcr11-esr310.exr,ReadingArea_rsl2-rcl2-esl100-rsm2-rcm69-esm29-rsr2-rcr11-esr310.npz,,,,,0,35,35,202,,left,green,4.74,744.9417579174042,745.5292978286743,,1,,2,10,brightness,readingArea,realistic,75,2023-03-31_10h59.09.344,tripletExp_regina_11082022,2022.2.4,119.80371210346816,
0,5,1,2,0.027777777777778,0.298245614035088,2,1.0,0.298245614035088,2,0.111111111111111,0.298245614035088,ReadingArea_rsl2-rcl2-esl29-rsm2-rcm100-esm29-rsr2-rcr11-esr29,exr/ReadingArea_rsl2-rcl2-esl29-rsm2-rcm100-esm29-rsr2-rcr11-esr29.exr,ReadingArea_rsl2-rcl2-esl29-rsm2-rcm100-esm29-rsr2-rcr11-esr29.npz,,,,,0,36,36,367,,right,red,3.32,749.0114328861237,749.4853827953339,,1,,2,10,brightness,readingArea,realistic,75,2023-03-31_10h59.09.344,tripletExp_regina_11082022,2022.2.4,119.80371210346816,
3,7,8,2,0.444444444444444,0.298245614035088,2,0.111111111111111,1.0,2,0.25,1.0,ReadingArea_rsl2-rcl44-esl29-rsm2-rcm11-esm100-rsr2-rcr25-esr100,exr/ReadingArea_rsl2-rcl44-esl29-rsm2-rcm11-esm100-rsr2-rcr25-esr100.exr,ReadingArea_rsl2-rcl44-esl29-rsm2-rcm11-esm100-rsr2-rcr25-esr100.npz,,,,,0,37,37,246,,right,red,2.25,752.9763078689575,753.4465417861938,,1,,2,10,brightness,readingArea,realistic,75,2023-03-31_10h59.09.344,tripletExp_regina_11082022,2022.2.4,119.80371210346816,
12,11,13,2,0.027777777777778,3.10526315789474,2,1.0,1.0,2,0.111111111111111,3.10526315789474,ReadingArea_rsl2-rcl2-esl310-rsm2-rcm100-esm100-rsr2-rcr11-esr310,exr/ReadingArea_rsl2-rcl2-esl310-rsm2-rcm100-esm100-rsr2-rcr11-esr310.exr,ReadingArea_rsl2-rcl2-esl310-rsm2-rcm100-esm100-rsr2-rcr11-esr310.npz,,,,,0,38,38,151,,right,red,1.77,755.1344227790833,755.6116049289703,,1,,2,10,brightness,readingArea,realistic,75,2023-03-31_10h59.09.344,tripletExp_regina_11082022,2022.2.4,119.80371210346816,
4,6,3,2,0.694444444444444,0.298245614035088,2,0.027777777777778,1.0,2,0.444444444444444,0.298245614035088,ReadingArea_rsl2-rcl69-esl29-rsm2-rcm2-esm100-rsr2-rcr44-esr29,exr/ReadingArea_rsl2-rcl69-esl29-rsm2-rcm2-esm100-rsr2-rcr44-esr29.exr,ReadingArea_rsl2-rcl69-esl29-rsm2-rcm2-esm100-rsr2-rcr44-esr29.npz,,,,,0,39,39,344,,left,green,4.49,760.871649980545,761.3344659805298,,1,,2,10,brightness,readingArea,realistic,75,2023-03-31_10h59.09.344,tripletExp_regina_11082022,2022.2.4,119.80371210346816,
3,11,2,2,0.444444444444444,0.298245614035088,2,1.0,1.0,2,0.25,0.298245614035088,ReadingArea_rsl2-rcl44-esl29-rsm2-rcm100-esm100-rsr2-rcr25-esr29,exr/ReadingArea_rsl2-rcl44-esl29-rsm2-rcm100-esm100-rsr2-rcr25-esr29.exr,ReadingArea_rsl2-rcl44-esl29-rsm2-rcm100-esm100-rsr2-rcr25-esr29.npz,,,,,0,40,40,220,,left,green,3.08,764.7870619297028,765.304928779602,,1,,2,10,brightness,readingArea,realistic,75,2023-03-31_10h59.09.344,tripletExp_regina_11082022,2022.2.4,119.80371210346816,
11,7,14,2,1.0,1.0,2,0.111111111111111,1.0,2,0.25,3.10526315789474,ReadingArea_rsl2-rcl100-esl100-rsm2-rcm11-esm100-rsr2-rcr25-esr310,exr/ReadingArea_rsl2-rcl100-esl100-rsm2-rcm11-esm100-rsr2-rcr25-esr310.exr,ReadingArea_rsl2-rcl100-esl100-rsm2-rcm11-esm100-rsr2-rcr25-esr310.npz,,,,,0,41,41,119,,right,red,2.29,768.7458908557892,769.2248449325562,,1,,2,10,brightness,readingArea,realistic,75,2023-03-31_10h59.09.344,tripletExp_regina_11082022,2022.2.4,119.80371210346816,
13,6,2,2,0.111111111111111,3.10526315789474,2,0.027777777777778,1.0,2,0.25,0.298245614035088,ReadingArea_rsl2-rcl11-esl310-rsm2-rcm2-esm100-rsr2-rcr25-esr29,exr/ReadingArea_rsl2-rcl11-esl310-rsm2-rcm2-esm100-rsr2-rcr25-esr29.exr,ReadingArea_rsl2-rcl11-esl310-rsm2-rcm2-esm100-rsr2-rcr25-esr29.npz,,,,,0,42,42,115,,left,green,2.36,772.6998369693756,,,1,,2,10,brightness,readingArea,realistic,75,2023-03-31_10h59.09.344,tripletExp_regina_11082022,2022.2.4,119.80371210346816,
11,10,0,2,1.0,1.0,2,0.694444444444444,1.0,2,0.027777777777778,0.298245614035088,ReadingArea_rsl2-rcl100-esl100-rsm2-rcm69-esm100-rsr2-rcr2-esr29,exr/ReadingArea_rsl2-rcl100-esl100-rsm2-rcm69-esm100-rsr2-rcr2-esr29.exr,ReadingArea_rsl2-rcl100-esl100-rsm2-rcm69-esm100-rsr2-rcr2-esr29.npz,,,,,0,43,43,549,,left,green,2.24,776.6792068481445,777.1697759628296,,1,,2,10,brightness,readingArea,realistic,75,2023-03-31_10h59.09.344,tripletExp_regina_11082022,2022.2.4,119.80371210346816,
7,13,5,2,0.111111111111111,1.0,2,0.111111111111111,3.10526315789474,2,1.0,0.298245614035088,ReadingArea_rsl2-rcl11-esl100-rsm2-rcm11-esm310-rsr2-rcr100-esr29,exr/ReadingArea_rsl2-rcl11-esl100-rsm2-rcm11-esm310-rsr2-rcr100-esr29.exr,ReadingArea_rsl2-rcl11-esl100-rsm2-rcm11-esm310-rsr2-rcr100-esr29.npz,,,,,0,44,44,332,,left,green,2.8,780.6423499584198,,,1,,2,10,brightness,readingArea,realistic,75,2023-03-31_10h59.09.344,tripletExp_regina_11082022,2022.2.4,119.80371210346816,
6,2,12,2,0.027777777777778,1.0,2,0.25,0.298245614035088,2,0.027777777777778,3.10526315789474,ReadingArea_rsl2-rcl2-esl100-rsm2-rcm25-esm29-rsr2-rcr2-esr310,exr/ReadingArea_rsl2-rcl2-esl100-rsm2-rcm25-esm29-rsr2-rcr2-esr310.exr,ReadingArea_rsl2-rcl2-esl100-rsm2-rcm25-esm29-rsr2-rcr2-esr310.npz,,,,,0,45,45,480,,right,red,4.55,786.3673210144043,786.8476588726044,,1,,2,10,brightness,readingArea,realistic,75,2023-03-31_10h59.09.344,tripletExp_regina_11082022,2022.2.4,119.80371210346816,
10,5,13,2,0.694444444444444,1.0,2,1.0,0.298245614035088,2,0.111111111111111,3.10526315789474,ReadingArea_rsl2-rcl69-esl100-rsm2-rcm100-esm29-rsr2-rcr11-esr310,exr/ReadingArea_rsl2-rcl69-esl100-rsm2-rcm100-esm29-rsr2-rcr11-esr310.exr,ReadingArea_rsl2-rcl69-esl100-rsm2-rcm100-esm29-rsr2-rcr11-esr310.npz,,,,,0,46,46,478,,right,red,2.2,790.3225038051605,790.8899488449097,,1,,2,10,brightness,readingArea,realistic,75,2023-03-31_10h59.09.344,tripletExp_regina_11082022,2022.2.4,119.80371210346816,
8,1,6,2,0.25,1.0,2,0.111111111111111,0.298245614035088,2,0.027777777777778,1.0,ReadingArea_rsl2-rcl25-esl100-rsm2-rcm11-esm29-rsr2-rcr2-esr100,exr/ReadingArea_rsl2-rcl25-esl100-rsm2-rcm11-esm29-rsr2-rcr2-esr100.exr,ReadingArea_rsl2-rcl25-esl100-rsm2-rcm11-esm29-rsr2-rcr2-esr100.npz,,,,,0,47,47,62,,right,red,4.15,796.1144239902496,796.6806709766388,,1,,2,10,brightness,readingArea,realistic,75,2023-03-31_10h59.09.344,tripletExp_regina_11082022,2022.2.4,119.80371210346816,
5,8,3,2,1.0,0.298245614035088,2,0.25,1.0,2,0.444444444444444,0.298245614035088,ReadingArea_rsl2-rcl100-esl29-rsm2-rcm25-esm100-rsr2-rcr44-esr29,exr/ReadingArea_rsl2-rcl100-esl29-rsm2-rcm25-esm100-rsr2-rcr44-esr29.exr,ReadingArea_rsl2-rcl100-esl29-rsm2-rcm25-esm100-rsr2-rcr44-esr29.npz,,,,,0,48,48,556,,left,green,2.78,800.1293399333954,,,1,,2,10,brightness,readingArea,realistic,75,2023-03-31_10h59.09.344,tripletExp_regina_11082022,2022.2.4,119.80371210346816,
14,10,13,2,0.25,3.10526315789474,2,0.694444444444444,1.0,2,0.111111111111111,3.10526315789474,ReadingArea_rsl2-rcl25-esl310-rsm2-rcm69-esm100-rsr2-rcr11-esr310,exr/ReadingArea_rsl2-rcl25-esl310-rsm2-rcm69-esm100-rsr2-rcr11-esr310.exr,ReadingArea_rsl2-rcl25-esl310-rsm2-rcm69-esm100-rsr2-rcr11-esr310.npz,,,,,0,49,49,204,,right,red,4.17,805.8267288208008,806.3106479644775,,1,,2,10,brightness,readingArea,realistic,75,2023-03-31_10h59.09.344,tripletExp_regina_11082022,2022.2.4,119.80371210346816,
3,13,6,2,0.444444444444444,0.298245614035088,2,0.111111111111111,3.10526315789474,2,0.027777777777778,1.0,ReadingArea_rsl2-rcl44-esl29-rsm2-rcm11-esm310-rsr2-rcr2-esr100,exr/ReadingArea_rsl2-rcl44-esl29-rsm2-rcm11-esm310-rsr2-rcr2-esr100.exr,ReadingArea_rsl2-rcl44-esl29-rsm2-rcm11-esm310-rsr2-rcr2-esr100.npz,,,,,0,50,50,199,,left,green,2.92,809.7732579708099,810.2510919570923,,1,,2,10,brightness,readingArea,realistic,75,2023-03-31_10h59.09.344,tripletExp_regina_11082022,2022.2.4,119.80371210346816,
1,14,8,2,0.111111111111111,0.298245614035088,2,0.25,3.10526315789474,2,0.25,1.0,ReadingArea_rsl2-rcl11-esl29-rsm2-rcm25-esm310-rsr2-rcr25-esr100,exr/ReadingArea_rsl2-rcl11-esl29-rsm2-rcm25-esm310-rsr2-rcr25-esr100.exr,ReadingArea_rsl2-rcl11-esl29-rsm2-rcm25-esm310-rsr2-rcr25-esr100.npz,,,,,0,51,51,108,,right,red,2.37,813.7006030082703,814.1763169765472,,1,,2,10,brightness,readingArea,realistic,75,2023-03-31_10h59.09.344,tripletExp_regina_11082022,2022.2.4,119.80371210346816,
2,14,1,2,0.25,0.298245614035088,2,0.25,3.10526315789474,2,0.111111111111111,0.298245614035088,ReadingArea_rsl2-rcl25-esl29-rsm2-rcm25-esm310-rsr2-rcr11-esr29,exr/ReadingArea_rsl2-rcl25-esl29-rsm2-rcm25-esm310-rsr2-rcr11-esr29.exr,ReadingArea_rsl2-rcl25-esl29-rsm2-rcm25-esm310-rsr2-rcr11-esr29.npz,,,,,0,52,52,579,,left,green,2.84,817.6595599651337,818.2977039813995,,1,,2,10,brightness,readingArea,realistic,75,2023-03-31_10h59.09.344,tripletExp_regina_11082022,2022.2.4,119.80371210346816,
12,3,10,2,0.027777777777778,3.10526315789474,2,0.444444444444444,0.298245614035088,2,0.694444444444444,1.0,ReadingArea_rsl2-rcl2-esl310-rsm2-rcm44-esm29-rsr2-rcr69-esr100,exr/ReadingArea_rsl2-rcl2-esl310-rsm2-rcm44-esm29-rsr2-rcr69-esr100.exr,ReadingArea_rsl2-rcl2-esl310-rsm2-rcm44-esm29-rsr2-rcr69-esr100.npz,,,,,0,53,53,437,,right,red,4.78,823.4905138015747,824.0411069393158,,1,,2,10,brightness,readingArea,realistic,75,2023-03-31_10h59.09.344,tripletExp_regina_11082022,2022.2.4,119.80371210346816,
14,10,9,2,0.25,3.10526315789474,2,0.694444444444444,1.0,2,0.444444444444444,1.0,ReadingArea_rsl2-rcl25-esl310-rsm2-rcm69-esm100-rsr2-rcr44-esr100,exr/ReadingArea_rsl2-rcl25-esl310-rsm2-rcm69-esm100-rsr2-rcr44-esr100.exr,ReadingArea_rsl2-rcl25-esl310-rsm2-rcm69-esm100-rsr2-rcr44-esr100.npz,,,,,0,54,54,402,,right,red,4.19,829.289972782135,829.8752489089966,,1,,2,10,brightness,readingArea,realistic,75,2023-03-31_10h59.09.344,tripletExp_regina_11082022,2022.2.4,119.80371210346816,
1,0,4,2,0.111111111111111,0.298245614035088,2,0.027777777777778,0.298245614035088,2,0.694444444444444,0.298245614035088,ReadingArea_rsl2-rcl11-esl29-rsm2-rcm2-esm29-rsr2-rcr69-esr29,exr/ReadingArea_rsl2-rcl11-esl29-rsm2-rcm2-esm29-rsr2-rcr69-esr29.exr,ReadingArea_rsl2-rcl11-esl29-rsm2-rcm2-esm29-rsr2-rcr69-esr29.npz,,,,,0,55,55,494,,left,green,1.39,831.5654578208923,832.0460278987885,,1,,2,10,brightness,readingArea,realistic,75,2023-03-31_10h59.09.344,tripletExp_regina_11082022,2022.2.4,119.80371210346816,
10,7,3,2,0.694444444444444,1.0,2,0.111111111111111,1.0,2,0.444444444444444,0.298245614035088,ReadingArea_rsl2-rcl69-esl100-rsm2-rcm11-esm100-rsr2-rcr44-esr29,exr/ReadingArea_rsl2-rcl69-esl100-rsm2-rcm11-esm100-rsr2-rcr44-esr29.exr,ReadingArea_rsl2-rcl69-esl100-rsm2-rcm11-esm100-rsr2-rcr44-esr29.npz,,,,,0,56,56,582,,right,red,1.54,833.7489659786224,834.386727809906,,1,,2,10,brightness,readingArea,realistic,75,2023-03-31_10h59.09.344,tripletExp_regina_11082022,2022.2.4,119.80371210346816,
2,11,14,2,0.25,0.298245614035088,2,1.0,1.0,2,0.25,3.10526315789474,ReadingArea_rsl2-rcl25-esl29-rsm2-rcm100-esm100-rsr2-rcr25-esr310,exr/ReadingArea_rsl2-rcl25-esl29-rsm2-rcm100-esm100-rsr2-rcr25-esr310.exr,ReadingArea_rsl2-rcl25-esl29-rsm2-rcm100-esm100-rsr2-rcr25-esr310.npz,,,,,0,57,57,534,,right,red,2.32,837.8379859924316,838.3118147850037,,1,,2,10,brightness,readingArea,realistic,75,2023-03-31_10h59.09.344,tripletExp_regina_11082022,2022.2.4,119.80371210346816,
1,10,0,2,0.111111111111111,0.298245614035088,2,0.694444444444444,1.0,2,0.027777777777778,0.298245614035088,ReadingArea_rsl2-rcl11-esl29-rsm2-rcm69-esm100-rsr2-rcr2-esr29,exr/ReadingArea_rsl2-rcl11-esl29-rsm2-rcm69-esm100-rsr2-rcr2-esr29.exr,ReadingArea_rsl2-rcl11-esl29-rsm2-rcm69-esm100-rsr2-rcr2-esr29.npz,,,,,0,58,58,196,,left,green,1.65,840.0245978832245,840.5136058330536,,1,,2,10,brightness,readingArea,realistic,75,2023-03-31_10h59.09.344,tripletExp_regina_11082022,2022.2.4,119.80371210346816,
3,13,12,2,0.444444444444444,0.298245614035088,2,0.111111111111111,3.10526315789474,2,0.027777777777778,3.10526315789474,ReadingArea_rsl2-rcl44-esl29-rsm2-rcm11-esm310-rsr2-rcr2-esr310,exr/ReadingArea_rsl2-rcl44-esl29-rsm2-rcm11-esm310-rsr2-rcr2-esr310.exr,ReadingArea_rsl2-rcl44-esl29-rsm2-rcm11-esm310-rsr2-rcr2-esr310.npz,,,,,0,59,59,34,,right,red,4.28,845.735673904419,846.2121198177338,,1,,2,10,brightness,readingArea,realistic,75,2023-03-31_10h59.09.344,tripletExp_regina_11082022,2022.2.4,119.80371210346816,
13,10,12,2,0.111111111111111,3.10526315789474,2,0.694444444444444,1.0,2,0.027777777777778,3.10526315789474,ReadingArea_rsl2-rcl11-esl310-rsm2-rcm69-esm100-rsr2-rcr2-esr310,exr/ReadingArea_rsl2-rcl11-esl310-rsm2-rcm69-esm100-rsr2-rcr2-esr310.exr,ReadingArea_rsl2-rcl11-esl310-rsm2-rcm69-esm100-rsr2-rcr2-esr310.npz,,,,,0,60,60,384,,left,green,4.02,851.4583878517151,851.9465539455414,,1,,2,10,brightness,readingArea,realistic,75,2023-03-31_10h59.09.344,tripletExp_regina_11082022,2022.2.4,119.80371210346816,
10,1,13,2,0.694444444444444,1.0,2,0.111111111111111,0.298245614035088,2,0.111111111111111,3.10526315789474,ReadingArea_rsl2-rcl69-esl100-rsm2-rcm11-esm29-rsr2-rcr11-esr310,exr/ReadingArea_rsl2-rcl69-esl100-rsm2-rcm11-esm29-rsr2-rcr11-esr310.exr,ReadingArea_rsl2-rcl69-esl100-rsm2-rcm11-esm29-rsr2-rcr11-esr310.npz,,,,,0,61,61,45,,right,red,3.21,855.4347379207611,855.9220418930054,,1,,2,10,brightness,readingArea,realistic,75,2023-03-31_10h59.09.344,tripletExp_regina_11082022,2022.2.4,119.80371210346816,
0,8,14,2,0.027777777777778,0.298245614035088,2,0.25,1.0,2,0.25,3.10526315789474,ReadingArea_rsl2-rcl2-esl29-rsm2-rcm25-esm100-rsr2-rcr25-esr310,exr/ReadingArea_rsl2-rcl2-esl29-rsm2-rcm25-esm100-rsr2-rcr25-esr310.exr,ReadingArea_rsl2-rcl2-esl29-rsm2-rcm25-esm100-rsr2-rcr25-esr310.npz,,,,,0,62,62,114,,right,red,4.2,861.1636078357697,,,1,,2,10,brightness,readingArea,realistic,75,2023-03-31_10h59.09.344,tripletExp_regina_11082022,2022.2.4,119.80371210346816,
12,10,6,2,0.027777777777778,3.10526315789474,2,0.694444444444444,1.0,2,0.027777777777778,1.0,ReadingArea_rsl2-rcl2-esl310-rsm2-rcm69-esm100-rsr2-rcr2-esr100,exr/ReadingArea_rsl2-rcl2-esl310-rsm2-rcm69-esm100-rsr2-rcr2-esr100.exr,ReadingArea_rsl2-rcl2-esl310-rsm2-rcm69-esm100-rsr2-rcr2-esr100.npz,,,,,0,63,63,273,,left,green,3.0,865.1190919876099,865.610860824585,,1,,2,10,brightness,readingArea,realistic,75,2023-03-31_10h59.09.344,tripletExp_regina_11082022,2022.2.4,119.80371210346816,
2,11,7,2,0.25,0.298245614035088,2,1.0,1.0,2,0.111111111111111,1.0,ReadingArea_rsl2-rcl25-esl29-rsm2-rcm100-esm100-rsr2-rcr11-esr100,exr/ReadingArea_rsl2-rcl25-esl29-rsm2-rcm100-esm100-rsr2-rcr11-esr100.exr,ReadingArea_rsl2-rcl25-esl29-rsm2-rcm100-esm100-rsr2-rcr11-esr100.npz,,,,,0,64,64,576,,right,red,2.97,869.070524930954,869.5614018440247,,1,,2,10,brightness,readingArea,realistic,75,2023-03-31_10h59.09.344,tripletExp_regina_11082022,2022.2.4,119.80371210346816,
10,9,6,2,0.694444444444444,1.0,2,0.444444444444444,1.0,2,0.027777777777778,1.0,ReadingArea_rsl2-rcl69-esl100-rsm2-rcm44-esm100-rsr2-rcr2-esr100,exr/ReadingArea_rsl2-rcl69-esl100-rsm2-rcm44-esm100-rsr2-rcr2-esr100.exr,ReadingArea_rsl2-rcl69-esl100-rsm2-rcm44-esm100-rsr2-rcr2-esr100.npz,,,,,0,65,65,35,,left,green,3.31,873.0264849662781,873.4857578277588,,1,,2,10,brightness,readingArea,realistic,75,2023-03-31_10h59.09.344,tripletExp_regina_11082022,2022.2.4,119.80371210346816,
6,5,13,2,0.027777777777778,1.0,2,1.0,0.298245614035088,2,0.111111111111111,3.10526315789474,ReadingArea_rsl2-rcl2-esl100-rsm2-rcm100-esm29-rsr2-rcr11-esr310,exr/ReadingArea_rsl2-rcl2-esl100-rsm2-rcm100-esm29-rsr2-rcr11-esr310.exr,ReadingArea_rsl2-rcl2-esl100-rsm2-rcm100-esm29-rsr2-rcr11-esr310.npz,,,,,0,66,66,450,,right,red,4.73,878.7613248825073,879.3010699748993,,1,,2,10,brightness,readingArea,realistic,75,2023-03-31_10h59.09.344,tripletExp_regina_11082022,2022.2.4,119.80371210346816,
1,6,11,2,0.111111111111111,0.298245614035088,2,0.027777777777778,1.0,2,1.0,1.0,ReadingArea_rsl2-rcl11-esl29-rsm2-rcm2-esm100-rsr2-rcr100-esr100,exr/ReadingArea_rsl2-rcl11-esl29-rsm2-rcm2-esm100-rsr2-rcr100-esr100.exr,ReadingArea_rsl2-rcl11-esl29-rsm2-rcm2-esm100-rsr2-rcr100-esr100.npz,,,,,0,67,67,39,,left,green,3.23,882.7601478099823,883.243597984314,,1,,2,10,brightness,readingArea,realistic,75,2023-03-31_10h59.09.344,tripletExp_regina_11082022,2022.2.4,119.80371210346816,
6,13,0,2,0.027777777777778,1.0,2,0.111111111111111,3.10526315789474,2,0.027777777777778,0.298245614035088,ReadingArea_rsl2-rcl2-esl100-rsm2-rcm11-esm310-rsr2-rcr2-esr29,exr/ReadingArea_rsl2-rcl2-esl100-rsm2-rcm11-esm310-rsr2-rcr2-esr29.exr,ReadingArea_rsl2-rcl2-esl100-rsm2-rcm11-esm310-rsr2-rcr2-esr29.npz,,,,,0,68,68,580,,left,green,4.21,888.4634318351746,888.9540989398956,,1,,2,10,brightness,readingArea,realistic,75,2023-03-31_10h59.09.344,tripletExp_regina_11082022,2022.2.4,119.80371210346816,
5,13,6,2,1.0,0.298245614035088,2,0.111111111111111,3.10526315789474,2,0.027777777777778,1.0,ReadingArea_rsl2-rcl100-esl29-rsm2-rcm11-esm310-rsr2-rcr2-esr100,exr/ReadingArea_rsl2-rcl100-esl29-rsm2-rcm11-esm310-rsr2-rcr2-esr100.exr,ReadingArea_rsl2-rcl100-esl29-rsm2-rcm11-esm310-rsr2-rcr2-esr100.npz,,,,,0,69,69,263,,left,green,4.12,894.1769678592682,894.6621768474579,,1,,2,10,brightness,readingArea,realistic,75,2023-03-31_10h59.09.344,tripletExp_regina_11082022,2022.2.4,119.80371210346816,
1,5,13,2,0.111111111111111,0.298245614035088,2,1.0,0.298245614035088,2,0.111111111111111,3.10526315789474,ReadingArea_rsl2-rcl11-esl29-rsm2-rcm100-esm29-rsr2-rcr11-esr310,exr/ReadingArea_rsl2-rcl11-esl29-rsm2-rcm100-esm29-rsr2-rcr11-esr310.exr,ReadingArea_rsl2-rcl11-esl29-rsm2-rcm100-esm29-rsr2-rcr11-esr310.npz,,,,,0,70,70,598,,right,red,3.96,899.8895289897919,900.3592119216919,,1,,2,10,brightness,readingArea,realistic,75,2023-03-31_10h59.09.344,tripletExp_regina_11082022,2022.2.4,119.80371210346816,
6,1,9,2,0.027777777777778,1.0,2,0.111111111111111,0.298245614035088,2,0.444444444444444,1.0,ReadingArea_rsl2-rcl2-esl100-rsm2-rcm11-esm29-rsr2-rcr44-esr100,exr/ReadingArea_rsl2-rcl2-esl100-rsm2-rcm11-esm29-rsr2-rcr44-esr100.exr,ReadingArea_rsl2-rcl2-esl100-rsm2-rcm11-esm29-rsr2-rcr44-esr100.npz,,,,,0,71,71,74,,left,green,4.63,905.6051077842712,906.2696578502656,,1,,2,10,brightness,readingArea,realistic,75,2023-03-31_10h59.09.344,tripletExp_regina_11082022,2022.2.4,119.80371210346816,
14,4,7,2,0.25,3.10526315789474,2,0.694444444444444,0.298245614035088,2,0.111111111111111,1.0,ReadingArea_rsl2-rcl25-esl310-rsm2-rcm69-esm29-rsr2-rcr11-esr100,exr/ReadingArea_rsl2-rcl25-esl310-rsm2-rcm69-esm29-rsr2-rcr11-esr100.exr,ReadingArea_rsl2-rcl25-esl310-rsm2-rcm69-esm29-rsr2-rcr11-esr100.npz,,,,,0,72,72,136,,right,red,4.64,911.5155098438264,912.0302038192748,,1,,2,10,brightness,readingArea,realistic,75,2023-03-31_10h59.09.344,tripletExp_regina_11082022,2022.2.4,119.80371210346816,
8,9,2,2,0.25,1.0,2,0.444444444444444,1.0,2,0.25,0.298245614035088,ReadingArea_rsl2-rcl25-esl100-rsm2-rcm44-esm100-rsr2-rcr25-esr29,exr/ReadingArea_rsl2-rcl25-esl100-rsm2-rcm44-esm100-rsr2-rcr25-esr29.exr,ReadingArea_rsl2-rcl25-esl100-rsm2-rcm44-esm100-rsr2-rcr25-esr29.npz,,,,,0,73,73,559,,left,green,4.36,917.2863547801971,917.975133895874,,1,,2,10,brightness,readingArea,realistic,75,2023-03-31_10h59.09.344,tripletExp_regina_11082022,2022.2.4,119.80371210346816,
1,14,7,2,0.111111111111111,0.298245614035088,2,0.25,3.10526315789474,2,0.111111111111111,1.0,ReadingArea_rsl2-rcl11-esl29-rsm2-rcm25-esm310-rsr2-rcr11-esr100,exr/ReadingArea_rsl2-rcl11-esl29-rsm2-rcm25-esm310-rsr2-rcr11-esr100.exr,ReadingArea_rsl2-rcl11-esl29-rsm2-rcm25-esm310-rsr2-rcr11-esr100.npz,,,,,0,74,74,583,,right,red,2.32,921.4420499801636,921.6467537879944,,1,,2,10,brightness,readingArea,realistic,75,2023-03-31_10h59.09.344,tripletExp_regina_11082022,2022.2.4,119.80371210346816,
0,9,11,2,0.027777777777778,0.298245614035088,2,0.444444444444444,1.0,2,1.0,1.0,ReadingArea_rsl2-rcl2-esl29-rsm2-rcm44-esm100-rsr2-rcr100-esr100,exr/ReadingArea_rsl2-rcl2-esl29-rsm2-rcm44-esm100-rsr2-rcr100-esr100.exr,ReadingArea_rsl2-rcl2-esl29-rsm2-rcm44-esm100-rsr2-rcr100-esr100.npz,,,,,0,75,75,448,,right,red,3.2,956.7886109352112,957.216996908188,,2,,2,10,brightness,readingArea,realistic,75,2023-03-31_10h59.09.344,tripletExp_regina_11082022,2022.2.4,119.80371210346816,
4,8,0,2,0.694444444444444,0.298245614035088,2,0.25,1.0,2,0.027777777777778,0.298245614035088,ReadingArea_rsl2-rcl69-esl29-rsm2-rcm25-esm100-rsr2-rcr2-esr29,exr/ReadingArea_rsl2-rcl69-esl29-rsm2-rcm25-esm100-rsr2-rcr2-esr29.exr,ReadingArea_rsl2-rcl69-esl29-rsm2-rcm25-esm100-rsr2-rcr2-esr29.npz,,,,,0,76,76,137,,left,green,2.13,960.689642906189,961.1801238059998,,2,,2,10,brightness,readingArea,realistic,75,2023-03-31_10h59.09.344,tripletExp_regina_11082022,2022.2.4,119.80371210346816,
4,0,3,2,0.694444444444444,0.298245614035088,2,0.027777777777778,0.298245614035088,2,0.444444444444444,0.298245614035088,ReadingArea_rsl2-rcl69-esl29-rsm2-rcm2-esm29-rsr2-rcr44-esr29,exr/ReadingArea_rsl2-rcl69-esl29-rsm2-rcm2-esm29-rsr2-rcr44-esr29.exr,ReadingArea_rsl2-rcl69-esl29-rsm2-rcm2-esm29-rsr2-rcr44-esr29.npz,,,,,0,77,77,88,,right,red,2.22,964.641739845276,965.2102468013765,,2,,2,10,brightness,readingArea,realistic,75,2023-03-31_10h59.09.344,tripletExp_regina_11082022,2022.2.4,119.80371210346816,
6,12,8,2,0.027777777777778,1.0,2,0.027777777777778,3.10526315789474,2,0.25,1.0,ReadingArea_rsl2-rcl2-esl100-rsm2-rcm2-esm310-rsr2-rcr25-esr100,exr/ReadingArea_rsl2-rcl2-esl100-rsm2-rcm2-esm310-rsr2-rcr25-esr100.exr,ReadingArea_rsl2-rcl2-esl100-rsm2-rcm2-esm310-rsr2-rcr25-esr100.npz,,,,,0,78,78,186,,left,green,4.35,970.4509119987488,970.9827399253844,,2,,2,10,brightness,readingArea,realistic,75,2023-03-31_10h59.09.344,tripletExp_regina_11082022,2022.2.4,119.80371210346816,
10,13,6,2,0.694444444444444,1.0,2,0.111111111111111,3.10526315789474,2,0.027777777777778,1.0,ReadingArea_rsl2-rcl69-esl100-rsm2-rcm11-esm310-rsr2-rcr2-esr100,exr/ReadingArea_rsl2-rcl69-esl100-rsm2-rcm11-esm310-rsr2-rcr2-esr100.exr,ReadingArea_rsl2-rcl69-esl100-rsm2-rcm11-esm310-rsr2-rcr2-esr100.npz,,,,,0,79,79,351,,left,green,2.93,974.4544298648834,974.943853855133,,2,,2,10,brightness,readingArea,realistic,75,2023-03-31_10h59.09.344,tripletExp_regina_11082022,2022.2.4,119.80371210346816,
7,10,4,2,0.111111111111111,1.0,2,0.694444444444444,1.0,2,0.694444444444444,0.298245614035088,ReadingArea_rsl2-rcl11-esl100-rsm2-rcm69-esm100-rsr2-rcr69-esr29,exr/ReadingArea_rsl2-rcl11-esl100-rsm2-rcm69-esm100-rsr2-rcr69-esr29.exr,ReadingArea_rsl2-rcl11-esl100-rsm2-rcm69-esm100-rsr2-rcr69-esr29.npz,,,,,0,80,80,46,,right,red,4.61,980.1671969890594,980.6660809516908,,2,,2,10,brightness,readingArea,realistic,75,2023-03-31_10h59.09.344,tripletExp_regina_11082022,2022.2.4,119.80371210346816,
13,0,9,2,0.111111111111111,3.10526315789474,2,0.027777777777778,0.298245614035088,2,0.444444444444444,1.0,ReadingArea_rsl2-rcl11-esl310-rsm2-rcm2-esm29-rsr2-rcr44-esr100,exr/ReadingArea_rsl2-rcl11-esl310-rsm2-rcm2-esm29-rsr2-rcr44-esr100.exr,ReadingArea_rsl2-rcl11-esl310-rsm2-rcm2-esm29-rsr2-rcr44-esr100.npz,,,,,0,81,81,373,,left,green,3.47,984.1503868103028,984.6422679424286,,2,,2,10,brightness,readingArea,realistic,75,2023-03-31_10h59.09.344,tripletExp_regina_11082022,2022.2.4,119.80371210346816,
11,9,4,2,1.0,1.0,2,0.444444444444444,1.0,2,0.694444444444444,0.298245614035088,ReadingArea_rsl2-rcl100-esl100-rsm2-rcm44-esm100-rsr2-rcr69-esr29,exr/ReadingArea_rsl2-rcl100-esl100-rsm2-rcm44-esm100-rsr2-rcr69-esr29.exr,ReadingArea_rsl2-rcl100-esl100-rsm2-rcm44-esm100-rsr2-rcr69-esr29.npz,,,,,0,82,82,26,,right,red,3.2,988.1032569408416,988.5921819210052,,2,,2,10,brightness,readingArea,realistic,75,2023-03-31_10h59.09.344,tripletExp_regina_11082022,2022.2.4,119.80371210346816,
3,4,13,2,0.444444444444444,0.298245614035088,2,0.694444444444444,0.298245614035088,2,0.111111111111111,3.10526315789474,ReadingArea_rsl2-rcl44-esl29-rsm2-rcm69-esm29-rsr2-rcr11-esr310,exr/ReadingArea_rsl2-rcl44-esl29-rsm2-rcm69-esm29-rsr2-rcr11-esr310.exr,ReadingArea_rsl2-rcl44-esl29-rsm2-rcm69-esm29-rsr2-rcr11-esr310.npz,,,,,0,83,83,63,,left,green,2.63,992.0596768856047,,,2,,2,10,brightness,readingArea,realistic,75,2023-03-31_10h59.09.344,tripletExp_regina_11082022,2022.2.4,119.80371210346816,
3,12,6,2,0.444444444444444,0.298245614035088,2,0.027777777777778,3.10526315789474,2,0.027777777777778,1.0,ReadingArea_rsl2-rcl44-esl29-rsm2-rcm2-esm310-rsr2-rcr2-esr100,exr/ReadingArea_rsl2-rcl44-esl29-rsm2-rcm2-esm310-rsr2-rcr2-esr100.exr,ReadingArea_rsl2-rcl44-esl29-rsm2-rcm2-esm310-rsr2-rcr2-esr100.npz,,,,,0,84,84,353,,right,red,2.26,996.0501568317412,996.6774098873138,,2,,2,10,brightness,readingArea,realistic,75,2023-03-31_10h59.09.344,tripletExp_regina_11082022,2022.2.4,119.80371210346816,
13,10,3,2,0.111111111111111,3.10526315789474,2,0.694444444444444,1.0,2,0.444444444444444,0.298245614035088,ReadingArea_rsl2-rcl11-esl310-rsm2-rcm69-esm100-rsr2-rcr44-esr29,exr/ReadingArea_rsl2-rcl11-esl310-rsm2-rcm69-esm100-rsr2-rcr44-esr29.exr,ReadingArea_rsl2-rcl11-esl310-rsm2-rcm69-esm100-rsr2-rcr44-esr29.npz,,,,,0,85,85,224,,right,red,4.8,1001.9004278182985,1002.373153924942,,2,,2,10,brightness,readingArea,realistic,75,2023-03-31_10h59.09.344,tripletExp_regina_11082022,2022.2.4,119.80371210346816,
9,14,7,2,0.444444444444444,1.0,2,0.25,3.10526315789474,2,0.111111111111111,1.0,ReadingArea_rsl2-rcl44-esl100-rsm2-rcm25-esm310-rsr2-rcr11-esr100,exr/ReadingArea_rsl2-rcl44-esl100-rsm2-rcm25-esm310-rsr2-rcr11-esr100.exr,ReadingArea_rsl2-rcl44-esl100-rsm2-rcm25-esm310-rsr2-rcr11-esr100.npz,,,,,0,86,86,44,,left,green,2.57,1005.8429479599,1006.3381059169768,,2,,2,10,brightness,readingArea,realistic,75,2023-03-31_10h59.09.344,tripletExp_regina_11082022,2022.2.4,119.80371210346816,
10,7,4,2,0.694444444444444,1.0,2,0.111111111111111,1.0,2,0.694444444444444,0.298245614035088,ReadingArea_rsl2-rcl69-esl100-rsm2-rcm11-esm100-rsr2-rcr69-esr29,exr/ReadingArea_rsl2-rcl69-esl100-rsm2-rcm11-esm100-rsr2-rcr69-esr29.exr,ReadingArea_rsl2-rcl69-esl100-rsm2-rcm11-esm100-rsr2-rcr69-esr29.npz,,,,,0,87,87,223,,left,green,2.75,1009.8024289608002,1010.2944889068604,,2,,2,10,brightness,readingArea,realistic,75,2023-03-31_10h59.09.344,tripletExp_regina_11082022,2022.2.4,119.80371210346816,
12,9,14,2,0.027777777777778,3.10526315789474,2,0.444444444444444,1.0,2,0.25,3.10526315789474,ReadingArea_rsl2-rcl2-esl310-rsm2-rcm44-esm100-rsr2-rcr25-esr310,exr/ReadingArea_rsl2-rcl2-esl310-rsm2-rcm44-esm100-rsr2-rcr25-esr310.exr,ReadingArea_rsl2-rcl2-esl310-rsm2-rcm44-esm100-rsr2-rcr25-esr310.npz,,,,,0,88,88,123,,right,red,4.24,1015.5428898334504,1016.0164458751678,,2,,2,10,brightness,readingArea,realistic,75,2023-03-31_10h59.09.344,tripletExp_regina_11082022,2022.2.4,119.80371210346816,
8,6,0,2,0.25,1.0,2,0.027777777777778,1.0,2,0.027777777777778,0.298245614035088,ReadingArea_rsl2-rcl25-esl100-rsm2-rcm2-esm100-rsr2-rcr2-esr29,exr/ReadingArea_rsl2-rcl25-esl100-rsm2-rcm2-esm100-rsr2-rcr2-esr29.exr,ReadingArea_rsl2-rcl25-esl100-rsm2-rcm2-esm100-rsr2-rcr2-esr29.npz,,,,,0,89,89,187,,right,red,2.99,1019.4786698818208,1019.9612789154052,,2,,2,10,brightness,readingArea,realistic,75,2023-03-31_10h59.09.344,tripletExp_regina_11082022,2022.2.4,119.80371210346816,
3,13,1,2,0.444444444444444,0.298245614035088,2,0.111111111111111,3.10526315789474,2,0.111111111111111,0.298245614035088,ReadingArea_rsl2-rcl44-esl29-rsm2-rcm11-esm310-rsr2-rcr11-esr29,exr/ReadingArea_rsl2-rcl44-esl29-rsm2-rcm11-esm310-rsr2-rcr11-esr29.exr,ReadingArea_rsl2-rcl44-esl29-rsm2-rcm11-esm310-rsr2-rcr11-esr29.npz,,,,,0,90,90,421,,left,green,4.47,1025.206524848938,,,2,,2,10,brightness,readingArea,realistic,75,2023-03-31_10h59.09.344,tripletExp_regina_11082022,2022.2.4,119.80371210346816,
14,5,13,2,0.25,3.10526315789474,2,1.0,0.298245614035088,2,0.111111111111111,3.10526315789474,ReadingArea_rsl2-rcl25-esl310-rsm2-rcm100-esm29-rsr2-rcr11-esr310,exr/ReadingArea_rsl2-rcl25-esl310-rsm2-rcm100-esm29-rsr2-rcr11-esr310.exr,ReadingArea_rsl2-rcl25-esl310-rsm2-rcm100-esm29-rsr2-rcr11-esr310.npz,,,,,0,91,91,524,,right,red,4.44,1030.922395944595,1031.5251808166504,,2,,2,10,brightness,readingArea,realistic,75,2023-03-31_10h59.09.344,tripletExp_regina_11082022,2022.2.4,119.80371210346816,
2,1,12,2,0.25,0.298245614035088,2,0.111111111111111,0.298245614035088,2,0.027777777777778,3.10526315789474,ReadingArea_rsl2-rcl25-esl29-rsm2-rcm11-esm29-rsr2-rcr2-esr310,exr/ReadingArea_rsl2-rcl25-esl29-rsm2-rcm11-esm29-rsr2-rcr2-esr310.exr,ReadingArea_rsl2-rcl25-esl29-rsm2-rcm11-esm29-rsr2-rcr2-esr310.npz,,,,,0,92,92,12,,left,green,3.39,1034.989602804184,1035.460189819336,,2,,2,10,brightness,readingArea,realistic,75,2023-03-31_10h59.09.344,tripletExp_regina_11082022,2022.2.4,119.80371210346816,
9,0,3,2,0.444444444444444,1.0,2,0.027777777777778,0.298245614035088,2,0.444444444444444,0.298245614035088,ReadingArea_rsl2-rcl44-esl100-rsm2-rcm2-esm29-rsr2-rcr44-esr29,exr/ReadingArea_rsl2-rcl44-esl100-rsm2-rcm2-esm29-rsr2-rcr44-esr29.exr,ReadingArea_rsl2-rcl44-esl100-rsm2-rcm2-esm29-rsr2-rcr44-esr29.npz,,,,,0,93,93,2,,right,red,2.93,1038.923595905304,1039.4028358459473,,2,,2,10,brightness,readingArea,realistic,75,2023-03-31_10h59.09.344,tripletExp_regina_11082022,2022.2.4,119.80371210346816,
7,12,2,2,0.111111111111111,1.0,2,0.027777777777778,3.10526315789474,2,0.25,0.298245614035088,ReadingArea_rsl2-rcl11-esl100-rsm2-rcm2-esm310-rsr2-rcr25-esr29,exr/ReadingArea_rsl2-rcl11-esl100-rsm2-rcm2-esm310-rsr2-rcr25-esr29.exr,ReadingArea_rsl2-rcl11-esl100-rsm2-rcm2-esm310-rsr2-rcr25-esr29.npz,,,,,0,94,94,72,,left,green,4.06,1044.652776002884,1045.269613981247,,2,,2,10,brightness,readingArea,realistic,75,2023-03-31_10h59.09.344,tripletExp_regina_11082022,2022.2.4,119.80371210346816,
3,0,4,2,0.444444444444444,0.298245614035088,2,0.027777777777778,0.298245614035088,2,0.694444444444444,0.298245614035088,ReadingArea_rsl2-rcl44-esl29-rsm2-rcm2-esm29-rsr2-rcr69-esr29,exr/ReadingArea_rsl2-rcl44-esl29-rsm2-rcm2-esm29-rsr2-rcr69-esr29.exr,ReadingArea_rsl2-rcl44-esl29-rsm2-rcm2-esm29-rsr2-rcr69-esr29.npz,,,,,0,95,95,111,,left,green,4.6,1050.491533994675,1050.9898009300232,,2,,2,10,brightness,readingArea,realistic,75,2023-03-31_10h59.09.344,tripletExp_regina_11082022,2022.2.4,119.80371210346816,
11,4,0,2,1.0,1.0,2,0.694444444444444,0.298245614035088,2,0.027777777777778,0.298245614035088,ReadingArea_rsl2-rcl100-esl100-rsm2-rcm69-esm29-rsr2-rcr2-esr29,exr/ReadingArea_rsl2-rcl100-esl100-rsm2-rcm69-esm29-rsr2-rcr2-esr29.exr,ReadingArea_rsl2-rcl100-esl100-rsm2-rcm69-esm29-rsr2-rcr2-esr29.npz,,,,,0,96,96,219,,left,green,2.86,1054.4609107971191,,,2,,2,10,brightness,readingArea,realistic,75,2023-03-31_10h59.09.344,tripletExp_regina_11082022,2022.2.4,119.80371210346816,
13,0,8,2,0.111111111111111,3.10526315789474,2,0.027777777777778,0.298245614035088,2,0.25,1.0,ReadingArea_rsl2-rcl11-esl310-rsm2-rcm2-esm29-rsr2-rcr25-esr100,exr/ReadingArea_rsl2-rcl11-esl310-rsm2-rcm2-esm29-rsr2-rcr25-esr100.exr,ReadingArea_rsl2-rcl11-esl310-rsm2-rcm2-esm29-rsr2-rcr25-esr100.npz,,,,,0,97,97,249,,right,red,2.27,1058.4262328147888,1058.8974378108978,,2,,2,10,brightness,readingArea,realistic,75,2023-03-31_10h59.09.344,tripletExp_regina_11082022,2022.2.4,119.80371210346816,
2,6,13,2,0.25,0.298245614035088,2,0.027777777777778,1.0,2,0.111111111111111,3.10526315789474,ReadingArea_rsl2-rcl25-esl29-rsm2-rcm2-esm100-rsr2-rcr11-esr310,exr/ReadingArea_rsl2-rcl25-esl29-rsm2-rcm2-esm100-rsr2-rcr11-esr310.exr,ReadingArea_rsl2-rcl25-esl29-rsm2-rcm2-esm100-rsr2-rcr11-esr310.npz,,,,,0,98,98,388,,right,red,2.26,1062.378182888031,1062.861582994461,,2,,2,10,brightness,readingArea,realistic,75,2023-03-31_10h59.09.344,tripletExp_regina_11082022,2022.2.4,119.80371210346816,
5,4,12,2,1.0,0.298245614035088,2,0.694444444444444,0.298245614035088,2,0.027777777777778,3.10526315789474,ReadingArea_rsl2-rcl100-esl29-rsm2-rcm69-esm29-rsr2-rcr2-esr310,exr/ReadingArea_rsl2-rcl100-esl29-rsm2-rcm69-esm29-rsr2-rcr2-esr310.exr,ReadingArea_rsl2-rcl100-esl29-rsm2-rcm69-esm29-rsr2-rcr2-esr310.npz,,,,,0,99,99,82,,left,green,2.8,1066.3252329826355,1066.8248319625854,,2,,2,10,brightness,readingArea,realistic,75,2023-03-31_10h59.09.344,tripletExp_regina_11082022,2022.2.4,119.80371210346816,
10,3,0,2,0.694444444444444,1.0,2,0.444444444444444,0.298245614035088,2,0.027777777777778,0.298245614035088,ReadingArea_rsl2-rcl69-esl100-rsm2-rcm44-esm29-rsr2-rcr2-esr29,exr/ReadingArea_rsl2-rcl69-esl100-rsm2-rcm44-esm29-rsr2-rcr2-esr29.exr,ReadingArea_rsl2-rcl69-esl100-rsm2-rcm44-esm29-rsr2-rcr2-esr29.npz,,,,,0,100,100,203,,left,green,4.53,1072.0654368400574,1072.5567479133606,,2,,2,10,brightness,readingArea,realistic,75,2023-03-31_10h59.09.344,tripletExp_regina_11082022,2022.2.4,119.80371210346816,
1,7,2,2,0.111111111111111,0.298245614035088,2,0.111111111111111,1.0,2,0.25,0.298245614035088,ReadingArea_rsl2-rcl11-esl29-rsm2-rcm11-esm100-rsr2-rcr25-esr29,exr/ReadingArea_rsl2-rcl11-esl29-rsm2-rcm11-esm100-rsr2-rcr25-esr29.exr,ReadingArea_rsl2-rcl11-esl29-rsm2-rcm11-esm100-rsr2-rcr25-esr29.npz,,,,,0,101,101,162,,right,red,4.65,1077.7790749073029,1078.285656929016,,2,,2,10,brightness,readingArea,realistic,75,2023-03-31_10h59.09.344,tripletExp_regina_11082022,2022.2.4,119.80371210346816,
7,8,12,2,0.111111111111111,1.0,2,0.25,1.0,2,0.027777777777778,3.10526315789474,ReadingArea_rsl2-rcl11-esl100-rsm2-rcm25-esm100-rsr2-rcr2-esr310,exr/ReadingArea_rsl2-rcl11-esl100-rsm2-rcm25-esm100-rsr2-rcr2-esr310.exr,ReadingArea_rsl2-rcl11-esl100-rsm2-rcm25-esm100-rsr2-rcr2-esr310.npz,,,,,0,102,102,271,,left,green,4.06,1083.5226747989657,1084.1436989307404,,2,,2,10,brightness,readingArea,realistic,75,2023-03-31_10h59.09.344,tripletExp_regina_11082022,2022.2.4,119.80371210346816,
5,10,0,2,1.0,0.298245614035088,2,0.694444444444444,1.0,2,0.027777777777778,0.298245614035088,ReadingArea_rsl2-rcl100-esl29-rsm2-rcm69-esm100-rsr2-rcr2-esr29,exr/ReadingArea_rsl2-rcl100-esl29-rsm2-rcm69-esm100-rsr2-rcr2-esr29.exr,ReadingArea_rsl2-rcl100-esl29-rsm2-rcm69-esm100-rsr2-rcr2-esr29.npz,,,,,0,103,103,293,,left,green,2.97,1087.602063894272,1088.1278448104858,,2,,2,10,brightness,readingArea,realistic,75,2023-03-31_10h59.09.344,tripletExp_regina_11082022,2022.2.4,119.80371210346816,
13,6,0,2,0.111111111111111,3.10526315789474,2,0.027777777777778,1.0,2,0.027777777777778,0.298245614035088,ReadingArea_rsl2-rcl11-esl310-rsm2-rcm2-esm100-rsr2-rcr2-esr29,exr/ReadingArea_rsl2-rcl11-esl310-rsm2-rcm2-esm100-rsr2-rcr2-esr29.exr,ReadingArea_rsl2-rcl11-esl310-rsm2-rcm2-esm100-rsr2-rcr2-esr29.npz,,,,,0,104,104,309,,right,red,4.36,1093.3696689605713,1093.9639120101929,,2,,2,10,brightness,readingArea,realistic,75,2023-03-31_10h59.09.344,tripletExp_regina_11082022,2022.2.4,119.80371210346816,
10,1,0,2,0.694444444444444,1.0,2,0.111111111111111,0.298245614035088,2,0.027777777777778,0.298245614035088,ReadingArea_rsl2-rcl69-esl100-rsm2-rcm11-esm29-rsr2-rcr2-esr29,exr/ReadingArea_rsl2-rcl69-esl100-rsm2-rcm11-esm29-rsr2-rcr2-esr29.exr,ReadingArea_rsl2-rcl69-esl100-rsm2-rcm11-esm29-rsr2-rcr2-esr29.npz,,,,,0,105,105,276,,right,red,4.82,1099.2113528251648,1099.8314728736875,,2,,2,10,brightness,readingArea,realistic,75,2023-03-31_10h59.09.344,tripletExp_regina_11082022,2022.2.4,119.80371210346816,
4,8,3,2,0.694444444444444,0.298245614035088,2,0.25,1.0,2,0.444444444444444,0.298245614035088,ReadingArea_rsl2-rcl69-esl29-rsm2-rcm25-esm100-rsr2-rcr44-esr29,exr/ReadingArea_rsl2-rcl69-esl29-rsm2-rcm25-esm100-rsr2-rcr44-esr29.exr,ReadingArea_rsl2-rcl69-esl29-rsm2-rcm25-esm100-rsr2-rcr44-esr29.npz,,,,,0,106,106,292,,right,red,2.53,1103.3116569519043,1103.794018983841,,2,,2,10,brightness,readingArea,realistic,75,2023-03-31_10h59.09.344,tripletExp_regina_11082022,2022.2.4,119.80371210346816,
7,13,4,2,0.111111111111111,1.0,2,0.111111111111111,3.10526315789474,2,0.694444444444444,0.298245614035088,ReadingArea_rsl2-rcl11-esl100-rsm2-rcm11-esm310-rsr2-rcr69-esr29,exr/ReadingArea_rsl2-rcl11-esl100-rsm2-rcm11-esm310-rsr2-rcr69-esr29.exr,ReadingArea_rsl2-rcl11-esl100-rsm2-rcm11-esm310-rsr2-rcr69-esr29.npz,,,,,0,107,107,456,,left,green,4.4,1109.043331861496,1109.6129179000854,,2,,2,10,brightness,readingArea,realistic,75,2023-03-31_10h59.09.344,tripletExp_regina_11082022,2022.2.4,119.80371210346816,
9,6,1,2,0.444444444444444,1.0,2,0.027777777777778,1.0,2,0.111111111111111,0.298245614035088,ReadingArea_rsl2-rcl44-esl100-rsm2-rcm2-esm100-rsr2-rcr11-esr29,exr/ReadingArea_rsl2-rcl44-esl100-rsm2-rcm2-esm100-rsr2-rcr11-esr29.exr,ReadingArea_rsl2-rcl44-esl100-rsm2-rcm2-esm100-rsr2-rcr11-esr29.npz,,,,,0,108,108,526,,right,red,2.67,1113.0841579437256,1113.5665309429169,,2,,2,10,brightness,readingArea,realistic,75,2023-03-31_10h59.09.344,tripletExp_regina_11082022,2022.2.4,119.80371210346816,
10,11,9,2,0.694444444444444,1.0,2,1.0,1.0,2,0.444444444444444,1.0,ReadingArea_rsl2-rcl69-esl100-rsm2-rcm100-esm100-rsr2-rcr44-esr100,exr/ReadingArea_rsl2-rcl69-esl100-rsm2-rcm100-esm100-rsr2-rcr44-esr100.exr,ReadingArea_rsl2-rcl69-esl100-rsm2-rcm100-esm100-rsr2-rcr44-esr100.npz,,,,,0,109,109,492,,left,green,2.33,1117.035710811615,1117.515897989273,,2,,2,10,brightness,readingArea,realistic,75,2023-03-31_10h59.09.344,tripletExp_regina_11082022,2022.2.4,119.80371210346816,
7,10,13,2,0.111111111111111,1.0,2,0.694444444444444,1.0,2,0.111111111111111,3.10526315789474,ReadingArea_rsl2-rcl11-esl100-rsm2-rcm69-esm100-rsr2-rcr11-esr310,exr/ReadingArea_rsl2-rcl11-esl100-rsm2-rcm69-esm100-rsr2-rcr11-esr310.exr,ReadingArea_rsl2-rcl11-esl100-rsm2-rcm69-esm100-rsr2-rcr11-esr310.npz,,,,,0,110,110,446,,right,red,4.39,1122.7558438777924,1123.2499039173126,,2,,2,10,brightness,readingArea,realistic,75,2023-03-31_10h59.09.344,tripletExp_regina_11082022,2022.2.4,119.80371210346816,
10,3,11,2,0.694444444444444,1.0,2,0.444444444444444,0.298245614035088,2,1.0,1.0,ReadingArea_rsl2-rcl69-esl100-rsm2-rcm44-esm29-rsr2-rcr100-esr100,exr/ReadingArea_rsl2-rcl69-esl100-rsm2-rcm44-esm29-rsr2-rcr100-esr100.exr,ReadingArea_rsl2-rcl69-esl100-rsm2-rcm44-esm29-rsr2-rcr100-esr100.npz,,,,,0,111,111,485,,left,green,4.02,1128.4681549072266,1129.0270249843595,,2,,2,10,brightness,readingArea,realistic,75,2023-03-31_10h59.09.344,tripletExp_regina_11082022,2022.2.4,119.80371210346816,
11,12,2,2,1.0,1.0,2,0.027777777777778,3.10526315789474,2,0.25,0.298245614035088,ReadingArea_rsl2-rcl100-esl100-rsm2-rcm2-esm310-rsr2-rcr25-esr29,exr/ReadingArea_rsl2-rcl100-esl100-rsm2-rcm2-esm310-rsr2-rcr25-esr29.exr,ReadingArea_rsl2-rcl100-esl100-rsm2-rcm2-esm310-rsr2-rcr25-esr29.npz,,,,,0,112,112,423,,right,red,4.55,1134.2604188919067,1134.8244338035583,,2,,2,10,brightness,readingArea,realistic,75,2023-03-31_10h59.09.344,tripletExp_regina_11082022,2022.2.4,119.80371210346816,
4,12,6,2,0.694444444444444,0.298245614035088,2,0.027777777777778,3.10526315789474,2,0.027777777777778,1.0,ReadingArea_rsl2-rcl69-esl29-rsm2-rcm2-esm310-rsr2-rcr2-esr100,exr/ReadingArea_rsl2-rcl69-esl29-rsm2-rcm2-esm310-rsr2-rcr2-esr100.exr,ReadingArea_rsl2-rcl69-esl29-rsm2-rcm2-esm310-rsr2-rcr2-esr100.npz,,,,,0,113,113,99,,right,red,4.48,1140.0319328308103,1140.5150690078735,,2,,2,10,brightness,readingArea,realistic,75,2023-03-31_10h59.09.344,tripletExp_regina_11082022,2022.2.4,119.80371210346816,
6,7,3,2,0.027777777777778,1.0,2,0.111111111111111,1.0,2,0.444444444444444,0.298245614035088,ReadingArea_rsl2-rcl2-esl100-rsm2-rcm11-esm100-rsr2-rcr44-esr29,exr/ReadingArea_rsl2-rcl2-esl100-rsm2-rcm11-esm100-rsr2-rcr44-esr29.exr,ReadingArea_rsl2-rcl2-esl100-rsm2-rcm11-esm100-rsr2-rcr44-esr29.npz,,,,,0,114,114,47,,left,green,4.82,1145.7362279891968,1146.2250089645386,,2,,2,10,brightness,readingArea,realistic,75,2023-03-31_10h59.09.344,tripletExp_regina_11082022,2022.2.4,119.80371210346816,
1,8,12,2,0.111111111111111,0.298245614035088,2,0.25,1.0,2,0.027777777777778,3.10526315789474,ReadingArea_rsl2-rcl11-esl29-rsm2-rcm25-esm100-rsr2-rcr2-esr310,exr/ReadingArea_rsl2-rcl11-esl29-rsm2-rcm25-esm100-rsr2-rcr2-esr310.exr,ReadingArea_rsl2-rcl11-esl29-rsm2-rcm25-esm100-rsr2-rcr2-esr310.npz,,,,,0,115,115,156,,right,red,4.75,1151.4529190063477,1151.9504499435425,,2,,2,10,brightness,readingArea,realistic,75,2023-03-31_10h59.09.344,tripletExp_regina_11082022,2022.2.4,119.80371210346816,
5,4,1,2,1.0,0.298245614035088,2,0.694444444444444,0.298245614035088,2,0.111111111111111,0.298245614035088,ReadingArea_rsl2-rcl100-esl29-rsm2-rcm69-esm29-rsr2-rcr11-esr29,exr/ReadingArea_rsl2-rcl100-esl29-rsm2-rcm69-esm29-rsr2-rcr11-esr29.exr,ReadingArea_rsl2-rcl100-esl29-rsm2-rcm69-esm29-rsr2-rcr11-esr29.npz,,,,,0,116,116,560,,left,green,1.37,1153.652898788452,1154.1295399665833,,2,,2,10,brightness,readingArea,realistic,75,2023-03-31_10h59.09.344,tripletExp_regina_11082022,2022.2.4,119.80371210346816,
4,13,2,2,0.694444444444444,0.298245614035088,2,0.111111111111111,3.10526315789474,2,0.25,0.298245614035088,ReadingArea_rsl2-rcl69-esl29-rsm2-rcm11-esm310-rsr2-rcr25-esr29,exr/ReadingArea_rsl2-rcl69-esl29-rsm2-rcm11-esm310-rsr2-rcr25-esr29.exr,ReadingArea_rsl2-rcl69-esl29-rsm2-rcm11-esm310-rsr2-rcr25-esr29.npz,,,,,0,117,117,592,,right,red,3.85,1159.3455679416656,1159.8285269737244,,2,,2,10,brightness,readingArea,realistic,75,2023-03-31_10h59.09.344,tripletExp_regina_11082022,2022.2.4,119.80371210346816,
13,10,11,2,0.111111111111111,3.10526315789474,2,0.694444444444444,1.0,2,1.0,1.0,ReadingArea_rsl2-rcl11-esl310-rsm2-rcm69-esm100-rsr2-rcr100-esr100,exr/ReadingArea_rsl2-rcl11-esl310-rsm2-rcm69-esm100-rsr2-rcr100-esr100.exr,ReadingArea_rsl2-rcl11-esl310-rsm2-rcm69-esm100-rsr2-rcr100-esr100.npz,,,,,0,118,118,320,,right,red,4.46,1165.076505899429,1165.5867879390717,,2,,2,10,brightness,readingArea,realistic,75,2023-03-31_10h59.09.344,tripletExp_regina_11082022,2022.2.4,119.80371210346816,
12,6,7,2,0.027777777777778,3.10526315789474,2,0.027777777777778,1.0,2,0.111111111111111,1.0,ReadingArea_rsl2-rcl2-esl310-rsm2-rcm2-esm100-rsr2-rcr11-esr100,exr/ReadingArea_rsl2-rcl2-esl310-rsm2-rcm2-esm100-rsr2-rcr11-esr100.exr,ReadingArea_rsl2-rcl2-esl310-rsm2-rcm2-esm100-rsr2-rcr11-esr100.npz,,,,,0,119,119,308,,left,green,1.38,1167.2873618602753,1167.766194820404,,2,,2,10,brightness,readingArea,realistic,75,2023-03-31_10h59.09.344,tripletExp_regina_11082022,2022.2.4,119.80371210346816,
4,1,13,2,0.694444444444444,0.298245614035088,2,0.111111111111111,0.298245614035088,2,0.111111111111111,3.10526315789474,ReadingArea_rsl2-rcl69-esl29-rsm2-rcm11-esm29-rsr2-rcr11-esr310,exr/ReadingArea_rsl2-rcl69-esl29-rsm2-rcm11-esm29-rsr2-rcr11-esr310.exr,ReadingArea_rsl2-rcl69-esl29-rsm2-rcm11-esm29-rsr2-rcr11-esr310.npz,,,,,0,120,120,565,,right,red,4.27,1172.9989078044891,1173.4352769851685,,2,,2,10,brightness,readingArea,realistic,75,2023-03-31_10h59.09.344,tripletExp_regina_11082022,2022.2.4,119.80371210346816,
6,10,11,2,0.027777777777778,1.0,2,0.694444444444444,1.0,2,1.0,1.0,ReadingArea_rsl2-rcl2-esl100-rsm2-rcm69-esm100-rsr2-rcr100-esr100,exr/ReadingArea_rsl2-rcl2-esl100-rsm2-rcm69-esm100-rsr2-rcr100-esr100.exr,ReadingArea_rsl2-rcl2-esl100-rsm2-rcm69-esm100-rsr2-rcr100-esr100.npz,,,,,0,121,121,116,,right,red,4.09,1178.6729578971865,1179.1666297912598,,2,,2,10,brightness,readingArea,realistic,75,2023-03-31_10h59.09.344,tripletExp_regina_11082022,2022.2.4,119.80371210346816,
14,3,4,2,0.25,3.10526315789474,2,0.444444444444444,0.298245614035088,2,0.694444444444444,0.298245614035088,ReadingArea_rsl2-rcl25-esl310-rsm2-rcm44-esm29-rsr2-rcr69-esr29,exr/ReadingArea_rsl2-rcl25-esl310-rsm2-rcm44-esm29-rsr2-rcr69-esr29.exr,ReadingArea_rsl2-rcl25-esl310-rsm2-rcm44-esm29-rsr2-rcr69-esr29.npz,,,,,0,122,122,127,,right,red,2.92,1182.6437849998474,1183.152161836624,,2,,2,10,brightness,readingArea,realistic,75,2023-03-31_10h59.09.344,tripletExp_regina_11082022,2022.2.4,119.80371210346816,
0,9,6,2,0.027777777777778,0.298245614035088,2,0.444444444444444,1.0,2,0.027777777777778,1.0,ReadingArea_rsl2-rcl2-esl29-rsm2-rcm44-esm100-rsr2-rcr2-esr100,exr/ReadingArea_rsl2-rcl2-esl29-rsm2-rcm44-esm100-rsr2-rcr2-esr100.exr,ReadingArea_rsl2-rcl2-esl29-rsm2-rcm44-esm100-rsr2-rcr2-esr100.npz,,,,,0,123,123,365,,right,red,4.46,1188.3803157806396,1188.8612987995148,,2,,2,10,brightness,readingArea,realistic,75,2023-03-31_10h59.09.344,tripletExp_regina_11082022,2022.2.4,119.80371210346816,
11,7,8,2,1.0,1.0,2,0.111111111111111,1.0,2,0.25,1.0,ReadingArea_rsl2-rcl100-esl100-rsm2-rcm11-esm100-rsr2-rcr25-esr100,exr/ReadingArea_rsl2-rcl100-esl100-rsm2-rcm11-esm100-rsr2-rcr25-esr100.exr,ReadingArea_rsl2-rcl100-esl100-rsm2-rcm11-esm100-rsr2-rcr25-esr100.npz,,,,,0,124,124,37,,right,red,2.43,1192.3247179985046,1192.873382806778,,2,,2,10,brightness,readingArea,realistic,75,2023-03-31_10h59.09.344,tripletExp_regina_11082022,2022.2.4,119.80371210346816,
0,12,7,2,0.027777777777778,0.298245614035088,2,0.027777777777778,3.10526315789474,2,0.111111111111111,1.0,ReadingArea_rsl2-rcl2-esl29-rsm2-rcm2-esm310-rsr2-rcr11-esr100,exr/ReadingArea_rsl2-rcl2-esl29-rsm2-rcm2-esm310-rsr2-rcr11-esr100.exr,ReadingArea_rsl2-rcl2-esl29-rsm2-rcm2-esm310-rsr2-rcr11-esr100.npz,,,,,0,125,125,481,,right,red,2.8,1196.3466489315033,1196.8420808315277,,2,,2,10,brightness,readingArea,realistic,75,2023-03-31_10h59.09.344,tripletExp_regina_11082022,2022.2.4,119.80371210346816,
5,11,14,2,1.0,0.298245614035088,2,1.0,1.0,2,0.25,3.10526315789474,ReadingArea_rsl2-rcl100-esl29-rsm2-rcm100-esm100-rsr2-rcr25-esr310,exr/ReadingArea_rsl2-rcl100-esl29-rsm2-rcm100-esm100-rsr2-rcr25-esr310.exr,ReadingArea_rsl2-rcl100-esl29-rsm2-rcm100-esm100-rsr2-rcr25-esr310.npz,,,,,0,126,126,258,,right,red,2.68,1200.3128190040588,1200.7908749580383,,2,,2,10,brightness,readingArea,realistic,75,2023-03-31_10h59.09.344,tripletExp_regina_11082022,2022.2.4,119.80371210346816,
10,8,11,2,0.694444444444444,1.0,2,0.25,1.0,2,1.0,1.0,ReadingArea_rsl2-rcl69-esl100-rsm2-rcm25-esm100-rsr2-rcr100-esr100,exr/ReadingArea_rsl2-rcl69-esl100-rsm2-rcm25-esm100-rsr2-rcr100-esr100.exr,ReadingArea_rsl2-rcl69-esl100-rsm2-rcm25-esm100-rsr2-rcr100-esr100.npz,,,,,0,127,127,578,,left,green,2.93,1204.24853181839,1204.731997013092,,2,,2,10,brightness,readingArea,realistic,75,2023-03-31_10h59.09.344,tripletExp_regina_11082022,2022.2.4,119.80371210346816,
4,2,5,2,0.694444444444444,0.298245614035088,2,0.25,0.298245614035088,2,1.0,0.298245614035088,ReadingArea_rsl2-rcl69-esl29-rsm2-rcm25-esm29-rsr2-rcr100-esr29,exr/ReadingArea_rsl2-rcl69-esl29-rsm2-rcm25-esm29-rsr2-rcr100-esr29.exr,ReadingArea_rsl2-rcl69-esl29-rsm2-rcm25-esm29-rsr2-rcr100-esr29.npz,,,,,0,128,128,101,,left,green,3.99,1209.9611999988556,1210.4672977924347,,2,,2,10,brightness,readingArea,realistic,75,2023-03-31_10h59.09.344,tripletExp_regina_11082022,2022.2.4,119.80371210346816,
7,10,5,2,0.111111111111111,1.0,2,0.694444444444444,1.0,2,1.0,0.298245614035088,ReadingArea_rsl2-rcl11-esl100-rsm2-rcm69-esm100-rsr2-rcr100-esr29,exr/ReadingArea_rsl2-rcl11-esl100-rsm2-rcm69-esm100-rsr2-rcr100-esr29.exr,ReadingArea_rsl2-rcl11-esl100-rsm2-rcm69-esm100-rsr2-rcr100-esr29.npz,,,,,0,129,129,395,,right,red,4.57,1215.6877579689026,1216.1767868995669,,2,,2,10,brightness,readingArea,realistic,75,2023-03-31_10h59.09.344,tripletExp_regina_11082022,2022.2.4,119.80371210346816,
7,8,3,2,0.111111111111111,1.0,2,0.25,1.0,2,0.444444444444444,0.298245614035088,ReadingArea_rsl2-rcl11-esl100-rsm2-rcm25-esm100-rsr2-rcr44-esr29,exr/ReadingArea_rsl2-rcl11-esl100-rsm2-rcm25-esm100-rsr2-rcr44-esr29.exr,ReadingArea_rsl2-rcl11-esl100-rsm2-rcm25-esm100-rsr2-rcr44-esr29.npz,,,,,0,130,130,459,,left,green,4.36,1221.4157979488373,1221.9186868667605,,2,,2,10,brightness,readingArea,realistic,75,2023-03-31_10h59.09.344,tripletExp_regina_11082022,2022.2.4,119.80371210346816,
8,14,3,2,0.25,1.0,2,0.25,3.10526315789474,2,0.444444444444444,0.298245614035088,ReadingArea_rsl2-rcl25-esl100-rsm2-rcm25-esm310-rsr2-rcr44-esr29,exr/ReadingArea_rsl2-rcl25-esl100-rsm2-rcm25-esm310-rsr2-rcr44-esr29.exr,ReadingArea_rsl2-rcl25-esl100-rsm2-rcm25-esm310-rsr2-rcr44-esr29.npz,,,,,0,131,131,503,,right,red,4.65,1227.1543679237366,,,2,,2,10,brightness,readingArea,realistic,75,2023-03-31_10h59.09.344,tripletExp_regina_11082022,2022.2.4,119.80371210346816,
7,14,11,2,0.111111111111111,1.0,2,0.25,3.10526315789474,2,1.0,1.0,ReadingArea_rsl2-rcl11-esl100-rsm2-rcm25-esm310-rsr2-rcr100-esr100,exr/ReadingArea_rsl2-rcl11-esl100-rsm2-rcm25-esm310-rsr2-rcr100-esr100.exr,ReadingArea_rsl2-rcl11-esl100-rsm2-rcm25-esm310-rsr2-rcr100-esr100.npz,,,,,0,132,132,252,,right,red,1.2,1229.330825805664,1229.9386768341064,,2,,2,10,brightness,readingArea,realistic,75,2023-03-31_10h59.09.344,tripletExp_regina_11082022,2022.2.4,119.80371210346816,
6,11,14,2,0.027777777777778,1.0,2,1.0,1.0,2,0.25,3.10526315789474,ReadingArea_rsl2-rcl2-esl100-rsm2-rcm100-esm100-rsr2-rcr25-esr310,exr/ReadingArea_rsl2-rcl2-esl100-rsm2-rcm100-esm100-rsr2-rcr25-esr310.exr,ReadingArea_rsl2-rcl2-esl100-rsm2-rcm100-esm100-rsr2-rcr25-esr310.npz,,,,,0,133,133,262,,right,red,4.02,1235.1925449371338,1235.8002729415894,,2,,2,10,brightness,readingArea,realistic,75,2023-03-31_10h59.09.344,tripletExp_regina_11082022,2022.2.4,119.80371210346816,
2,9,10,2,0.25,0.298245614035088,2,0.444444444444444,1.0,2,0.694444444444444,1.0,ReadingArea_rsl2-rcl25-esl29-rsm2-rcm44-esm100-rsr2-rcr69-esr100,exr/ReadingArea_rsl2-rcl25-esl29-rsm2-rcm44-esm100-rsr2-rcr69-esr100.exr,ReadingArea_rsl2-rcl25-esl29-rsm2-rcm44-esm100-rsr2-rcr69-esr100.npz,,,,,0,134,134,117,,right,red,2.7,1239.2513709068298,1239.7279698848724,,2,,2,10,brightness,readingArea,realistic,75,2023-03-31_10h59.09.344,tripletExp_regina_11082022,2022.2.4,119.80371210346816,
5,4,10,2,1.0,0.298245614035088,2,0.694444444444444,0.298245614035088,2,0.694444444444444,1.0,ReadingArea_rsl2-rcl100-esl29-rsm2-rcm69-esm29-rsr2-rcr69-esr100,exr/ReadingArea_rsl2-rcl100-esl29-rsm2-rcm69-esm29-rsr2-rcr69-esr100.exr,ReadingArea_rsl2-rcl100-esl29-rsm2-rcm69-esm29-rsr2-rcr69-esr100.npz,,,,,0,135,135,536,,right,red,2.39,1243.1997888088226,1243.692545890808,,2,,2,10,brightness,readingArea,realistic,75,2023-03-31_10h59.09.344,tripletExp_regina_11082022,2022.2.4,119.80371210346816,
4,2,13,2,0.694444444444444,0.298245614035088,2,0.25,0.298245614035088,2,0.111111111111111,3.10526315789474,ReadingArea_rsl2-rcl69-esl29-rsm2-rcm25-esm29-rsr2-rcr11-esr310,exr/ReadingArea_rsl2-rcl69-esl29-rsm2-rcm25-esm29-rsr2-rcr11-esr310.exr,ReadingArea_rsl2-rcl69-esl29-rsm2-rcm25-esm29-rsr2-rcr11-esr310.npz,,,,,0,136,136,304,,left,green,2.76,1247.1585400104525,1247.6272609233856,,2,,2,10,brightness,readingArea,realistic,75,2023-03-31_10h59.09.344,tripletExp_regina_11082022,2022.2.4,119.80371210346816,
14,6,2,2,0.25,3.10526315789474,2,0.027777777777778,1.0,2,0.25,0.298245614035088,ReadingArea_rsl2-rcl25-esl310-rsm2-rcm2-esm100-rsr2-rcr25-esr29,exr/ReadingArea_rsl2-rcl25-esl310-rsm2-rcm2-esm100-rsr2-rcr25-esr29.exr,ReadingArea_rsl2-rcl25-esl310-rsm2-rcm2-esm100-rsr2-rcr25-esr29.npz,,,,,0,137,137,272,,right,red,2.93,1251.0838170051577,,,2,,2,10,brightness,readingArea,realistic,75,2023-03-31_10h59.09.344,tripletExp_regina_11082022,2022.2.4,119.80371210346816,
6,0,10,2,0.027777777777778,1.0,2,0.027777777777778,0.298245614035088,2,0.694444444444444,1.0,ReadingArea_rsl2-rcl2-esl100-rsm2-rcm2-esm29-rsr2-rcr69-esr100,exr/ReadingArea_rsl2-rcl2-esl100-rsm2-rcm2-esm29-rsr2-rcr69-esr100.exr,ReadingArea_rsl2-rcl2-esl100-rsm2-rcm2-esm29-rsr2-rcr69-esr100.npz,,,,,0,138,138,532,,left,green,2.45,1255.0680170059204,1255.5727758407593,,2,,2,10,brightness,readingArea,realistic,75,2023-03-31_10h59.09.344,tripletExp_regina_11082022,2022.2.4,119.80371210346816,
3,8,7,2,0.444444444444444,0.298245614035088,2,0.25,1.0,2,0.111111111111111,1.0,ReadingArea_rsl2-rcl44-esl29-rsm2-rcm25-esm100-rsr2-rcr11-esr100,exr/ReadingArea_rsl2-rcl44-esl29-rsm2-rcm25-esm100-rsr2-rcr11-esr100.exr,ReadingArea_rsl2-rcl44-esl29-rsm2-rcm25-esm100-rsr2-rcr11-esr100.npz,,,,,0,139,139,484,,right,red,3.07,1259.059226989746,1259.5279908180237,,2,,2,10,brightness,readingArea,realistic,75,2023-03-31_10h59.09.344,tripletExp_regina_11082022,2022.2.4,119.80371210346816,
14,5,11,2,0.25,3.10526315789474,2,1.0,0.298245614035088,2,1.0,1.0,ReadingArea_rsl2-rcl25-esl310-rsm2-rcm100-esm29-rsr2-rcr100-esr100,exr/ReadingArea_rsl2-rcl25-esl310-rsm2-rcm100-esm29-rsr2-rcr100-esr100.exr,ReadingArea_rsl2-rcl25-esl310-rsm2-rcm100-esm29-rsr2-rcr100-esr100.npz,,,,,0,140,140,161,,left,green,4.7,1264.761297941208,1265.3179988861084,,2,,2,10,brightness,readingArea,realistic,75,2023-03-31_10h59.09.344,tripletExp_regina_11082022,2022.2.4,119.80371210346816,
11,5,2,2,1.0,1.0,2,1.0,0.298245614035088,2,0.25,0.298245614035088,ReadingArea_rsl2-rcl100-esl100-rsm2-rcm100-esm29-rsr2-rcr25-esr29,exr/ReadingArea_rsl2-rcl100-esl100-rsm2-rcm100-esm29-rsr2-rcr25-esr29.exr,ReadingArea_rsl2-rcl100-esl100-rsm2-rcm100-esm29-rsr2-rcr25-esr29.npz,,,,,0,141,141,596,,right,red,2.76,1268.7738678455353,1269.2623138427734,,2,,2,10,brightness,readingArea,realistic,75,2023-03-31_10h59.09.344,tripletExp_regina_11082022,2022.2.4,119.80371210346816,
10,11,0,2,0.694444444444444,1.0,2,1.0,1.0,2,0.027777777777778,0.298245614035088,ReadingArea_rsl2-rcl69-esl100-rsm2-rcm100-esm100-rsr2-rcr2-esr29,exr/ReadingArea_rsl2-rcl69-esl100-rsm2-rcm100-esm100-rsr2-rcr2-esr29.exr,ReadingArea_rsl2-rcl69-esl100-rsm2-rcm100-esm100-rsr2-rcr2-esr29.npz,,,,,0,142,142,58,,left,green,1.53,1270.951806783676,1271.483622789383,,2,,2,10,brightness,readingArea,realistic,75,2023-03-31_10h59.09.344,tripletExp_regina_11082022,2022.2.4,119.80371210346816,
8,6,5,2,0.25,1.0,2,0.027777777777778,1.0,2,1.0,0.298245614035088,ReadingArea_rsl2-rcl25-esl100-rsm2-rcm2-esm100-rsr2-rcr100-esr29,exr/ReadingArea_rsl2-rcl25-esl100-rsm2-rcm2-esm100-rsr2-rcr100-esr29.exr,ReadingArea_rsl2-rcl25-esl100-rsm2-rcm2-esm100-rsr2-rcr100-esr29.npz,,,,,0,143,143,241,,left,green,4.65,1276.6947619915009,1277.1811978816986,,2,,2,10,brightness,readingArea,realistic,75,2023-03-31_10h59.09.344,tripletExp_regina_11082022,2022.2.4,119.80371210346816,
0,14,6,2,0.027777777777778,0.298245614035088,2,0.25,3.10526315789474,2,0.027777777777778,1.0,ReadingArea_rsl2-rcl2-esl29-rsm2-rcm25-esm310-rsr2-rcr2-esr100,exr/ReadingArea_rsl2-rcl2-esl29-rsm2-rcm25-esm310-rsr2-rcr2-esr100.exr,ReadingArea_rsl2-rcl2-esl29-rsm2-rcm25-esm310-rsr2-rcr2-esr100.npz,,,,,0,144,144,499,,right,red,2.22,1280.643653869629,1281.158704996109,,2,,2,10,brightness,readingArea,realistic,75,2023-03-31_10h59.09.344,tripletExp_regina_11082022,2022.2.4,119.80371210346816,
0,8,6,2,0.027777777777778,0.298245614035088,2,0.25,1.0,2,0.027777777777778,1.0,ReadingArea_rsl2-rcl2-esl29-rsm2-rcm25-esm100-rsr2-rcr2-esr100,exr/ReadingArea_rsl2-rcl2-esl29-rsm2-rcm25-esm100-rsr2-rcr2-esr100.exr,ReadingArea_rsl2-rcl2-esl29-rsm2-rcm25-esm100-rsr2-rcr2-esr100.npz,,,,,0,145,145,92,,right,red,2.85,1284.6177818775177,1285.0959730148315,,2,,2,10,brightness,readingArea,realistic,75,2023-03-31_10h59.09.344,tripletExp_regina_11082022,2022.2.4,119.80371210346816,
14,2,6,2,0.25,3.10526315789474,2,0.25,0.298245614035088,2,0.027777777777778,1.0,ReadingArea_rsl2-rcl25-esl310-rsm2-rcm25-esm29-rsr2-rcr2-esr100,exr/ReadingArea_rsl2-rcl25-esl310-rsm2-rcm25-esm29-rsr2-rcr2-esr100.exr,ReadingArea_rsl2-rcl25-esl310-rsm2-rcm25-esm29-rsr2-rcr2-esr100.npz,,,,,0,146,146,350,,right,red,2.34,1288.5554819107056,1289.0447239875791,,2,,2,10,brightness,readingArea,realistic,75,2023-03-31_10h59.09.344,tripletExp_regina_11082022,2022.2.4,119.80371210346816,
2,11,8,2,0.25,0.298245614035088,2,1.0,1.0,2,0.25,1.0,ReadingArea_rsl2-rcl25-esl29-rsm2-rcm100-esm100-rsr2-rcr25-esr100,exr/ReadingArea_rsl2-rcl25-esl29-rsm2-rcm100-esm100-rsr2-rcr25-esr100.exr,ReadingArea_rsl2-rcl25-esl29-rsm2-rcm100-esm100-rsr2-rcr25-esr100.npz,,,,,0,147,147,364,,right,red,1.15,1290.7443459033966,1291.1761198043823,,2,,2,10,brightness,readingArea,realistic,75,2023-03-31_10h59.09.344,tripletExp_regina_11082022,2022.2.4,119.80371210346816,
11,0,6,2,1.0,1.0,2,0.027777777777778,0.298245614035088,2,0.027777777777778,1.0,ReadingArea_rsl2-rcl100-esl100-rsm2-rcm2-esm29-rsr2-rcr2-esr100,exr/ReadingArea_rsl2-rcl100-esl100-rsm2-rcm2-esm29-rsr2-rcr2-esr100.exr,ReadingArea_rsl2-rcl100-esl100-rsm2-rcm2-esm29-rsr2-rcr2-esr100.npz,,,,,0,148,148,586,,right,red,1.81,1294.638897895813,1295.180951833725,,2,,2,10,brightness,readingArea,realistic,75,2023-03-31_10h59.09.344,tripletExp_regina_11082022,2022.2.4,119.80371210346816,
13,12,11,2,0.111111111111111,3.10526315789474,2,0.027777777777778,3.10526315789474,2,1.0,1.0,ReadingArea_rsl2-rcl11-esl310-rsm2-rcm2-esm310-rsr2-rcr100-esr100,exr/ReadingArea_rsl2-rcl11-esl310-rsm2-rcm2-esm310-rsr2-rcr100-esr100.exr,ReadingArea_rsl2-rcl11-esl310-rsm2-rcm2-esm310-rsr2-rcr100-esr100.npz,,,,,0,149,149,441,,left,green,2.26,1298.6464548110962,1298.8479068279266,,2,,2,10,brightness,readingArea,realistic,75,2023-03-31_10h59.09.344,tripletExp_regina_11082022,2022.2.4,119.80371210346816,
14,2,7,2,0.25,3.10526315789474,2,0.25,0.298245614035088,2,0.111111111111111,1.0,ReadingArea_rsl2-rcl25-esl310-rsm2-rcm25-esm29-rsr2-rcr11-esr100,exr/ReadingArea_rsl2-rcl25-esl310-rsm2-rcm25-esm29-rsr2-rcr11-esr100.exr,ReadingArea_rsl2-rcl25-esl310-rsm2-rcm25-esm29-rsr2-rcr11-esr100.npz,,,,,0,150,150,569,,right,red,2.18,1327.6467499732971,1328.1348049640656,,3,,2,10,brightness,readingArea,realistic,75,2023-03-31_10h59.09.344,tripletExp_regina_11082022,2022.2.4,119.80371210346816,
2,1,13,2,0.25,0.298245614035088,2,0.111111111111111,0.298245614035088,2,0.111111111111111,3.10526315789474,ReadingArea_rsl2-rcl25-esl29-rsm2-rcm11-esm29-rsr2-rcr11-esr310,exr/ReadingArea_rsl2-rcl25-esl29-rsm2-rcm11-esm29-rsr2-rcr11-esr310.exr,ReadingArea_rsl2-rcl25-esl29-rsm2-rcm11-esm29-rsr2-rcr11-esr310.npz,,,,,0,151,151,290,,left,green,1.56,1329.8325009346008,1330.3205769062042,,3,,2,10,brightness,readingArea,realistic,75,2023-03-31_10h59.09.344,tripletExp_regina_11082022,2022.2.4,119.80371210346816,
3,14,12,2,0.444444444444444,0.298245614035088,2,0.25,3.10526315789474,2,0.027777777777778,3.10526315789474,ReadingArea_rsl2-rcl44-esl29-rsm2-rcm25-esm310-rsr2-rcr2-esr310,exr/ReadingArea_rsl2-rcl44-esl29-rsm2-rcm25-esm310-rsr2-rcr2-esr310.exr,ReadingArea_rsl2-rcl44-esl29-rsm2-rcm25-esm310-rsr2-rcr2-esr310.npz,,,,,0,152,152,336,,right,red,2.2,1333.7869198322296,1334.6312198638916,,3,,2,10,brightness,readingArea,realistic,75,2023-03-31_10h59.09.344,tripletExp_regina_11082022,2022.2.4,119.80371210346816,
8,3,12,2,0.25,1.0,2,0.444444444444444,0.298245614035088,2,0.027777777777778,3.10526315789474,ReadingArea_rsl2-rcl25-esl100-rsm2-rcm44-esm29-rsr2-rcr2-esr310,exr/ReadingArea_rsl2-rcl25-esl100-rsm2-rcm44-esm29-rsr2-rcr2-esr310.exr,ReadingArea_rsl2-rcl25-esl100-rsm2-rcm44-esm29-rsr2-rcr2-esr310.npz,,,,,0,153,153,22,,left,green,2.84,1338.0921428203585,1338.5696079730988,,3,,2,10,brightness,readingArea,realistic,75,2023-03-31_10h59.09.344,tripletExp_regina_11082022,2022.2.4,119.80371210346816,
4,2,0,2,0.694444444444444,0.298245614035088,2,0.25,0.298245614035088,2,0.027777777777778,0.298245614035088,ReadingArea_rsl2-rcl69-esl29-rsm2-rcm25-esm29-rsr2-rcr2-esr29,exr/ReadingArea_rsl2-rcl69-esl29-rsm2-rcm25-esm29-rsr2-rcr2-esr29.exr,ReadingArea_rsl2-rcl69-esl29-rsm2-rcm25-esm29-rsr2-rcr2-esr29.npz,,,,,0,154,154,71,,left,green,2.62,1342.041699886322,1342.5383639335632,,3,,2,10,brightness,readingArea,realistic,75,2023-03-31_10h59.09.344,tripletExp_regina_11082022,2022.2.4,119.80371210346816,
12,3,5,2,0.027777777777778,3.10526315789474,2,0.444444444444444,0.298245614035088,2,1.0,0.298245614035088,ReadingArea_rsl2-rcl2-esl310-rsm2-rcm44-esm29-rsr2-rcr100-esr29,exr/ReadingArea_rsl2-rcl2-esl310-rsm2-rcm44-esm29-rsr2-rcr100-esr29.exr,ReadingArea_rsl2-rcl2-esl310-rsm2-rcm44-esm29-rsr2-rcr100-esr29.npz,,,,,0,155,155,188,,right,red,2.06,1346.0082728862762,1346.4977169036863,,3,,2,10,brightness,readingArea,realistic,75,2023-03-31_10h59.09.344,tripletExp_regina_11082022,2022.2.4,119.80371210346816,
11,12,4,2,1.0,1.0,2,0.027777777777778,3.10526315789474,2,0.694444444444444,0.298245614035088,ReadingArea_rsl2-rcl100-esl100-rsm2-rcm2-esm310-rsr2-rcr69-esr29,exr/ReadingArea_rsl2-rcl100-esl100-rsm2-rcm2-esm310-rsr2-rcr69-esr29.exr,ReadingArea_rsl2-rcl100-esl100-rsm2-rcm2-esm310-rsr2-rcr69-esr29.npz,,,,,0,156,156,250,,left,green,4.46,1351.736712932587,1352.2316989898682,,3,,2,10,brightness,readingArea,realistic,75,2023-03-31_10h59.09.344,tripletExp_regina_11082022,2022.2.4,119.80371210346816,
5,0,6,2,1.0,0.298245614035088,2,0.027777777777778,0.298245614035088,2,0.027777777777778,1.0,ReadingArea_rsl2-rcl100-esl29-rsm2-rcm2-esm29-rsr2-rcr2-esr100,exr/ReadingArea_rsl2-rcl100-esl29-rsm2-rcm2-esm29-rsr2-rcr2-esr100.exr,ReadingArea_rsl2-rcl100-esl29-rsm2-rcm2-esm29-rsr2-rcr2-esr100.npz,,,,,0,157,157,1,,right,red,3.06,1355.693298816681,1356.167620897293,,3,,2,10,brightness,readingArea,realistic,75,2023-03-31_10h59.09.344,tripletExp_regina_11082022,2022.2.4,119.80371210346816,
7,11,13,2,0.111111111111111,1.0,2,1.0,1.0,2,0.111111111111111,3.10526315789474,ReadingArea_rsl2-rcl11-esl100-rsm2-rcm100-esm100-rsr2-rcr11-esr310,exr/ReadingArea_rsl2-rcl11-esl100-rsm2-rcm100-esm100-rsr2-rcr11-esr310.exr,ReadingArea_rsl2-rcl11-esl100-rsm2-rcm100-esm100-rsr2-rcr11-esr310.npz,,,,,0,158,158,76,,right,red,1.4,1357.8696489334106,1358.4003357887268,,3,,2,10,brightness,readingArea,realistic,75,2023-03-31_10h59.09.344,tripletExp_regina_11082022,2022.2.4,119.80371210346816,
9,11,6,2,0.444444444444444,1.0,2,1.0,1.0,2,0.027777777777778,1.0,ReadingArea_rsl2-rcl44-esl100-rsm2-rcm100-esm100-rsr2-rcr2-esr100,exr/ReadingArea_rsl2-rcl44-esl100-rsm2-rcm100-esm100-rsr2-rcr2-esr100.exr,ReadingArea_rsl2-rcl44-esl100-rsm2-rcm100-esm100-rsr2-rcr2-esr100.npz,,,,,0,159,159,404,,left,green,1.48,1360.091571807861,1360.5699470043182,,3,,2,10,brightness,readingArea,realistic,75,2023-03-31_10h59.09.344,tripletExp_regina_11082022,2022.2.4,119.80371210346816,
3,0,2,2,0.444444444444444,0.298245614035088,2,0.027777777777778,0.298245614035088,2,0.25,0.298245614035088,ReadingArea_rsl2-rcl44-esl29-rsm2-rcm2-esm29-rsr2-rcr25-esr29,exr/ReadingArea_rsl2-rcl44-esl29-rsm2-rcm2-esm29-rsr2-rcr25-esr29.exr,ReadingArea_rsl2-rcl44-esl29-rsm2-rcm2-esm29-rsr2-rcr25-esr29.npz,,,,,0,160,160,334,,right,red,2.78,1364.0484578609469,1364.5661058425903,,3,,2,10,brightness,readingArea,realistic,75,2023-03-31_10h59.09.344,tripletExp_regina_11082022,2022.2.4,119.80371210346816,
3,0,8,2,0.444444444444444,0.298245614035088,2,0.027777777777778,0.298245614035088,2,0.25,1.0,ReadingArea_rsl2-rcl44-esl29-rsm2-rcm2-esm29-rsr2-rcr25-esr100,exr/ReadingArea_rsl2-rcl44-esl29-rsm2-rcm2-esm29-rsr2-rcr25-esr100.exr,ReadingArea_rsl2-rcl44-esl29-rsm2-rcm2-esm29-rsr2-rcr25-esr100.npz,,,,,0,161,161,510,,left,green,1.73,1366.2595119476318,1366.7284688949585,,3,,2,10,brightness,readingArea,realistic,75,2023-03-31_10h59.09.344,tripletExp_regina_11082022,2022.2.4,119.80371210346816,
8,0,6,2,0.25,1.0,2,0.027777777777778,0.298245614035088,2,0.027777777777778,1.0,ReadingArea_rsl2-rcl25-esl100-rsm2-rcm2-esm29-rsr2-rcr2-esr100,exr/ReadingArea_rsl2-rcl25-esl100-rsm2-rcm2-esm29-rsr2-rcr2-esr100.exr,ReadingArea_rsl2-rcl25-esl100-rsm2-rcm2-esm29-rsr2-rcr2-esr100.npz,,,,,0,162,162,401,,right,red,4.75,1371.9589068889618,1372.4550228118896,,3,,2,10,brightness,readingArea,realistic,75,2023-03-31_10h59.09.344,tripletExp_regina_11082022,2022.2.4,119.80371210346816,
11,5,8,2,1.0,1.0,2,1.0,0.298245614035088,2,0.25,1.0,ReadingArea_rsl2-rcl100-esl100-rsm2-rcm100-esm29-rsr2-rcr25-esr100,exr/ReadingArea_rsl2-rcl100-esl100-rsm2-rcm100-esm29-rsr2-rcr25-esr100.exr,ReadingArea_rsl2-rcl100-esl100-rsm2-rcm100-esm29-rsr2-rcr25-esr100.npz,,,,,0,163,163,86,,right,red,2.77,1375.9242959022522,1376.3978188037872,,3,,2,10,brightness,readingArea,realistic,75,2023-03-31_10h59.09.344,tripletExp_regina_11082022,2022.2.4,119.80371210346816,
5,1,4,2,1.0,0.298245614035088,2,0.111111111111111,0.298245614035088,2,0.694444444444444,0.298245614035088,ReadingArea_rsl2-rcl100-esl29-rsm2-rcm11-esm29-rsr2-rcr69-esr29,exr/ReadingArea_rsl2-rcl100-esl29-rsm2-rcm11-esm29-rsr2-rcr69-esr29.exr,ReadingArea_rsl2-rcl100-esl29-rsm2-rcm11-esm29-rsr2-rcr69-esr29.npz,,,,,0,164,164,287,,right,red,3.35,1379.8702139854431,,,3,,2,10,brightness,readingArea,realistic,75,2023-03-31_10h59.09.344,tripletExp_regina_11082022,2022.2.4,119.80371210346816,
2,8,7,2,0.25,0.298245614035088,2,0.25,1.0,2,0.111111111111111,1.0,ReadingArea_rsl2-rcl25-esl29-rsm2-rcm25-esm100-rsr2-rcr11-esr100,exr/ReadingArea_rsl2-rcl25-esl29-rsm2-rcm25-esm100-rsr2-rcr11-esr100.exr,ReadingArea_rsl2-rcl25-esl29-rsm2-rcm25-esm100-rsr2-rcr11-esr100.npz,,,,,0,165,165,393,,right,red,3.56,1383.9481778144836,1384.4472029209137,,3,,2,10,brightness,readingArea,realistic,75,2023-03-31_10h59.09.344,tripletExp_regina_11082022,2022.2.4,119.80371210346816,
7,1,9,2,0.111111111111111,1.0,2,0.111111111111111,0.298245614035088,2,0.444444444444444,1.0,ReadingArea_rsl2-rcl11-esl100-rsm2-rcm11-esm29-rsr2-rcr44-esr100,exr/ReadingArea_rsl2-rcl11-esl100-rsm2-rcm11-esm29-rsr2-rcr44-esr100.exr,ReadingArea_rsl2-rcl11-esl100-rsm2-rcm11-esm29-rsr2-rcr44-esr100.npz,,,,,0,166,166,89,,left,green,4.03,1389.672341823578,1390.152549982071,,3,,2,10,brightness,readingArea,realistic,75,2023-03-31_10h59.09.344,tripletExp_regina_11082022,2022.2.4,119.80371210346816,
7,4,1,2,0.111111111111111,1.0,2,0.694444444444444,0.298245614035088,2,0.111111111111111,0.298245614035088,ReadingArea_rsl2-rcl11-esl100-rsm2-rcm69-esm29-rsr2-rcr11-esr29,exr/ReadingArea_rsl2-rcl11-esl100-rsm2-rcm69-esm29-rsr2-rcr11-esr29.exr,ReadingArea_rsl2-rcl11-esl100-rsm2-rcm69-esm29-rsr2-rcr11-esr29.npz,,,,,0,167,167,369,,left,green,2.23,1393.6205790042875,1394.14240193367,,3,,2,10,brightness,readingArea,realistic,75,2023-03-31_10h59.09.344,tripletExp_regina_11082022,2022.2.4,119.80371210346816,
0,5,2,2,0.027777777777778,0.298245614035088,2,1.0,0.298245614035088,2,0.25,0.298245614035088,ReadingArea_rsl2-rcl2-esl29-rsm2-rcm100-esm29-rsr2-rcr25-esr29,exr/ReadingArea_rsl2-rcl2-esl29-rsm2-rcm100-esm29-rsr2-rcr25-esr29.exr,ReadingArea_rsl2-rcl2-esl29-rsm2-rcm100-esm29-rsr2-rcr25-esr29.npz,,,,,0,168,168,25,,right,red,2.29,1397.611624956131,1398.109680891037,,3,,2,10,brightness,readingArea,realistic,75,2023-03-31_10h59.09.344,tripletExp_regina_11082022,2022.2.4,119.80371210346816,
2,10,6,2,0.25,0.298245614035088,2,0.694444444444444,1.0,2,0.027777777777778,1.0,ReadingArea_rsl2-rcl25-esl29-rsm2-rcm69-esm100-rsr2-rcr2-esr100,exr/ReadingArea_rsl2-rcl25-esl29-rsm2-rcm69-esm100-rsr2-rcr2-esr100.exr,ReadingArea_rsl2-rcl25-esl29-rsm2-rcm69-esm100-rsr2-rcr2-esr100.npz,,,,,0,169,169,4,,left,green,4.52,1403.33487200737,1403.9268698692322,,3,,2,10,brightness,readingArea,realistic,75,2023-03-31_10h59.09.344,tripletExp_regina_11082022,2022.2.4,119.80371210346816,
7,9,8,2,0.111111111111111,1.0,2,0.444444444444444,1.0,2,0.25,1.0,ReadingArea_rsl2-rcl11-esl100-rsm2-rcm44-esm100-rsr2-rcr25-esr100,exr/ReadingArea_rsl2-rcl11-esl100-rsm2-rcm44-esm100-rsr2-rcr25-esr100.exr,ReadingArea_rsl2-rcl11-esl100-rsm2-rcm44-esm100-rsr2-rcr25-esr100.npz,,,,,0,170,170,515,,right,red,3.96,1409.1769018173218,1409.7173929214478,,3,,2,10,brightness,readingArea,realistic,75,2023-03-31_10h59.09.344,tripletExp_regina_11082022,2022.2.4,119.80371210346816,
2,4,10,2,0.25,0.298245614035088,2,0.694444444444444,0.298245614035088,2,0.694444444444444,1.0,ReadingArea_rsl2-rcl25-esl29-rsm2-rcm69-esm29-rsr2-rcr69-esr100,exr/ReadingArea_rsl2-rcl25-esl29-rsm2-rcm69-esm29-rsr2-rcr69-esr100.exr,ReadingArea_rsl2-rcl25-esl29-rsm2-rcm69-esm29-rsr2-rcr69-esr100.npz,,,,,0,171,171,174,,left,green,4.55,1414.9313418865204,1415.4190428256989,,3,,2,10,brightness,readingArea,realistic,75,2023-03-31_10h59.09.344,tripletExp_regina_11082022,2022.2.4,119.80371210346816,
7,3,5,2,0.111111111111111,1.0,2,0.444444444444444,0.298245614035088,2,1.0,0.298245614035088,ReadingArea_rsl2-rcl11-esl100-rsm2-rcm44-esm29-rsr2-rcr100-esr29,exr/ReadingArea_rsl2-rcl11-esl100-rsm2-rcm44-esm29-rsr2-rcr100-esr29.exr,ReadingArea_rsl2-rcl11-esl100-rsm2-rcm44-esm29-rsr2-rcr100-esr29.npz,,,,,0,172,172,589,,left,green,4.47,1420.678974866867,1421.1651020050049,,3,,2,10,brightness,readingArea,realistic,75,2023-03-31_10h59.09.344,tripletExp_regina_11082022,2022.2.4,119.80371210346816,
12,6,8,2,0.027777777777778,3.10526315789474,2,0.027777777777778,1.0,2,0.25,1.0,ReadingArea_rsl2-rcl2-esl310-rsm2-rcm2-esm100-rsr2-rcr25-esr100,exr/ReadingArea_rsl2-rcl2-esl310-rsm2-rcm2-esm100-rsr2-rcr25-esr100.exr,ReadingArea_rsl2-rcl2-esl310-rsm2-rcm2-esm100-rsr2-rcr25-esr100.npz,,,,,0,173,173,540,,left,green,4.26,1426.400357961655,1426.8835759162905,,3,,2,10,brightness,readingArea,realistic,75,2023-03-31_10h59.09.344,tripletExp_regina_11082022,2022.2.4,119.80371210346816,
13,4,12,2,0.111111111111111,3.10526315789474,2,0.694444444444444,0.298245614035088,2,0.027777777777778,3.10526315789474,ReadingArea_rsl2-rcl11-esl310-rsm2-rcm69-esm29-rsr2-rcr2-esr310,exr/ReadingArea_rsl2-rcl11-esl310-rsm2-rcm69-esm29-rsr2-rcr2-esr310.exr,ReadingArea_rsl2-rcl11-esl310-rsm2-rcm69-esm29-rsr2-rcr2-esr310.npz,,,,,0,174,174,122,,left,green,4.92,1432.1284348964691,,,3,,2,10,brightness,readingArea,realistic,75,2023-03-31_10h59.09.344,tripletExp_regina_11082022,2022.2.4,119.80371210346816,
1,11,14,2,0.111111111111111,0.298245614035088,2,1.0,1.0,2,0.25,3.10526315789474,ReadingArea_rsl2-rcl11-esl29-rsm2-rcm100-esm100-rsr2-rcr25-esr310,exr/ReadingArea_rsl2-rcl11-esl29-rsm2-rcm100-esm100-rsr2-rcr25-esr310.exr,ReadingArea_rsl2-rcl11-esl29-rsm2-rcm100-esm100-rsr2-rcr25-esr310.npz,,,,,0,175,175,399,,right,red,2.15,1436.0825238227844,1436.5637669563291,,3,,2,10,brightness,readingArea,realistic,75,2023-03-31_10h59.09.344,tripletExp_regina_11082022,2022.2.4,119.80371210346816,
8,1,14,2,0.25,1.0,2,0.111111111111111,0.298245614035088,2,0.25,3.10526315789474,ReadingArea_rsl2-rcl25-esl100-rsm2-rcm11-esm29-rsr2-rcr25-esr310,exr/ReadingArea_rsl2-rcl25-esl100-rsm2-rcm11-esm29-rsr2-rcr25-esr310.exr,ReadingArea_rsl2-rcl25-esl100-rsm2-rcm11-esm29-rsr2-rcr25-esr310.npz,,,,,0,176,176,500,,left,green,2.17,1440.0542027950287,1440.4859039783478,,3,,2,10,brightness,readingArea,realistic,75,2023-03-31_10h59.09.344,tripletExp_regina_11082022,2022.2.4,119.80371210346816,
6,1,10,2,0.027777777777778,1.0,2,0.111111111111111,0.298245614035088,2,0.694444444444444,1.0,ReadingArea_rsl2-rcl2-esl100-rsm2-rcm11-esm29-rsr2-rcr69-esr100,exr/ReadingArea_rsl2-rcl2-esl100-rsm2-rcm11-esm29-rsr2-rcr69-esr100.exr,ReadingArea_rsl2-rcl2-esl100-rsm2-rcm11-esm29-rsr2-rcr69-esr100.npz,,,,,0,177,177,561,,left,green,2.46,1443.9753079414368,1444.4678428173063,,3,,2,10,brightness,readingArea,realistic,75,2023-03-31_10h59.09.344,tripletExp_regina_11082022,2022.2.4,119.80371210346816,
1,9,8,2,0.111111111111111,0.298245614035088,2,0.444444444444444,1.0,2,0.25,1.0,ReadingArea_rsl2-rcl11-esl29-rsm2-rcm44-esm100-rsr2-rcr25-esr100,exr/ReadingArea_rsl2-rcl11-esl29-rsm2-rcm44-esm100-rsr2-rcr25-esr100.exr,ReadingArea_rsl2-rcl11-esl29-rsm2-rcm44-esm100-rsr2-rcr25-esr100.npz,,,,,0,178,178,268,,right,red,2.07,1447.9361288547516,1448.4331619739532,,3,,2,10,brightness,readingArea,realistic,75,2023-03-31_10h59.09.344,tripletExp_regina_11082022,2022.2.4,119.80371210346816,
11,12,10,2,1.0,1.0,2,0.027777777777778,3.10526315789474,2,0.694444444444444,1.0,ReadingArea_rsl2-rcl100-esl100-rsm2-rcm2-esm310-rsr2-rcr69-esr100,exr/ReadingArea_rsl2-rcl100-esl100-rsm2-rcm2-esm310-rsr2-rcr69-esr100.exr,ReadingArea_rsl2-rcl100-esl100-rsm2-rcm2-esm310-rsr2-rcr69-esr100.npz,,,,,0,179,179,465,,right,red,2.48,1451.8942399024963,1452.3709709644318,,3,,2,10,brightness,readingArea,realistic,75,2023-03-31_10h59.09.344,tripletExp_regina_11082022,2022.2.4,119.80371210346816,
2,7,11,2,0.25,0.298245614035088,2,0.111111111111111,1.0,2,1.0,1.0,ReadingArea_rsl2-rcl25-esl29-rsm2-rcm11-esm100-rsr2-rcr100-esr100,exr/ReadingArea_rsl2-rcl25-esl29-rsm2-rcm11-esm100-rsr2-rcr100-esr100.exr,ReadingArea_rsl2-rcl25-esl29-rsm2-rcm11-esm100-rsr2-rcr100-esr100.npz,,,,,0,180,180,194,,left,green,2.24,1455.830157995224,1456.3248038291931,,3,,2,10,brightness,readingArea,realistic,75,2023-03-31_10h59.09.344,tripletExp_regina_11082022,2022.2.4,119.80371210346816,
3,6,13,2,0.444444444444444,0.298245614035088,2,0.027777777777778,1.0,2,0.111111111111111,3.10526315789474,ReadingArea_rsl2-rcl44-esl29-rsm2-rcm2-esm100-rsr2-rcr11-esr310,exr/ReadingArea_rsl2-rcl44-esl29-rsm2-rcm2-esm100-rsr2-rcr11-esr310.exr,ReadingArea_rsl2-rcl44-esl29-rsm2-rcm2-esm100-rsr2-rcr11-esr310.npz,,,,,0,181,181,449,,left,green,3.14,1459.795224905014,1460.2794539928436,,3,,2,10,brightness,readingArea,realistic,75,2023-03-31_10h59.09.344,tripletExp_regina_11082022,2022.2.4,119.80371210346816,
5,8,2,2,1.0,0.298245614035088,2,0.25,1.0,2,0.25,0.298245614035088,ReadingArea_rsl2-rcl100-esl29-rsm2-rcm25-esm100-rsr2-rcr25-esr29,exr/ReadingArea_rsl2-rcl100-esl29-rsm2-rcm25-esm100-rsr2-rcr25-esr29.exr,ReadingArea_rsl2-rcl100-esl29-rsm2-rcm25-esm100-rsr2-rcr25-esr29.npz,,,,,0,182,182,65,,left,green,4.09,1465.5199007987976,1466.0135099887848,,3,,2,10,brightness,readingArea,realistic,75,2023-03-31_10h59.09.344,tripletExp_regina_11082022,2022.2.4,119.80371210346816,
6,11,3,2,0.027777777777778,1.0,2,1.0,1.0,2,0.444444444444444,0.298245614035088,ReadingArea_rsl2-rcl2-esl100-rsm2-rcm100-esm100-rsr2-rcr44-esr29,exr/ReadingArea_rsl2-rcl2-esl100-rsm2-rcm100-esm100-rsr2-rcr44-esr29.exr,ReadingArea_rsl2-rcl2-esl100-rsm2-rcm100-esm100-rsr2-rcr44-esr29.npz,,,,,0,183,183,11,,right,red,2.15,1469.4745199680328,1469.957701921463,,3,,2,10,brightness,readingArea,realistic,75,2023-03-31_10h59.09.344,tripletExp_regina_11082022,2022.2.4,119.80371210346816,
10,7,13,2,0.694444444444444,1.0,2,0.111111111111111,1.0,2,0.111111111111111,3.10526315789474,ReadingArea_rsl2-rcl69-esl100-rsm2-rcm11-esm100-rsr2-rcr11-esr310,exr/ReadingArea_rsl2-rcl69-esl100-rsm2-rcm11-esm100-rsr2-rcr11-esr310.exr,ReadingArea_rsl2-rcl69-esl100-rsm2-rcm11-esm100-rsr2-rcr11-esr310.npz,,,,,0,184,184,379,,right,red,2.16,1473.4229629039764,1473.9039390087128,,3,,2,10,brightness,readingArea,realistic,75,2023-03-31_10h59.09.344,tripletExp_regina_11082022,2022.2.4,119.80371210346816,
14,0,6,2,0.25,3.10526315789474,2,0.027777777777778,0.298245614035088,2,0.027777777777778,1.0,ReadingArea_rsl2-rcl25-esl310-rsm2-rcm2-esm29-rsr2-rcr2-esr100,exr/ReadingArea_rsl2-rcl25-esl310-rsm2-rcm2-esm29-rsr2-rcr2-esr100.exr,ReadingArea_rsl2-rcl25-esl310-rsm2-rcm2-esm29-rsr2-rcr2-esr100.npz,,,,,0,185,185,496,,right,red,2.12,1477.3897559642792,1477.8685638904572,,3,,2,10,brightness,readingArea,realistic,75,2023-03-31_10h59.09.344,tripletExp_regina_11082022,2022.2.4,119.80371210346816,
2,5,14,2,0.25,0.298245614035088,2,1.0,0.298245614035088,2,0.25,3.10526315789474,ReadingArea_rsl2-rcl25-esl29-rsm2-rcm100-esm29-rsr2-rcr25-esr310,exr/ReadingArea_rsl2-rcl25-esl29-rsm2-rcm100-esm29-rsr2-rcr25-esr310.exr,ReadingArea_rsl2-rcl25-esl29-rsm2-rcm100-esm29-rsr2-rcr25-esr310.npz,,,,,0,186,186,390,,right,red,3.8,1483.126513004303,1483.6193268299105,,3,,2,10,brightness,readingArea,realistic,75,2023-03-31_10h59.09.344,tripletExp_regina_11082022,2022.2.4,119.80371210346816,
7,5,1,2,0.111111111111111,1.0,2,1.0,0.298245614035088,2,0.111111111111111,0.298245614035088,ReadingArea_rsl2-rcl11-esl100-rsm2-rcm100-esm29-rsr2-rcr11-esr29,exr/ReadingArea_rsl2-rcl11-esl100-rsm2-rcm100-esm29-rsr2-rcr11-esr29.exr,ReadingArea_rsl2-rcl11-esl100-rsm2-rcm100-esm29-rsr2-rcr11-esr29.npz,,,,,0,187,187,513,,left,green,2.18,1487.1061878204346,1487.6756539344788,,3,,2,10,brightness,readingArea,realistic,75,2023-03-31_10h59.09.344,tripletExp_regina_11082022,2022.2.4,119.80371210346816,
14,11,4,2,0.25,3.10526315789474,2,1.0,1.0,2,0.694444444444444,0.298245614035088,ReadingArea_rsl2-rcl25-esl310-rsm2-rcm100-esm100-rsr2-rcr69-esr29,exr/ReadingArea_rsl2-rcl25-esl310-rsm2-rcm100-esm100-rsr2-rcr69-esr29.exr,ReadingArea_rsl2-rcl25-esl310-rsm2-rcm100-esm100-rsr2-rcr69-esr29.npz,,,,,0,188,188,370,,left,green,1.21,1489.3742969036102,1489.8657319545746,,3,,2,10,brightness,readingArea,realistic,75,2023-03-31_10h59.09.344,tripletExp_regina_11082022,2022.2.4,119.80371210346816,
6,10,9,2,0.027777777777778,1.0,2,0.694444444444444,1.0,2,0.444444444444444,1.0,ReadingArea_rsl2-rcl2-esl100-rsm2-rcm69-esm100-rsr2-rcr44-esr100,exr/ReadingArea_rsl2-rcl2-esl100-rsm2-rcm69-esm100-rsr2-rcr44-esr100.exr,ReadingArea_rsl2-rcl2-esl100-rsm2-rcm69-esm100-rsr2-rcr44-esr100.npz,,,,,0,189,189,148,,right,red,2.9,1493.330560922623,1493.8609828948977,,3,,2,10,brightness,readingArea,realistic,75,2023-03-31_10h59.09.344,tripletExp_regina_11082022,2022.2.4,119.80371210346816,
12,7,1,2,0.027777777777778,3.10526315789474,2,0.111111111111111,1.0,2,0.111111111111111,0.298245614035088,ReadingArea_rsl2-rcl2-esl310-rsm2-rcm11-esm100-rsr2-rcr11-esr29,exr/ReadingArea_rsl2-rcl2-esl310-rsm2-rcm11-esm100-rsr2-rcr11-esr29.exr,ReadingArea_rsl2-rcl2-esl310-rsm2-rcm11-esm100-rsr2-rcr11-esr29.npz,,,,,0,190,190,264,,left,green,1.55,1495.5605669021606,1496.0366959571838,,3,,2,10,brightness,readingArea,realistic,75,2023-03-31_10h59.09.344,tripletExp_regina_11082022,2022.2.4,119.80371210346816,
13,11,7,2,0.111111111111111,3.10526315789474,2,1.0,1.0,2,0.111111111111111,1.0,ReadingArea_rsl2-rcl11-esl310-rsm2-rcm100-esm100-rsr2-rcr11-esr100,exr/ReadingArea_rsl2-rcl11-esl310-rsm2-rcm100-esm100-rsr2-rcr11-esr100.exr,ReadingArea_rsl2-rcl11-esl310-rsm2-rcm100-esm100-rsr2-rcr11-esr100.npz,,,,,0,191,191,590,,left,green,3.2,1499.5060188770294,,,3,,2,10,brightness,readingArea,realistic,75,2023-03-31_10h59.09.344,tripletExp_regina_11082022,2022.2.4,119.80371210346816,
11,0,10,2,1.0,1.0,2,0.027777777777778,0.298245614035088,2,0.694444444444444,1.0,ReadingArea_rsl2-rcl100-esl100-rsm2-rcm2-esm29-rsr2-rcr69-esr100,exr/ReadingArea_rsl2-rcl100-esl100-rsm2-rcm2-esm29-rsr2-rcr69-esr100.exr,ReadingArea_rsl2-rcl100-esl100-rsm2-rcm2-esm29-rsr2-rcr69-esr100.npz,,,,,0,192,192,259,,right,red,3.93,1505.2424499988556,1505.7279617786407,,3,,2,10,brightness,readingArea,realistic,75,2023-03-31_10h59.09.344,tripletExp_regina_11082022,2022.2.4,119.80371210346816,
7,14,5,2,0.111111111111111,1.0,2,0.25,3.10526315789474,2,1.0,0.298245614035088,ReadingArea_rsl2-rcl11-esl100-rsm2-rcm25-esm310-rsr2-rcr100-esr29,exr/ReadingArea_rsl2-rcl11-esl100-rsm2-rcm25-esm310-rsr2-rcr100-esr29.exr,ReadingArea_rsl2-rcl11-esl100-rsm2-rcm25-esm310-rsr2-rcr100-esr29.npz,,,,,0,193,193,372,,left,green,2.79,1509.1870498657229,1509.671054840088,,3,,2,10,brightness,readingArea,realistic,75,2023-03-31_10h59.09.344,tripletExp_regina_11082022,2022.2.4,119.80371210346816,
13,3,14,2,0.111111111111111,3.10526315789474,2,0.444444444444444,0.298245614035088,2,0.25,3.10526315789474,ReadingArea_rsl2-rcl11-esl310-rsm2-rcm44-esm29-rsr2-rcr25-esr310,exr/ReadingArea_rsl2-rcl11-esl310-rsm2-rcm44-esm29-rsr2-rcr25-esr310.exr,ReadingArea_rsl2-rcl11-esl310-rsm2-rcm44-esm29-rsr2-rcr25-esr310.npz,,,,,0,194,194,38,,left,green,2.22,1513.131166934967,1513.7266960144043,,3,,2,10,brightness,readingArea,realistic,75,2023-03-31_10h59.09.344,tripletExp_regina_11082022,2022.2.4,119.80371210346816,
13,11,2,2,0.111111111111111,3.10526315789474,2,1.0,1.0,2,0.25,0.298245614035088,ReadingArea_rsl2-rcl11-esl310-rsm2-rcm100-esm100-rsr2-rcr25-esr29,exr/ReadingArea_rsl2-rcl11-esl310-rsm2-rcm100-esm100-rsr2-rcr25-esr29.exr,ReadingArea_rsl2-rcl11-esl310-rsm2-rcm100-esm100-rsr2-rcr25-esr29.npz,,,,,0,195,195,55,,left,green,1.42,1515.419427871704,1515.9057278633118,,3,,2,10,brightness,readingArea,realistic,75,2023-03-31_10h59.09.344,tripletExp_regina_11082022,2022.2.4,119.80371210346816,
0,1,7,2,0.027777777777778,0.298245614035088,2,0.111111111111111,0.298245614035088,2,0.111111111111111,1.0,ReadingArea_rsl2-rcl2-esl29-rsm2-rcm11-esm29-rsr2-rcr11-esr100,exr/ReadingArea_rsl2-rcl2-esl29-rsm2-rcm11-esm29-rsr2-rcr11-esr100.exr,ReadingArea_rsl2-rcl2-esl29-rsm2-rcm11-esm29-rsr2-rcr11-esr100.npz,,,,,0,196,196,243,,right,red,2.24,1519.3873839378357,1519.879282951355,,3,,2,10,brightness,readingArea,realistic,75,2023-03-31_10h59.09.344,tripletExp_regina_11082022,2022.2.4,119.80371210346816,
12,14,8,2,0.027777777777778,3.10526315789474,2,0.25,3.10526315789474,2,0.25,1.0,ReadingArea_rsl2-rcl2-esl310-rsm2-rcm25-esm310-rsr2-rcr25-esr100,exr/ReadingArea_rsl2-rcl2-esl310-rsm2-rcm25-esm310-rsr2-rcr25-esr100.exr,ReadingArea_rsl2-rcl2-esl310-rsm2-rcm25-esm310-rsr2-rcr25-esr100.npz,,,,,0,197,197,466,,right,red,2.22,1523.3497188091278,1523.845421791077,,3,,2,10,brightness,readingArea,realistic,75,2023-03-31_10h59.09.344,tripletExp_regina_11082022,2022.2.4,119.80371210346816,
10,11,4,2,0.694444444444444,1.0,2,1.0,1.0,2,0.694444444444444,0.298245614035088,ReadingArea_rsl2-rcl69-esl100-rsm2-rcm100-esm100-rsr2-rcr69-esr29,exr/ReadingArea_rsl2-rcl69-esl100-rsm2-rcm100-esm100-rsr2-rcr69-esr29.exr,ReadingArea_rsl2-rcl69-esl100-rsm2-rcm100-esm100-rsr2-rcr69-esr29.npz,,,,,0,198,198,239,,left,green,2.43,1527.312980890274,1527.860004901886,,3,,2,10,brightness,readingArea,realistic,75,2023-03-31_10h59.09.344,tripletExp_regina_11082022,2022.2.4,119.80371210346816,
12,6,2,2,0.027777777777778,3.10526315789474,2,0.027777777777778,1.0,2,0.25,0.298245614035088,ReadingArea_rsl2-rcl2-esl310-rsm2-rcm2-esm100-rsr2-rcr25-esr29,exr/ReadingArea_rsl2-rcl2-esl310-rsm2-rcm2-esm100-rsr2-rcr25-esr29.exr,ReadingArea_rsl2-rcl2-esl310-rsm2-rcm2-esm100-rsr2-rcr25-esr29.npz,,,,,0,199,199,106,,left,green,2.43,1531.3233478069303,1531.8113679885864,,3,,2,10,brightness,readingArea,realistic,75,2023-03-31_10h59.09.344,tripletExp_regina_11082022,2022.2.4,119.80371210346816,
6,0,4,2,0.027777777777778,1.0,2,0.027777777777778,0.298245614035088,2,0.694444444444444,0.298245614035088,ReadingArea_rsl2-rcl2-esl100-rsm2-rcm2-esm29-rsr2-rcr69-esr29,exr/ReadingArea_rsl2-rcl2-esl100-rsm2-rcm2-esm29-rsr2-rcr69-esr29.exr,ReadingArea_rsl2-rcl2-esl100-rsm2-rcm2-esm29-rsr2-rcr69-esr29.npz,,,,,0,200,200,555,,left,green,2.73,1535.2842497825625,1535.772980928421,,3,,2,10,brightness,readingArea,realistic,75,2023-03-31_10h59.09.344,tripletExp_regina_11082022,2022.2.4,119.80371210346816,
8,12,4,2,0.25,1.0,2,0.027777777777778,3.10526315789474,2,0.694444444444444,0.298245614035088,ReadingArea_rsl2-rcl25-esl100-rsm2-rcm2-esm310-rsr2-rcr69-esr29,exr/ReadingArea_rsl2-rcl25-esl100-rsm2-rcm2-esm310-rsr2-rcr69-esr29.exr,ReadingArea_rsl2-rcl25-esl100-rsm2-rcm2-esm310-rsr2-rcr69-esr29.npz,,,,,0,201,201,30,,right,red,4.95,1541.021587848663,1541.522260904312,,3,,2,10,brightness,readingArea,realistic,75,2023-03-31_10h59.09.344,tripletExp_regina_11082022,2022.2.4,119.80371210346816,
3,14,10,2,0.444444444444444,0.298245614035088,2,0.25,3.10526315789474,2,0.694444444444444,1.0,ReadingArea_rsl2-rcl44-esl29-rsm2-rcm25-esm310-rsr2-rcr69-esr100,exr/ReadingArea_rsl2-rcl44-esl29-rsm2-rcm25-esm310-rsr2-rcr69-esr100.exr,ReadingArea_rsl2-rcl44-esl29-rsm2-rcm25-esm310-rsr2-rcr69-esr100.npz,,,,,0,202,202,279,,right,red,2.51,1544.97851395607,1545.4518148899078,,3,,2,10,brightness,readingArea,realistic,75,2023-03-31_10h59.09.344,tripletExp_regina_11082022,2022.2.4,119.80371210346816,
